exp_question,consent.started,consent.stopped,consentResponse.keys,consentResponse.rt,consentResponse.duration,participantID,date,expName,psychopyVersion,OS,frameRate,STUDY_ID,SESSION_ID,opening1.started,opening1.stopped,keyEndingOpening1.keys,keyEndingOpening1.rt,keyEndingOpening1.duration,volumeAdjust.started,volumeAdjust.stopped,endingAdjust.keys,endingAdjust.rt,endingAdjust.duration,opening2.started,opening2.stopped,keyEndingOpening.keys,keyEndingOpening.rt,keyEndingOpening.duration,mouse.x,mouse.y,mouse.leftButton,mouse.midButton,mouse.rightButton,mouse.time,instructionLoop.thisRepN,instructionLoop.thisTrialN,instructionLoop.thisN,instructionLoop.thisIndex,instructionLoop.ran,readyForAudio.started,readyForAudio.stopped,fixation.started,run,audio_played,fixation.stopped,endPractice.keys,audioPre.started,audioPre.stopped,continuousResponses_audio,continuousSlider.response,continuousSlider.rt,intRating.started,intRating.stopped,intQuestionSlider.response,intQuestionSlider.rt,intQuestionSlider.history,confirmResponse.keys,confirmResponse.rt,confirmResponse.duration,catchQuestion.started,catch_label,catch_value,catchQuestion.stopped,catchQuestionSlider.response,catchQuestionSlider.rt,catchQuestionSlider.history,confirmResponse_2.keys,audioRunLoop.thisRepN,audioRunLoop.thisTrialN,audioRunLoop.thisN,audioRunLoop.thisIndex,audioRunLoop.ran,conditions1_1,conditions2_1,conditions1_2,conditions2_2,dur1_1,dur2_1,dur1_2,dur2_2,endPractice.rt,endPractice.duration,confirmResponse_2.rt,confirmResponse_2.duration,runIntervalBreak.started,runIntervalBreak.stopped,endingBreakKey.keys,endingBreakKey.rt,endingBreakKey.duration,connection.started,connection.stopped,connectionEnding.keys,connectionEnding.rt,connectionEnding.duration,readyForText.started,readyForText.stopped,textPre.started,run_dup,textPre.stopped,continuousResponses_text,textRunLoop.thisRepN,textRunLoop.thisTrialN,textRunLoop.thisN,textRunLoop.thisIndex,textRunLoop.ran,text1_1,text1_2,text2_1,text2_2,runBreakText.started,runBreakText.stopped,endingBreakKey_2.keys,endingBreakKey_2.rt,endingBreakKey_2.duration,ending.started,ending.stopped,endingEnding.keys,endingEnding.rt,endingEnding.duration
tom,0.0004,36.7087,y,36.3853,,62dc761564191bc28a87e7c7,2024-02-08_09h50.45.621,group3.1-3.2-social-tom,2023.2.2,Win32,60.60606061,65c5074098b851296ff0b7ed,65c5144580ce2dd1a455146e,,,,,,,,,,,,,,,,,,,,,,,,,,,,,,,,,,,,,,,,,,,,,,,,,,,,,,,,,,,,,,,,,,,,,,,,,,,,,,,,,,,,,,,,,,,,,,,,,,,,,,,,,,
,,,,,,62dc761564191bc28a87e7c7,2024-02-08_09h50.45.621,group3.1-3.2-social-tom,2023.2.2,Win32,60.60606061,65c5074098b851296ff0b7ed,65c5144580ce2dd1a455146e,36.7089,43.8948,space,7.1452,,,,,,,,,,,,,,,,,,,,,,,,,,,,,,,,,,,,,,,,,,,,,,,,,,,,,,,,,,,,,,,,,,,,,,,,,,,,,,,,,,,,,,,,,,,,,,,,,,,,,,
,,,,,,62dc761564191bc28a87e7c7,2024-02-08_09h50.45.621,group3.1-3.2-social-tom,2023.2.2,Win32,60.60606061,65c5074098b851296ff0b7ed,65c5144580ce2dd1a455146e,,,,,,43.895,106.3522,space,62.1256,,,,,,,,,,,,,,,,,,,,,,,,,,,,,,,,,,,,,,,,,,,,,,,,,,,,,,,,,,,,,,,,,,,,,,,,,,,,,,,,,,,,,,,,,,,,,,,,,
,,,,,,62dc761564191bc28a87e7c7,2024-02-08_09h50.45.621,group3.1-3.2-social-tom,2023.2.2,Win32,60.60606061,65c5074098b851296ff0b7ed,65c5144580ce2dd1a455146e,,,,,,,,,,,106.3655,114.7125,space,8.3297,,[],[],[],[],[],[],0,0,0,0,1,,,,,,,,,,,,,,,,,,,,,,,,,,,,,,,,,,,,,,,,,,,,,,,,,,,,,,,,,,,,,,,,,,,,,,,,,,,,,,,,
,,,,,,62dc761564191bc28a87e7c7,2024-02-08_09h50.45.621,group3.1-3.2-social-tom,2023.2.2,Win32,60.60606061,65c5074098b851296ff0b7ed,65c5144580ce2dd1a455146e,,,,,,,,,,,114.7216,114.8246,space,0.001,,[],[],[],[],[],[],1,0,1,0,1,,,,,,,,,,,,,,,,,,,,,,,,,,,,,,,,,,,,,,,,,,,,,,,,,,,,,,,,,,,,,,,,,,,,,,,,,,,,,,,,
,,,,,,62dc761564191bc28a87e7c7,2024-02-08_09h50.45.621,group3.1-3.2-social-tom,2023.2.2,Win32,60.60606061,65c5074098b851296ff0b7ed,65c5144580ce2dd1a455146e,,,,,,,,,,,114.8249,141.2637,space,26.3906,,[],[],[],[],[],[],2,0,2,0,1,,,,,,,,,,,,,,,,,,,,,,,,,,,,,,,,,,,,,,,,,,,,,,,,,,,,,,,,,,,,,,,,,,,,,,,,,,,,,,,,
,,,,,,62dc761564191bc28a87e7c7,2024-02-08_09h50.45.621,group3.1-3.2-social-tom,2023.2.2,Win32,60.60606061,65c5074098b851296ff0b7ed,65c5144580ce2dd1a455146e,,,,,,,,,,,141.2725,158.8037,space,17.5027,,[],[],[],[],[],[],3,0,3,0,1,,,,,,,,,,,,,,,,,,,,,,,,,,,,,,,,,,,,,,,,,,,,,,,,,,,,,,,,,,,,,,,,,,,,,,,,,,,,,,,,
,,,,,,62dc761564191bc28a87e7c7,2024-02-08_09h50.45.621,group3.1-3.2-social-tom,2023.2.2,Win32,60.60606061,65c5074098b851296ff0b7ed,65c5144580ce2dd1a455146e,,,,,,,,,,,158.811,170.7079,space,11.8749,,[],[],[],[],[],[],4,0,4,0,1,,,,,,,,,,,,,,,,,,,,,,,,,,,,,,,,,,,,,,,,,,,,,,,,,,,,,,,,,,,,,,,,,,,,,,,,,,,,,,,,
,,,,,,62dc761564191bc28a87e7c7,2024-02-08_09h50.45.621,group3.1-3.2-social-tom,2023.2.2,Win32,60.60606061,65c5074098b851296ff0b7ed,65c5144580ce2dd1a455146e,,,,,,,,,,,,,,,,,,,,,,,,,,,170.7177,173.2922,173.322,1,audio/Narrative13Situation2.wav,175.3263,,175.3264,205.0715,"[[999,0],[999,108],[999,189],[999,272],[999,356],[999,439],[999,523],[999,606],[999,689],[999,773],[999,849],[999,939],[999,1023],[999,1106],[999,1191],[999,1274],[999,1356],[999,1441],[999,1523],[999,1606],[999,1691],[999,1773],[49.8,1857],[50.5,1941],[50.3,2023],[50.1,2106],[50.1,2190],[50.1,2270],[50.1,2357],[50.1,2440],[50.1,2523],[51.3,2608],[49.7,3775],[50.6,3857],[51.3,3941],[51.3,4025],[50.6,4108],[50.3,4192],[49.8,4275],[49.7,4357],[49.7,4441],[49.7,4525],[49.7,4608],[49.7,4691],[49.7,4774],[49.8,4858],[49.9,4941],[49.9,5021],[49.9,5117],[49.9,5185],[49.9,5268],[49.9,5358],[49.9,5441],[49.9,5524],[49.9,5608],[49.9,5692],[49.9,5775],[49.9,5858],[49.9,5935],[49.9,6025],[49.9,6108],[49.9,6192],[49.9,6268],[50,6359],[50,6441],[50,6518],[50,6609],[50,6685],[50,6775],[50,6859],[50.1,6942],[50.1,7023],[50.1,7102],[50.1,7192],[50.2,7276],[50.2,7352],[50.2,7442],[50.3,7526],[50.3,7606],[50.3,7692],[50.3,7776],[50.3,7852],[50.3,7936],[50.3,8026],[50.3,8109],[50.3,8192],[50.3,8276],[50.4,8359],[50.4,8436],[50.4,8519],[50.4,8609],[50.4,8686],[50.4,8776],[50.4,8859],[50.4,8943],[50.4,9023],[50.4,9109],[50.4,9186],[50.4,9269],[50.4,9360],[50.4,9436],[50.4,9519],[50.4,9603],[50.4,9693],[50.4,9770],[50.4,9853],[50.4,9936],[50.4,10026],[50.4,10103],[50.4,10187],[50.5,10277],[50.5,10360],[50.6,10444],[50.6,10520],[50.6,10610],[50.6,10687],[50.7,10776],[50.8,10860],[50.8,10944],[50.9,11027],[51,11110],[51,11194],[51,11277],[51.1,11354],[51.1,11437],[51.1,11527],[49.3,11611],[41.7,11694],[35,11778],[27.4,11861],[27.4,11937],[27.3,12027],[27.3,12104],[27.3,12187],[27.3,12271],[27.5,12361],[27.6,12444],[27.6,12527],[27.6,12604],[27.6,12687],[27.6,12780],[27.6,12854],[27.6,12944],[27.5,13021],[27.4,13104],[27.4,13194],[27.4,13277],[27.4,13358],[27.4,13442],[27.4,13521],[27.4,13611],[27.4,13688],[27.5,13778],[27.6,13855],[27.7,13945],[27.7,14028],[27.7,14111],[27.7,14188],[27.7,14271],[27.8,14361],[32.7,14445],[49.5,14529],[56.9,14612],[62.6,14695],[65.6,14779],[67.5,14862],[69.5,14946],[70.3,15029],[71.1,15112],[71.3,15188],[71.3,15272],[71.3,15366],[71.3,15438],[71.3,15528],[71.3,15605],[71.3,15692],[71.3,15779],[71.3,15855],[71.3,15945],[71.3,16030],[71.3,16105],[71.3,16199],[71.3,16272],[71.3,16355],[71.3,16439],[71.3,16522],[71.3,16605],[71.5,16696],[71.6,16779],[72,16862],[72.1,16939],[72.1,17029],[72.1,17110],[72.1,17189],[72.1,17279],[72.1,17363],[72.1,17439],[72.1,17522],[72.1,17610],[72.2,17689],[72.2,17772],[72.2,17856],[72.3,17946],[72.3,18023],[72.3,18106],[72.4,18196],[72.5,18273],[72.7,18363],[73.1,18447],[73.8,18530],[74.3,18606],[74.5,18696],[74.6,18780],[74.6,18863],[74.6,18946],[74.6,19030],[74.6,19113],[74.6,19190],[74.6,19273],[74.6,19363],[74.6,19440],[74.6,19530],[74.6,19607],[74.6,19697],[74.6,19773],[74.8,19857],[74.8,19947],[74.9,20023],[75,20107],[75,20190],[75.1,20273],[75.1,20363],[75.2,20447],[75.3,20524],[75.3,20614],[75.4,20690],[75.4,20774],[75.4,20861],[75.4,20940],[75.5,21024],[75.5,21114],[75.5,21197],[75.5,21274],[75.5,21365],[75.6,21447],[75.6,21524],[75.7,21614],[75.7,21697],[75.7,21781],[75.8,21857],[75.8,21947],[75.8,22024],[75.9,22108],[75.9,22198],[75.9,22274],[75.9,22364],[76,22441],[76,22532],[76.1,22608],[76.1,22691],[76.3,22774],[76.3,22865],[76.4,22948],[76.4,23025],[76.4,23114],[76.4,23191],[76.4,23281],[76.4,23364],[76.4,23448],[76.4,23525],[76.4,23625],[76.4,23708],[76.4,23791],[76.4,23875],[76.5,23958],[76.5,24041],[76.5,24125],[76.5,24209],[76.5,24292],[76.5,24375],[76.5,24459],[76.6,24542],[76.6,24625],[76.6,24708],[76.6,24792],[76.6,24875],[76.6,24959],[76.6,25061],[76.6,25142],[76.6,25225],[76.6,25309],[76.6,25392],[76.6,25475],[76.6,25559],[76.6,25642],[76.6,25726],[76.6,25809],[76.6,25892],[76.7,25976],[76.7,26059],[76.7,26142],[76.7,26226],[76.8,26309],[76.8,26392],[76.8,26476],[76.8,26559],[76.8,26643],[76.8,26726],[76.8,26809],[76.8,26893],[76.8,26976],[76.9,27059],[76.9,27143],[76.9,27226],[76.9,27309],[76.9,27393],[76.9,27476],[76.9,27559],[76.9,27643],[76.9,27726],[76.9,27810],[77,27893],[77,27977],[77,28060],[77,28143],[77,28227],[77,28310],[77,28393],[77,28477],[77,28560],[77,28643],[77,28727],[77,28810],[77,28893],[77,28977],[77,29060],[77,29143],[77,29227],[77.1,29310],[77.1,29394],[77.1,29477],[77.1,29560],[77.1,29644],[77.1,29727]]",1,0,205.072,218.2929,70.9375,11.1668,"[{""rating"":70.9375,""responseTime"":11.166799999952332}]",space,12.6836,,218.2931,Half the time,50,218.2973,,,[],,0,0,0,0,1,audio/Narrative13Situation2.wav,audio/Narrative13Situation2.wav,audio/Narrative13Situation2.wav,audio/Narrative13Situation2.wav,2,2,2,2,,,,,,,,,,,,,,,,,,,,,,,,,,,,,,,,,,,,,,,
,,,,,,62dc761564191bc28a87e7c7,2024-02-08_09h50.45.621,group3.1-3.2-social-tom,2023.2.2,Win32,60.60606061,65c5074098b851296ff0b7ed,65c5144580ce2dd1a455146e,,,,,,,,,,,,,,,,,,,,,,,,,,,,,218.2976,1,audio/Narrative8Situation1.wav,221.2935,space,221.2935,237.2328,"[[999,1],[999,83],[999,166],[999,249],[999,333],[999,416],[999,500],[999,588],[999,674],[999,750],[999,840],[999,923],[999,1006],[999,1083],[999,1173],[999,1256],[999,1333],[999,1423],[999,1507],[999,1583],[999,1674],[999,1757],[999,1840],[999,1923],[999,2007],[999,2090],[999,2174],[999,2250],[999,2334],[999,2424],[999,2500],[999,2590],[999,2667],[999,2757],[999,2840],[999,2924],[999,3007],[999,3100],[999,3172],[50.4,3257],[50.4,3340],[50.4,3424],[50.4,3507],[50.5,3591],[52.7,3675],[55.5,3758],[65,3843],[70.3,3942],[75.2,4025],[82.5,4108],[82.9,4185],[89.8,4275],[90.6,4351],[90.7,4442],[90.7,4518],[90.6,4608],[88.6,4705],[87.3,4775],[83.9,4859],[82.6,4942],[82.2,5025],[79.5,5108],[77.2,5192],[71.9,5275],[71.7,5351],[71.7,5435],[71.9,5525],[77.2,5625],[80.6,5701],[80.1,5793],[72.1,5877],[40.5,5959],[19.2,6042],[19.2,6125],[19.1,6209],[17.9,6309],[16.8,6392],[16.1,6475],[16.1,6558],[16.1,6642],[16.1,6725],[16.3,6802],[16.3,6892],[16.3,6969],[16.3,7058],[16.4,7142],[16.4,7218],[16.4,7308],[16.4,7392],[16.4,7476],[16.4,7552],[16.4,7635],[16.4,7719],[16.4,7809],[16.4,7892],[16.4,7969],[16.4,8059],[16.4,8136],[16.4,8219],[16.4,8303],[16.4,8386],[16.4,8476],[16.4,8559],[16.4,8636],[16.4,8726],[16.4,8802],[16.4,8892],[16.4,8969],[16.4,9053],[16.4,9143],[16.4,9226],[16.4,9307],[16.4,9392],[16.4,9476],[16.5,9560],[16.9,9643],[29.2,9727],[33.3,9810],[37,9910],[37.4,9994],[41,10078],[54.9,10160],[65.9,10244],[74.4,10327],[84.9,10410],[86,10494],[86.5,10577],[87.3,10661],[87.8,10744],[87.8,10820],[87.8,10910],[87.8,10994],[87.8,11091],[87.8,11170],[87.8,11254],[87.8,11337],[87.8,11420],[87.8,11503],[87.8,11587],[87.8,11670],[87.8,11754],[87.8,11837],[87.8,11920],[87.8,12011],[87.8,12087],[87.8,12170],[87.8,12254],[87.8,12337],[87.8,12420],[87.8,12504],[87.8,12588],[87.8,12671],[87.8,12754],[87.8,12837],[87.7,12921],[87.6,13004],[87.5,13087],[87.5,13171],[87.5,13254],[87.5,13337],[87.4,13421],[87.4,13504],[87.4,13588],[87.4,13671],[87.4,13754],[87.4,13838],[87.4,13921],[87.4,14004],[87.4,14088],[87.4,14171],[87.4,14254],[87.4,14338],[87.4,14421],[87.4,14505],[87.4,14588],[87.4,14671],[87.4,14755],[87.4,14838],[87.4,14921],[87.3,15005],[87.3,15088],[87.3,15171],[87.3,15255],[87.3,15338],[87.3,15422],[87.3,15505],[87.2,15588],[87.2,15672],[87.2,15755],[87.2,15838],[87.2,15922]]",1,0,237.2331,245.8925,49.6875,4.9246,"[{""rating"":49.6875,""responseTime"":4.924599999904615}]",space,8.1104,,245.8925,Not at all,0,245.9047,,,[],,0,1,1,1,1,audio/Narrative7Situation1.wav,audio/Narrative8Situation1.wav,audio/Narrative5Situation1.wav,audio/Narrative6Situation1.wav,2,5,5,2,2.9692,,,,,,,,,,,,,,,,,,,,,,,,,,,,,,,,,,,,,,
,,,,,,62dc761564191bc28a87e7c7,2024-02-08_09h50.45.621,group3.1-3.2-social-tom,2023.2.2,Win32,60.60606061,65c5074098b851296ff0b7ed,65c5144580ce2dd1a455146e,,,,,,,,,,,,,,,,,,,,,,,,,,,,,245.905,1,audio/Narrative8Situation2.wav,248.9202,,248.9203,259.0525,"[[999,7],[999,90],[999,166],[999,250],[999,340],[999,416],[999,507],[999,583],[999,666],[999,756],[999,833],[999,923],[999,1007],[999,1090],[999,1167],[999,1250],[999,1333],[999,1417],[999,1500],[999,1590],[999,1673],[999,1758],[999,1837],[999,1925],[999,2007],[999,2090],[999,2174],[999,2258],[51.1,2334],[50.9,2425],[50.9,2500],[50.9,2584],[50.9,2671],[50.9,2757],[50.8,2841],[50.6,2927],[50.5,3008],[50.4,3091],[50.3,3168],[50.1,3251],[50,3334],[50,3424],[49.8,3501],[49.7,3591],[49.7,3674],[49.7,3758],[49.7,3841],[38.8,3942],[34.4,4024],[34.1,4108],[34.1,4191],[34.1,4275],[34.1,4358],[33.9,4442],[33.6,4525],[33.6,4601],[33.6,4691],[33.5,4775],[33.5,4858],[31.9,4942],[31.4,5025],[31.4,5101],[31.9,5192],[32,5268],[31.9,5358],[31.9,5441],[31.9,5525],[31.9,5601],[31.6,5691],[31.5,5775],[31.4,5858],[30.5,5942],[28.1,6026],[25.6,6109],[24.9,6191],[24.9,6275],[25.8,6359],[27.9,6443],[28,6526],[48,6609],[76.4,6693],[77.1,6769],[77.1,6858],[77.1,6942],[77.1,7022],[77.7,7109],[79.6,7194],[84.2,7276],[86.4,7376],[84.4,7459],[45.9,7548],[43.5,7625],[32.7,7710],[23,7793],[22.9,7869],[20.2,7960],[14.6,8043],[13.3,8126],[10.9,8210],[9.4,8293],[7.4,8377],[5.9,8460],[4,8543],[3,8627],[3,8709],[3,8793],[3,8876],[3,8959],[3,9036],[3,9120],[2.9,9209],[2.7,9293],[2.7,9376],[2.7,9459],[2.7,9536],[2.7,9620],[2.7,9710],[2.7,9786],[2.7,9870],[2.7,9960],[2.7,10043],[2.7,10132]]",1,0,259.0526,263.6835,22.29166667,3.4679,"[{""rating"":22.291666666666664,""responseTime"":3.4679000000953693}]",space,4.1048,,263.6836,Half the time,50,263.6874,,,[],,0,2,2,2,1,audio/Narrative7Situation2.wav,audio/Narrative8Situation2.wav,audio/Narrative5Situation2.wav,audio/Narrative6Situation2.wav,3,3,3,3,,,,,,,,,,,,,,,,,,,,,,,,,,,,,,,,,,,,,,,
,,,,,,62dc761564191bc28a87e7c7,2024-02-08_09h50.45.621,group3.1-3.2-social-tom,2023.2.2,Win32,60.60606061,65c5074098b851296ff0b7ed,65c5144580ce2dd1a455146e,,,,,,,,,,,,,,,,,,,,,,,,,,,,,263.6878,1,audio/Narrative8Situation3.wav,267.7005,,267.7006,290.0858,"[[999,6],[999,76],[999,167],[999,243],[999,333],[999,413],[999,493],[999,583],[999,660],[999,750],[999,826],[999,910],[999,1000],[999,1076],[999,1160],[999,1250],[999,1334],[999,1410],[999,1500],[999,1584],[999,1667],[999,1750],[999,1827],[999,1910],[999,2000],[999,2081],[999,2160],[999,2244],[999,2327],[999,2417],[999,2494],[999,2577],[999,2667],[999,2744],[999,2827],[999,2918],[999,2994],[999,3077],[999,3161],[999,3251],[999,3327],[999,3417],[999,3494],[999,3577],[999,3661],[999,3751],[999,3834],[999,3918],[999,3994],[999,4084],[999,4168],[999,4244],[999,4328],[999,4418],[999,4495],[999,4584],[999,4668],[999,4751],[999,4828],[999,4911],[999,5001],[999,5078],[999,5162],[999,5245],[999,5328],[999,5411],[999,5495],[999,5578],[999,5661],[999,5745],[999,5828],[999,5912],[999,5995],[999,6085],[999,6168],[999,6245],[999,6335],[999,6412],[999,6495],[999,6579],[999,6662],[999,6745],[999,6829],[999,6912],[999,6995],[999,7085],[999,7169],[999,7246],[999,7336],[999,7420],[999,7512],[999,7602],[999,7683],[999,7766],[999,7846],[999,7929],[999,8019],[999,8102],[999,8186],[999,8263],[999,8353],[999,8436],[999,8519],[999,8603],[999,8686],[999,8769],[999,8846],[999,8930],[999,9020],[999,9103],[999,9186],[999,9269],[999,9347],[999,9430],[999,9530],[999,9613],[49.8,9697],[49.7,9780],[50.1,9863],[54.8,9954],[56.1,10037],[56.6,10120],[59,10204],[61.7,10287],[62.2,10370],[62.3,10447],[62.5,10530],[62.9,10620],[69.1,10704],[70.2,10788],[75.2,10871],[76.4,10953],[77,11037],[77.8,11121],[79,11204],[79.3,11284],[79.3,11364],[80.2,11454],[81.3,11538],[81.6,11620],[81.8,11704],[81.9,11781],[81.9,11864],[81.9,11947],[82,12031],[82,12120],[82,12198],[82,12287],[82,12371],[82,12447],[82,12531],[82,12621],[82.1,12697],[82.1,12788],[82.1,12871],[82.1,12954],[82.2,13038],[82.2,13121],[82.2,13198],[82.3,13288],[82.3,13371],[82.3,13454],[82.3,13531],[82.4,13614],[82.4,13698],[82.4,13788],[82.4,13871],[82.4,13955],[82.4,14031],[82.4,14115],[82.4,14198],[82.4,14282],[82.4,14365],[82.4,14455],[82.4,14531],[82.4,14618],[82.4,14705],[82.4,14782],[82.4,14871],[82.4,14948],[82.4,15032],[82.4,15121],[82.4,15205],[82.4,15282],[82.4,15372],[82.4,15448],[82.4,15532],[82.4,15622],[82.4,15699],[82.3,15789],[68.2,15873],[37.2,15956],[29.8,16040],[24.9,16123],[18.9,16206],[17.5,16289],[15.8,16373],[14.7,16456],[13.4,16539],[11.3,16623],[9.9,16706],[9.1,16790],[8.9,16872],[8.3,16957],[8.2,17039],[8,17123],[7.7,17215],[7.6,17283],[7.6,17366],[7.6,17449],[7.6,17538],[7.6,17616],[7.6,17699],[7.6,17783],[7.6,17873],[7.6,17949],[7.6,18039],[7.6,18116],[7.6,18200],[7.6,18284],[7.6,18371],[7.5,18450],[7.5,18533],[7.5,18623],[7.5,18700],[7.5,18783],[7.5,18873],[7.5,18950],[7.5,19033],[7.5,19117],[7.5,19200],[7.5,19283],[7.5,19373],[7.5,19450],[7.5,19540],[7.5,19640],[7.5,19717],[7.5,19800],[7.5,19883],[7.5,19967],[7.5,20050],[7.5,20134],[7.5,20217],[7.5,20300],[7.5,20384],[7.5,20467],[7.5,20550],[7.5,20634],[7.5,20717],[7.5,20800],[7.5,20884],[7.5,20967],[7.5,21051],[7.5,21134],[7.5,21218],[7.5,21301],[7.5,21384],[7.5,21467],[7.5,21551],[7.5,21634],[7.5,21717],[7.5,21801],[7.5,21884],[7.5,21968],[7.5,22051],[7.5,22135],[7.5,22226],[7.5,22301],[7.5,22384]]",1,0,290.0859,295.9713,24.375,3.7752,"[{""rating"":24.375000000000004,""responseTime"":3.7752000000476755}]",space,5.3566,,295.9713,Half the time,50,295.9738,,,[],,0,3,3,3,1,audio/Narrative7Situation3.wav,audio/Narrative8Situation3.wav,audio/Narrative5Situation3.wav,audio/Narrative6Situation3.wav,8,4,3,5,,,,,,,,,,,,,,,,,,,,,,,,,,,,,,,,,,,,,,,
,,,,,,62dc761564191bc28a87e7c7,2024-02-08_09h50.45.621,group3.1-3.2-social-tom,2023.2.2,Win32,60.60606061,65c5074098b851296ff0b7ed,65c5144580ce2dd1a455146e,,,,,,,,,,,,,,,,,,,,,,,,,,,,,295.974,1,audio/Narrative8Situation4.wav,298.9788,,298.9788,313.1675,"[[999,0],[999,76],[999,166],[999,243],[999,333],[999,416],[999,500],[999,577],[999,677],[999,760],[999,843],[999,927],[999,1010],[999,1093],[999,1177],[999,1260],[999,1343],[999,1427],[999,1510],[999,1593],[999,1677],[999,1760],[999,1844],[999,1927],[999,2010],[999,2094],[999,2177],[999,2261],[999,2344],[999,2427],[999,2511],[999,2594],[999,2677],[999,2761],[999,2844],[999,2927],[999,3011],[999,3094],[999,3177],[999,3261],[999,3344],[999,3427],[999,3511],[999,3594],[999,3678],[999,3761],[999,3844],[999,3928],[999,4011],[999,4095],[999,4178],[999,4261],[999,4345],[999,4428],[999,4511],[999,4611],[999,4678],[999,4768],[999,4851],[999,4932],[999,5018],[999,5102],[999,5182],[999,5268],[999,5345],[999,5435],[999,5518],[999,5595],[999,5679],[999,5768],[999,5849],[999,5928],[999,6012],[999,6095],[999,6178],[999,6262],[999,6345],[999,6435],[999,6512],[999,6596],[999,6679],[999,6762],[999,6852],[999,6929],[999,7016],[999,7096],[999,7179],[999,7262],[999,7346],[999,7429],[999,7513],[999,7596],[999,7679],[999,7762],[999,7846],[999,7936],[999,8013],[999,8096],[999,8186],[999,8270],[999,8353],[999,8437],[999,8513],[999,8603],[999,8680],[999,8763],[999,8853],[999,8930],[999,9013],[999,9103],[999,9180],[999,9263],[999,9346],[999,9430],[999,9520],[999,9603],[999,9687],[999,9770],[999,9846],[999,9937],[999,10014],[999,10097],[999,10193],[999,10270],[999,10347],[999,10430],[999,10514],[999,10603],[999,10680],[999,10764],[999,10847],[999,10937],[999,11014],[999,11104],[999,11187],[999,11264],[999,11347],[999,11430],[999,11520],[999,11597],[999,11681],[999,11764],[999,11847],[999,11937],[999,12021],[999,12098],[999,12181],[999,12271],[999,12348],[999,12435],[999,12514],[999,12605],[999,12681],[999,12764],[999,12848],[999,12931],[999,13021],[999,13101],[999,13188],[999,13272],[999,13348],[999,13438],[999,13522],[999,13605],[999,13681],[999,13765],[999,13855],[999,13942],[999,14021],[999,14098],[999,14188]]",1,0,313.1676,337.5942,1.354166667,23.9165,"[{""rating"":2.708333333333335,""responseTime"":23.76630000019071},{""rating"":1.3541666666666674,""responseTime"":23.916499999999985}]",space,23.893,,337.5943,All the time,100,337.5982,,,[],,0,4,4,4,1,audio/Narrative7Situation4.wav,audio/Narrative8Situation4.wav,audio/Narrative5Situation4.wav,audio/Narrative6Situation4.wav,3,3,1,2,,,,,,,,,,,,,,,,,,,,,,,,,,,,,,,,,,,,,,,
,,,,,,62dc761564191bc28a87e7c7,2024-02-08_09h50.45.621,group3.1-3.2-social-tom,2023.2.2,Win32,60.60606061,65c5074098b851296ff0b7ed,65c5144580ce2dd1a455146e,,,,,,,,,,,,,,,,,,,,,,,,,,,,,337.5985,1,audio/Narrative8Situation5.wav,339.6042,,339.6042,347.881,"[[999,0],[999,89],[999,172],[999,257],[999,340],[999,416],[999,499],[999,589],[999,666],[999,750],[999,833],[999,916],[999,1007],[999,1083],[999,1166],[999,1250],[999,1333],[999,1416],[999,1506],[999,1590],[999,1673],[999,1750],[999,1833],[999,1917],[999,2000],[999,2085],[999,2167],[999,2250],[999,2333],[999,2417],[999,2507],[999,2584],[999,2667],[999,2750],[999,2834],[999,2917],[999,3007],[999,3091],[999,3174],[999,3257],[999,3341],[999,3424],[999,3501],[999,3593],[999,3674],[999,3757],[999,3834],[999,3918],[999,4007],[999,4091],[999,4174],[999,4258],[999,4341],[999,4425],[999,4508],[999,4592],[999,4668],[999,4751],[999,4842],[999,4925],[999,5008],[999,5084],[999,5174],[999,5259],[999,5343],[999,5418],[999,5502],[999,5591],[999,5675],[999,5758],[999,5835],[999,5925],[999,6008],[999,6092],[999,6176],[999,6258],[999,6335],[999,6418],[999,6508],[999,6585],[999,6675],[999,6752],[999,6837],[999,6925],[999,7009],[999,7085],[999,7172],[999,7252],[999,7342],[999,7425],[999,7502],[999,7585],[999,7678],[999,7759],[35.7,7850],[11.6,8252]]",1,0,347.8811,352.9492,10,1.2023,"[{""rating"":9.999999999999998,""responseTime"":1.202299999952345}]",space,4.5188,,352.9494,Half the time,50,352.9525,,,[],,0,5,5,5,1,audio/Narrative7Situation5.wav,audio/Narrative8Situation5.wav,audio/Narrative5Situation5.wav,audio/Narrative6Situation5.wav,5,2,5,2,,,,,,,,,,,,,,,,,,,,,,,,,,,,,,,,,,,,,,,
,,,,,,62dc761564191bc28a87e7c7,2024-02-08_09h50.45.621,group3.1-3.2-social-tom,2023.2.2,Win32,60.60606061,65c5074098b851296ff0b7ed,65c5144580ce2dd1a455146e,,,,,,,,,,,,,,,,,,,,,,,,,,,,,352.953,1,audio/Narrative8Situation6.wav,354.9598,,354.9598,361.4291,"[[999,0],[999,83],[999,173],[999,250],[999,333],[999,423],[999,500],[999,583],[999,666],[999,750],[999,833],[999,916],[999,1007],[999,1083],[999,1174],[999,1254],[999,1340],[999,1417],[999,1500],[999,1583],[999,1667],[999,1750],[999,1837],[999,1917],[999,2007],[999,2090],[999,2167],[999,2257],[999,2334],[999,2424],[999,2500],[999,2584],[999,2667],[999,2757],[999,2834],[999,2917],[999,3007],[999,3084],[999,3167],[999,3251],[999,3334],[999,3424],[999,3501],[999,3584],[999,3674],[999,3751],[999,3841],[999,3924],[999,4001],[999,4084],[999,4168],[999,4251],[999,4334],[999,4425],[999,4501],[999,4591],[999,4668],[999,4751],[999,4841],[999,4918],[999,5008],[999,5085],[999,5168],[999,5258],[999,5342],[999,5425],[999,5509],[999,5588],[999,5675],[999,5752],[999,5835],[999,5925],[999,6002],[999,6103],[999,6186],[999,6269],[999,6352],[77.8,6435]]",1,0,361.4292,367.2048,78.95833333,1.2908,"[{""rating"":78.95833333333333,""responseTime"":1.2907999999522985}]",space,5.2346,,367.2049,All the time,100,367.2134,,,[],,0,6,6,6,1,audio/Narrative7Situation6.wav,audio/Narrative8Situation6.wav,audio/Narrative5Situation6.wav,audio/Narrative6Situation6.wav,3,2,3,2,,,,,,,,,,,,,,,,,,,,,,,,,,,,,,,,,,,,,,,
,,,,,,62dc761564191bc28a87e7c7,2024-02-08_09h50.45.621,group3.1-3.2-social-tom,2023.2.2,Win32,60.60606061,65c5074098b851296ff0b7ed,65c5144580ce2dd1a455146e,,,,,,,,,,,,,,,,,,,,,,,,,,,,,367.2136,1,audio/Narrative8Situation7.wav,370.2298,,370.2299,382.3201,"[[999,0],[999,75],[999,152],[999,242],[999,326],[999,402],[999,485],[999,569],[999,652],[999,735],[999,819],[999,918],[999,985],[999,1076],[999,1152],[999,1235],[999,1319],[999,1409],[999,1493],[999,1569],[999,1659],[999,1743],[999,1826],[999,1909],[999,1993],[999,2076],[999,2159],[999,2236],[999,2326],[999,2409],[999,2492],[999,2570],[999,2653],[999,2736],[999,2819],[999,2903],[999,2986],[999,3070],[999,3153],[999,3236],[999,3320],[999,3403],[999,3486],[999,3577],[999,3653],[999,3743],[999,3827],[999,3910],[999,3993],[999,4078],[999,4177],[52.4,4260],[52.4,4345],[52.4,4427],[52.5,4520],[52.5,4593],[52.5,4670],[52.5,4760],[52.5,4841],[52.5,4920],[52.5,5010],[52.5,5094],[52.8,5177],[52.9,5260],[52.9,5341],[52.9,5430],[53.4,5511],[53.6,5594],[53.4,5671],[36.1,5778],[17.2,5878],[6.5,5978],[5.4,6062],[5.4,6137],[5.4,6227],[5.4,6304],[5.4,6388],[5.4,6471],[5.4,6554],[7.3,6644],[7.6,6728],[7.6,6808],[7.7,6894],[7.9,6978],[7.9,7054],[8,7144],[8,7221],[8,7312],[8,7394],[8.2,7479],[8.4,7561],[8.4,7645],[8.4,7722],[8.9,7812],[9.4,7895],[9.9,7971],[9.9,8055],[9.9,8138],[9.9,8221],[9.9,8305],[9.9,8388],[9.9,8472],[9.9,8562],[9.9,8638],[10,8728],[10,8805],[10,8888],[10,8979],[10,9062],[10,9139],[10,9222],[10,9305],[10,9405],[10,9489],[10,9572],[10.3,9655],[12.9,9739],[13.5,9822],[13.5,9905],[13.5,9989],[13.5,10072],[13.5,10156],[13.5,10239],[13.5,10322],[13.5,10406],[13.5,10489],[13.5,10572],[13.5,10656],[13.5,10739],[13.5,10822],[13.5,10916],[13.8,10989],[13.8,11073],[13.8,11156],[13.8,11239],[13.8,11323],[13.8,11406],[13.8,11489],[13.8,11573],[13.8,11656]]",1,0,382.3202,391.8905,19.375,8.0147,"[{""rating"":19.374999999999996,""responseTime"":8.014700000047696}]",space,9.0302,,391.8906,Half the time,50,391.894,,,[],,0,7,7,7,1,audio/Narrative7Situation7.wav,audio/Narrative8Situation7.wav,audio/Narrative5Situation7.wav,audio/Narrative6Situation7.wav,5,3,4,5,,,,,,,,,,,,,,,,,,,,,,,,,,,,,,,,,,,,,,,
,,,,,,62dc761564191bc28a87e7c7,2024-02-08_09h50.45.621,group3.1-3.2-social-tom,2023.2.2,Win32,60.60606061,65c5074098b851296ff0b7ed,65c5144580ce2dd1a455146e,,,,,,,,,,,,,,,,,,,,,,,,,,,,,391.8943,1,audio/Narrative8Situation8.wav,394.908,,394.9081,407.7541,"[[999,0],[999,90],[999,173],[999,257],[999,333],[999,416],[999,504],[999,583],[999,666],[999,750],[999,833],[999,923],[999,1000],[999,1083],[999,1166],[999,1250],[999,1333],[999,1423],[999,1508],[999,1590],[999,1673],[999,1757],[999,1841],[999,1918],[999,2023],[999,2112],[999,2195],[999,2267],[999,2350],[999,2434],[999,2517],[999,2600],[999,2684],[999,2767],[999,2850],[999,2934],[999,3017],[999,3100],[999,3184],[999,3267],[999,3351],[999,3434],[999,3517],[999,3601],[999,3684],[999,3767],[999,3851],[999,3934],[999,4024],[999,4108],[999,4191],[999,4274],[999,4355],[999,4441],[999,4518],[999,4609],[999,4691],[999,4774],[999,4851],[999,4935],[999,5025],[999,5108],[999,5191],[999,5268],[999,5358],[999,5442],[999,5525],[999,5608],[999,5685],[999,5768],[999,5858],[999,5935],[999,6027],[999,6102],[27.8,6192],[27.3,6275],[26.7,6359],[26.6,6435],[26.6,6519],[26.5,6602],[26,6692],[25.5,6775],[25.1,6859],[24.9,6935],[24.5,7026],[24.3,7102],[24.1,7192],[24,7276],[23.9,7359],[23.8,7442],[23.6,7519],[23.5,7612],[23.4,7692],[23.3,7769],[23.2,7859],[23.1,7943],[23.1,8019],[23.1,8109],[23.1,8186],[23.1,8269],[52,8373],[97,8444],[100,8526],[100,8603],[99.2,8693],[89.5,8776],[88.6,8860],[88.3,8943],[88.3,9026],[88.3,9110],[89.7,9193],[96,9277],[96,9353],[96,9440],[96,9520],[95.5,9610],[95.3,9693],[95.2,9776],[95.2,9860],[95.2,9936],[95.2,10027],[95.2,10103],[95.2,10193],[95.5,10277],[100,10362],[100,10443],[100,10520],[100,10610],[100,10693],[100,10777],[99.2,10861],[96.1,10944],[95.2,11028],[93.6,11110],[93,11194],[92.8,11270],[92.4,11354],[91,11444],[90,11528],[88.6,11611],[87.6,11694],[87.1,11778],[86.7,11861],[86.3,11937],[85.9,12027],[85.6,12104],[85.4,12195],[85.3,12271],[85.2,12359],[85.1,12437],[84.9,12528],[84.7,12604],[84.5,12688],[80.9,12778]]",1,0,407.7544,411.6056,79.375,3.8498,"[{""rating"":79.375,""responseTime"":3.8498000001907258}]",space,1.5516,,411.6057,All the time,100,411.6084,,,[],,0,8,8,8,1,audio/Narrative7Situation8.wav,audio/Narrative8Situation8.wav,audio/Narrative5Situation8.wav,audio/Narrative6Situation8.wav,2,3,3,5,,,,,,,,,,,,,,,,,,,,,,,,,,,,,,,,,,,,,,,
,,,,,,62dc761564191bc28a87e7c7,2024-02-08_09h50.45.621,group3.1-3.2-social-tom,2023.2.2,Win32,60.60606061,65c5074098b851296ff0b7ed,65c5144580ce2dd1a455146e,,,,,,,,,,,,,,,,,,,,,,,,,,,,,411.6089,1,audio/Narrative8Situation9.wav,414.6154,,414.6155,425.9363,"[[65,3765],[48.2,3858],[42.2,3941],[28.5,4026],[14.4,4109],[12.3,4191],[10.4,4284],[10.4,4368],[10.2,4459],[9.3,4541],[9.3,4624],[9.2,4701],[9.2,4784],[9.2,4875],[9.2,4958],[9.2,5038],[9.2,5118],[9.2,5201],[9.2,5285],[9.2,5368],[9.2,5451],[9.2,5541],[9.2,5618],[9.2,5708],[9.2,5792],[9.2,5868],[9.2,5958],[9.2,6035],[9.2,6125],[9.2,6208],[9.2,6285],[9.2,6385],[9.2,6469],[9.2,6552],[9.2,6635],[9.2,6719],[9.2,6802],[9.2,6885],[9.2,6969],[9.2,7052],[9.2,7135],[9.2,7219],[9.2,7302],[9.2,7385],[9.2,7469],[9.2,7552],[9.2,7635],[9.2,7719],[9.2,7802],[9.2,7886],[9.2,7969],[9.2,8052],[9.2,8136],[9.2,8219],[9.2,8302],[9.2,8386],[9.2,8469],[9.2,8552],[9.2,8636],[9.2,8719],[9.2,8803],[9.2,8886],[9.2,8969],[9.2,9053],[9.2,9136],[9.2,9219],[9.2,9303],[9.2,9386],[9.2,9470],[9.2,9564],[9.2,9636],[9.2,9720],[9.2,9803],[9.2,9886],[9.2,9970],[9.2,10053],[9.2,10136],[9.2,10220],[9.2,10303],[9.2,10387],[9.2,10470],[9.2,10553],[9.2,10637],[9.2,10720],[9.2,10803],[9.2,10887],[9.2,10970],[9.2,11053],[9.2,11137],[9.2,11220],[9.2,11304]]",1,0,425.9364,436.0473,35.72916667,7.9758,"[{""rating"":35.729166666666664,""responseTime"":7.975800000190702}]",space,9.5562,,436.0473,Not at all,0,436.0502,,,[],,0,9,9,9,1,audio/Narrative7Situation9.wav,audio/Narrative8Situation9.wav,audio/Narrative5Situation9.wav,audio/Narrative6Situation9.wav,2,3,3,4,,,,,,,,,,,,,,,,,,,,,,,,,,,,,,,,,,,,,,,
,,,,,,62dc761564191bc28a87e7c7,2024-02-08_09h50.45.621,group3.1-3.2-social-tom,2023.2.2,Win32,60.60606061,65c5074098b851296ff0b7ed,65c5144580ce2dd1a455146e,,,,,,,,,,,,,,,,,,,,,,,,,,,,,436.0504,1,audio/Narrative7Situation1.wav,438.0576,,438.0577,493.962,"[[999,0],[999,83],[999,166],[999,249],[999,333],[999,416],[999,506],[999,583],[999,666],[999,750],[999,838],[999,916],[999,1000],[999,1089],[999,1166],[999,1250],[999,1333],[999,1420],[999,1500],[999,1590],[999,1667],[999,1753],[999,1840],[999,1917],[999,2006],[999,2090],[999,2167],[999,2250],[999,2333],[999,2417],[999,2507],[999,2584],[999,2674],[999,2750],[999,2834],[999,2917],[999,3000],[999,3090],[999,3167],[999,3250],[999,3334],[999,3417],[999,3501],[999,3584],[999,3667],[999,3751],[999,3834],[999,3917],[999,4001],[999,4084],[999,4174],[999,4275],[999,4358],[999,4441],[999,4525],[34.2,4609],[32.2,4691],[30.6,4775],[30.6,4851],[30.6,4934],[33.9,5026],[50.3,5108],[62.5,5191],[66.5,5275],[78.8,5358],[83.4,5441],[83.4,5518],[83.4,5608],[83.4,5685],[83.9,5775],[84.1,5858],[84.1,5942],[84.1,6025],[84.1,6108],[84.1,6189],[84.1,6268],[84.1,6358],[84.1,6452],[84.1,6535],[84.1,6618],[84.1,6702],[84.1,6785],[84.1,6869],[84.1,6952],[84.1,7035],[84.1,7119],[84,7202],[84,7285],[83.5,7369],[83.5,7452],[83.4,7535],[83.4,7627],[83.4,7702],[83.4,7785],[83.4,7869],[83.4,7952],[83.4,8036],[83.4,8119],[83.4,8202],[83.4,8286],[83.4,8369],[83.4,8452],[83.4,8536],[83.4,8619],[83.4,8703],[83.4,8786],[83.4,8869],[83.4,8953],[83.4,9036],[83.4,9119],[83.4,9203],[83.3,9286],[83.3,9369],[83.3,9453],[83.3,9536],[83.3,9620],[83.3,9703],[83.3,9786],[83.3,9870],[83.3,9953],[83.3,10037],[83.3,10120],[83.3,10203],[83.3,10286],[83.3,10377],[83.3,10460],[83.3,10540],[83.3,10627],[83.3,10710],[83.3,10793],[83.3,10870],[83.2,10960],[83.2,11037],[83.2,11120],[83.2,11207],[83.2,11287],[83.2,11377],[83.2,11454],[83.2,11543],[83.2,11627],[83.2,11710],[83.2,11794],[83.2,11871],[83.2,11960],[83.2,12044],[83.2,12120],[83.2,12210],[83.2,12294],[83.2,12377],[83.2,12460],[83.2,12537],[83.2,12621],[83.2,12711],[83.2,12787],[83.2,12877],[83.2,12954],[83.2,13041],[83.2,13127],[83.2,13204],[83.2,13288],[83.2,13371],[83.2,13461],[83.2,13538],[83.2,13621],[83.2,13704],[83.2,13794],[83.2,13879],[83.2,13954],[83.2,14045],[83.2,14121],[83.2,14204],[83.2,14295],[83.2,14378],[83.2,14461],[83.2,14538],[83.2,14621],[83.2,14711],[83.2,14795],[83.2,14872],[83.2,14955],[83.2,15042],[83.2,15122],[83.2,15205],[83.2,15295],[83.2,15372],[83.2,15455],[83.2,15538],[83.2,15622],[83.2,15705],[83.2,15795],[83.2,15879],[83.2,15955],[83.2,16038],[83.2,16129],[83.2,16205],[83.2,16288],[83.2,16384],[83.2,16455],[83.2,16539],[83.2,16626],[83.2,16705],[83.2,16789],[83.2,16872],[83.2,16962],[83.2,17039],[83.2,17129],[83.2,17206],[83.2,17296],[83.2,17379],[83.2,17463],[83.2,17546],[83.2,17629],[83.2,17706],[83.2,17789],[83.2,17879],[83.2,17963],[83.2,18043],[83.2,18123],[83.2,18213],[83.2,18297],[83.2,18379],[83.2,18456],[83.2,18546],[83.2,18627],[83.2,18706],[83.2,18790],[83.2,18873],[83.2,18956],[83.2,19046],[83.2,19123],[83.2,19206],[83.2,19296],[83.2,19373],[83.2,19456],[83.2,19546],[83.2,19623],[83.2,19706],[83.2,19790],[83.2,19873],[83.2,19956],[83.2,20040],[83.2,20123],[83.2,20214],[83.2,20290],[83.2,20374],[83.2,20457],[83.2,20540],[83.2,20630],[83.2,20707],[83.2,20797],[83.2,20874],[83.2,20961],[83.2,21047],[83.2,21124],[83.2,21214],[83.2,21290],[83.2,21374],[83.2,21464],[83.2,21540],[83.2,21627],[83.2,21714],[83.2,21791],[82.7,21881],[80.3,21957],[78.4,22048],[75.5,22131],[75.5,22207],[75.8,22291],[77.5,22381],[78.9,22465],[80,22541],[81,22632],[81.9,22715],[83.1,22798],[83.4,22874],[83.4,22958],[83.9,23064],[83.9,23141],[83.9,23225],[83.9,23314],[83.5,23399],[83.5,23481],[83.5,23565],[83.5,23648],[83.5,23725],[83.5,23815],[83.5,23898],[83.5,23975],[83.5,24058],[83.5,24141],[83.5,24232],[83.5,24315],[83.5,24392],[83.5,24475],[83.5,24559],[83.5,24642],[83.5,24732],[83.5,24815],[83.5,24898],[83.5,24975],[83.5,25065],[83.5,25142],[83.5,25232],[83.5,25315],[83.5,25392],[83.5,25475],[83.5,25566],[83.5,25642],[83.5,25732],[83.5,25809],[83.5,25892],[83.5,25976],[83.5,26059],[83.5,26149],[83.5,26232],[83.5,26313],[83.5,26393],[83.5,26482],[83.5,26566],[83.5,26649],[83.5,26726],[83.5,26816],[83.5,26893],[83.5,26976],[83.5,27059],[83.5,27149],[83.5,27243],[83.5,27310],[83.5,27393],[83.5,27481],[83.5,27559],[83.5,27643],[83.5,27733],[83.5,27810],[83.5,27893],[83.5,27983],[83.5,28066],[83.5,28143],[83.5,28233],[83.5,28310],[83.5,28400],[83.5,28477],[83.5,28566],[83.5,28643],[83.5,28733],[83.5,28816],[83.5,28900],[83.5,28977],[83.5,29067],[83.5,29150],[83.5,29233],[83.5,29317],[83.5,29401],[83.5,29484],[83.5,29567],[83.5,29650],[83.5,29734],[83.5,29810],[83.5,29894],[83.5,29977],[83.5,30060],[83.5,30151],[83.5,30227],[83.5,30311],[83.5,30398],[83.5,30484],[83.5,30561],[83.5,30644],[83.5,30734],[83.5,30811],[83.5,30894],[83.5,30978],[83.5,31061],[83.5,31151],[83.5,31231],[83.5,31311],[83.5,31401],[83.5,31478],[83.5,31569],[83.5,31644],[83.5,31728],[83.5,31811],[83.5,31894],[83.5,31978],[83.5,32061],[83.5,32144],[83.5,32228],[83.5,32311],[83.5,32394],[83.5,32485],[83.5,32561],[83.5,32645],[83.5,32735],[83.5,32818],[83.5,32903],[83.5,32978],[83.5,33062],[83.5,33151],[83.5,33228],[83.5,33318],[83.5,33399],[83.5,33479],[83.5,33562],[83.5,33645],[83.5,33729],[83.5,33812],[83.5,33899],[83.5,33979],[83.5,34062],[83.5,34146],[83.5,34235],[83.5,34319],[83.5,34402],[83.5,34479],[83.5,34562],[83.5,34645],[83.5,34736],[83.5,34812],[83.5,34899],[83.5,34979],[83.5,35062],[83.5,35153],[83.5,35229],[83.5,35319],[83.5,35396],[83.5,35486],[83.5,35569],[83.5,35652],[83.5,35736],[83.5,35819],[83.5,35896],[83.5,35979],[83.5,36063],[83.5,36146],[83.5,36230],[83.5,36313],[83.5,36396],[83.5,36479],[83.5,36569],[83.5,36646],[83.5,36730],[83.5,36820],[83.5,36896],[83.5,36986],[83.5,37063],[83.5,37146],[83.5,37230],[83.5,37313],[83.5,37396],[83.5,37486],[83.5,37563],[83.5,37653],[83.5,37730],[83.5,37813],[83.5,37897],[83.5,37987],[83.5,38070],[83.5,38147],[83.5,38230],[83.5,38320],[83.5,38404],[83.5,38480],[83.5,38570],[83.5,38647],[83.5,38730],[83.5,38820],[83.5,38904],[83.5,38987],[83.5,39071],[83.5,39147],[83.5,39237],[83.5,39314],[83.5,39404],[83.5,39487],[83.5,39564],[83.5,39647],[83.5,39737],[83.5,39821],[83.5,39898],[83.5,39987],[83.5,40064],[83.5,40148],[83.5,40231],[83.5,40314],[83.5,40398],[83.5,40489],[83.5,40564],[83.5,40655],[83.5,40731],[83.5,40814],[83.5,40898],[83.5,40988],[83.5,41071],[83.5,41148],[83.5,41231],[83.5,41315],[83.5,41398],[83.5,41488],[83.5,41565],[83.5,41648],[83.5,41738],[83.5,41815],[83.5,41898],[83.5,41981],[83.5,42065],[83.5,42148],[83.5,42232],[83.5,42315],[83.5,42398],[83.5,42482],[83.5,42565],[83.5,42657],[83.5,42732],[83.5,42815],[83.5,42904],[83.5,42982],[83.5,43065],[83.5,43149],[83.5,43239],[83.5,43319],[83.5,43399],[83.5,43489],[83.5,43565],[83.5,43649],[83.5,43732],[83.5,43823],[83.5,43906],[83.5,43989],[83.5,44072],[83.5,44156],[83.5,44239],[83.5,44316],[83.5,44406],[83.5,44490],[83.5,44572],[83.5,44649],[83.5,44739],[83.5,44823],[83.5,44906],[83.5,44989],[83.5,45070],[83.5,45149],[83.5,45233],[83.5,45323],[83.5,45406],[83.5,45489],[83.5,45573],[83.5,45649],[83.5,45740],[83.5,45816],[83.5,45906],[83.5,45983],[83.5,46073],[83.5,46150],[83.5,46240],[83.5,46317],[83.5,46407],[83.5,46490],[83.5,46573],[83.5,46657],[83.5,46734],[83.5,46823],[83.5,46900],[83.5,46983],[83.5,47073],[83.5,47157],[83.5,47234],[83.5,47317],[83.5,47400],[83.5,47490],[83.5,47573],[83.5,47650],[83.5,47740],[83.5,47817],[83.5,47908],[83.5,47984],[83.5,48067],[83.5,48150],[83.5,48234],[83.5,48317],[83.5,48401],[83.5,48484],[83.5,48567],[83.5,48651],[83.5,48734],[83.5,48818],[83.5,48901],[83.5,48984],[83.5,49068],[83.5,49151],[83.5,49234],[83.5,49318],[83.5,49401],[83.5,49485],[83.5,49568],[83.5,49651],[83.5,49734],[83.5,49818],[83.5,49901],[83.5,49985],[83.5,50068],[83.5,50151],[83.5,50235],[83.5,50318],[83.5,50401],[83.5,50485],[83.5,50568],[83.5,50651],[83.5,50735],[83.5,50818],[83.5,50901],[83.5,50985],[83.5,51068],[83.5,51152],[83.5,51235],[83.5,51318],[83.5,51402],[83.5,51485],[83.5,51568],[83.5,51652],[83.5,51735],[83.5,51818],[83.5,51902],[83.5,51985],[83.5,52069],[83.5,52152],[83.5,52235],[83.5,52319],[83.5,52402],[83.5,52485],[83.5,52569],[83.5,52652],[83.5,52736],[83.5,52819],[83.5,52902],[83.5,52986],[83.5,53069],[83.5,53152],[83.5,53236],[83.5,53319],[83.5,53403],[83.5,53486],[83.5,53569],[83.5,53653],[83.5,53736],[83.5,53819],[83.5,53903],[83.5,53986],[83.5,54069],[83.5,54153],[83.5,54236],[83.5,54320],[83.5,54403],[83.5,54486],[83.5,54570],[83.5,54653],[83.5,54736],[83.5,54820],[83.5,54903],[83.5,54988],[83.5,55070],[83.5,55153],[83.5,55236],[83.5,55320],[83.5,55403],[83.5,55487],[83.5,55570],[83.5,55654],[83.5,55737],[83.5,55820],[83.5,55904]]",1,0,493.9622,499.9372,74.375,3.993,"[{""rating"":74.375,""responseTime"":3.993000000000052}]",space,5.4516,,499.9373,Not at all,0,499.9387,,,[],,0,10,10,10,1,audio/Narrative8Situation1.wav,audio/Narrative7Situation1.wav,audio/Narrative6Situation1.wav,audio/Narrative5Situation1.wav,5,2,2,5,,,,,,,,,,,,,,,,,,,,,,,,,,,,,,,,,,,,,,,
,,,,,,62dc761564191bc28a87e7c7,2024-02-08_09h50.45.621,group3.1-3.2-social-tom,2023.2.2,Win32,60.60606061,65c5074098b851296ff0b7ed,65c5144580ce2dd1a455146e,,,,,,,,,,,,,,,,,,,,,,,,,,,,,499.939,1,audio/Narrative7Situation2.wav,502.956,,502.9561,510.4418,"[[999,8],[999,82],[999,182],[999,265],[999,349],[999,432],[999,509],[999,592],[999,682],[999,759],[999,849],[999,933],[999,1016],[999,1099],[999,1182],[999,1259],[999,1349],[999,1432],[999,1515],[999,1592],[999,1676],[999,1759],[999,1849],[999,1926],[999,2016],[999,2093],[999,2176],[999,2259],[999,2346],[999,2426],[999,2509],[999,2599],[999,2676],[999,2766],[999,2850],[999,2926],[999,3016],[999,3100],[999,3183],[999,3266],[999,3350],[25.4,3434],[19.6,3517],[16.9,3600],[16.8,3677],[16.8,3760],[16.6,3850],[16.4,3932],[15.6,4017],[15.6,4093],[15.6,4177],[15.6,4260],[15.6,4354],[15.6,4434],[15.6,4510],[15.6,4593],[15.6,4677],[15.6,4767],[15.6,4850],[15.6,4934],[15.6,5010],[15.6,5100],[15.7,5181],[16,5267],[17.1,5351],[17.5,5434],[20,5517],[30.9,5618],[44.1,5701],[45.2,5784],[46.7,5868],[52.8,5951],[61.8,6034],[69.8,6118],[75.7,6201],[77.6,6285],[78.8,6368],[80.5,6451],[82.4,6534],[84.2,6619],[84.5,6695],[85.6,6785],[85.6,6861],[87.1,6951],[87.5,7028],[87.6,7111],[87.6,7201],[87.6,7285],[87.6,7361],[87.7,7451]]",1,0,510.4419,512.8186,49.6875,1.5547,"[{""rating"":49.6875,""responseTime"":1.55470000004766}]",space,1.8189,,512.8186,Not at all,0,512.8201,,,[],,0,11,11,11,1,audio/Narrative8Situation2.wav,audio/Narrative7Situation2.wav,audio/Narrative6Situation2.wav,audio/Narrative5Situation2.wav,3,3,3,3,,,,,,,,,,,,,,,,,,,,,,,,,,,,,,,,,,,,,,,
,,,,,,62dc761564191bc28a87e7c7,2024-02-08_09h50.45.621,group3.1-3.2-social-tom,2023.2.2,Win32,60.60606061,65c5074098b851296ff0b7ed,65c5144580ce2dd1a455146e,,,,,,,,,,,,,,,,,,,,,,,,,,,,,512.8203,1,audio/Narrative7Situation3.wav,520.8216,,520.8216,530.0752,"[[999,8],[999,83],[999,166],[999,250],[999,333],[999,416],[999,500],[999,583],[999,666],[999,750],[999,833],[999,917],[999,1002],[999,1083],[999,1167],[999,1250],[999,1333],[999,1417],[999,1500],[999,1584],[999,1667],[999,1750],[999,1833],[999,1917],[999,2000],[999,2084],[999,2167],[999,2250],[999,2334],[999,2417],[999,2500],[999,2584],[999,2667],[999,2751],[999,2834],[999,2917],[999,3001],[999,3084],[999,3167],[999,3251],[999,3334],[999,3417],[999,3501],[999,3584],[999,3668],[999,3751],[999,3834],[999,3918],[999,4001],[999,4084],[999,4168],[999,4251],[999,4335],[999,4418],[999,4501],[999,4585],[999,4668],[999,4751],[999,4835],[999,4918],[999,5001],[999,5085],[999,5168],[999,5251],[999,5335],[999,5418],[999,5502],[999,5585],[999,5668],[999,5752],[999,5835],[999,5918],[999,6002],[999,6085],[999,6169],[999,6252],[999,6335],[999,6419],[999,6502],[999,6585],[999,6669],[999,6752],[999,6836],[999,6919],[999,7002],[999,7085],[999,7169],[999,7252],[999,7336],[999,7419],[999,7503],[999,7586],[999,7669],[999,7753],[999,7836],[999,7919],[999,8002],[999,8086],[999,8169],[999,8253],[999,8336],[999,8419],[999,8503],[999,8586],[999,8669],[999,8753],[999,8841],[999,8919],[999,9003],[999,9086],[999,9170],[999,9253]]",1,0,530.0754,534.6603,0,3.9157,"[{""rating"":7.083333333333336,""responseTime"":3.6110999999045816},{""rating"":0,""responseTime"":3.9156999998092488}]",space,4.0404,,534.6604,Half the time,50,534.6636,,,[],,0,12,12,12,1,audio/Narrative8Situation3.wav,audio/Narrative7Situation3.wav,audio/Narrative6Situation3.wav,audio/Narrative5Situation3.wav,4,8,5,3,,,,,,,,,,,,,,,,,,,,,,,,,,,,,,,,,,,,,,,
,,,,,,62dc761564191bc28a87e7c7,2024-02-08_09h50.45.621,group3.1-3.2-social-tom,2023.2.2,Win32,60.60606061,65c5074098b851296ff0b7ed,65c5144580ce2dd1a455146e,,,,,,,,,,,,,,,,,,,,,,,,,,,,,534.6639,1,audio/Narrative7Situation4.wav,537.6781,,537.6781,549.4067,"[[999,0],[999,83],[999,166],[999,249],[999,333],[999,416],[999,499],[999,583],[999,666],[999,750],[999,833],[999,916],[999,1000],[999,1083],[999,1167],[999,1250],[999,1333],[999,1416],[999,1500],[999,1583],[999,1667],[999,1750],[999,1833],[999,1917],[999,2000],[999,2083],[999,2167],[999,2250],[999,2334],[999,2417],[47.4,2507],[45.6,2591],[44,2674],[39.8,2757],[25.4,2842],[18.9,2918],[10.2,3368],[11,3457],[13.3,3541],[13.4,3617],[13.4,3701],[13.4,3784],[13,3874],[12.4,3958],[12,4038],[12,4124],[12,4201],[12,4291],[12,4367],[12.3,4458],[12.8,4541],[13.4,4624],[13.6,4701],[13.6,4784],[13.6,4875],[13.8,4951],[13.8,5034],[13.8,5125],[13.8,5201],[13.8,5291],[13.8,5375],[13.8,5451],[13.8,5535],[13.8,5618],[13.8,5701],[13.8,5791],[13.8,5868],[13.8,5958],[13.8,6041],[13.8,6126],[13.8,6208],[13.8,6285],[13.8,6368],[13.8,6453],[13.8,6542],[13.8,6618],[13.8,6709],[13.8,6785],[13.8,6875],[13.8,6959],[13.8,7042],[13.8,7118],[13.8,7209],[13.8,7285],[13.8,7376],[13.8,7452],[13.8,7552],[13.8,7635],[13.8,7719],[13.9,7802],[14.2,7885],[14.7,7969],[15.3,8053],[18.2,8136],[24.7,8219],[28.1,8303],[31.7,8386],[37.2,8469],[42.8,8553],[55.6,8636],[57.3,8719],[60,8803],[74.1,8887],[96.1,9303],[96.1,9393],[96.3,9476],[96.5,9560],[97.2,9643],[97.7,9727],[97.7,9808],[97.7,9886],[97.7,9970],[97.8,10053],[97.9,10136],[97.9,10226],[97.9,10303],[97.9,10393],[97.9,10477],[97.9,10560],[97.9,10643],[97.9,10720],[97.9,10810],[97.9,10893],[97.9,10970],[97.9,11060],[97.9,11137],[97.9,11220],[97.9,11310],[97.9,11387],[97.9,11470],[97.9,11560],[96.8,11644],[91.6,11728]]",1,0,549.4067,552.2167,49.89583333,1.5673,"[{""rating"":49.895833333333336,""responseTime"":1.5672999999522972}]",space,2.2667,,552.2168,All the time,100,552.219,,,[],,0,13,13,13,1,audio/Narrative8Situation4.wav,audio/Narrative7Situation4.wav,audio/Narrative6Situation4.wav,audio/Narrative5Situation4.wav,3,3,2,1,,,,,,,,,,,,,,,,,,,,,,,,,,,,,,,,,,,,,,,
,,,,,,62dc761564191bc28a87e7c7,2024-02-08_09h50.45.621,group3.1-3.2-social-tom,2023.2.2,Win32,60.60606061,65c5074098b851296ff0b7ed,65c5144580ce2dd1a455146e,,,,,,,,,,,,,,,,,,,,,,,,,,,,,552.2193,1,audio/Narrative7Situation5.wav,557.2353,,557.2353,565.7053,"[[47.4,333],[47.4,416],[47.4,500],[47.3,583],[47.3,666],[47.2,750],[47.2,833],[47.2,919],[47.2,1000],[47.1,1083],[47.1,1166],[47.1,1250],[47,1333],[47,1417],[46.8,1500],[49.8,2084],[49.7,2167],[50.2,2257],[50.2,2340],[50.2,2423],[50.3,2507],[50.4,2584],[50.4,2674],[50.4,2758],[49.6,2842],[49.3,2924],[36.9,3025],[24.2,3108],[16.7,3191],[13.1,3274],[11.8,3358],[10.5,3441],[9.7,3518],[9.7,3601],[9.7,3684],[9.7,3774],[9.7,3857],[9.7,3934],[9.7,4018],[9.7,4107],[9.7,4185],[9.7,4274],[9.7,4351],[9.7,4434],[9.7,4524],[9.7,4608],[9.7,4685],[9.7,4775],[14.1,4859],[56,4942],[78.5,5042],[85.1,5141],[88.1,5226],[90.1,5308],[90.9,5392],[92.3,5476],[92.8,5558],[93,5642],[93.3,5731],[94.9,5809],[96.7,5893],[97.5,5976],[98.6,6059],[99.2,6142],[99.6,6225],[99.9,6302],[100,6392],[100,6468],[100,6559],[100,6643],[100,6725],[100,6809],[100,6892],[100,6975],[100,7059],[100,7135],[100,7219],[100,7302],[100,7385],[100,7472],[100,7556],[100,7642],[100,7719],[100,7802],[100,7892],[100,7969],[100,8052],[100,8143],[100,8219],[100,8309],[100,8386],[100,8469]]",1,0,565.7055,569.023,98.33333333,2.4792,"[{""rating"":98.33333333333334,""responseTime"":2.4792000000476264}]",space,2.7691,,569.0232,Half the time,50,569.0266,,,[],,0,14,14,14,1,audio/Narrative8Situation5.wav,audio/Narrative7Situation5.wav,audio/Narrative6Situation5.wav,audio/Narrative5Situation5.wav,2,5,2,5,,,,,,,,,,,,,,,,,,,,,,,,,,,,,,,,,,,,,,,
,,,,,,62dc761564191bc28a87e7c7,2024-02-08_09h50.45.621,group3.1-3.2-social-tom,2023.2.2,Win32,60.60606061,65c5074098b851296ff0b7ed,65c5144580ce2dd1a455146e,,,,,,,,,,,,,,,,,,,,,,,,,,,,,569.0269,1,audio/Narrative7Situation6.wav,572.0407,,572.0407,582.0278,"[[100,2084],[100,2167],[100,2250],[100,2334],[100,2417],[100,2501],[100,2584],[100,2667],[97.2,2751],[63.4,3251],[59.6,3334],[59.1,3418],[57.2,3501],[52.6,3585],[47.3,3668],[45.8,3751],[45.2,3834],[26.3,3918],[10.9,4001],[10.9,4084],[10.9,4168],[11.9,4251],[12.9,4334],[12.9,4418],[13.8,4501],[13.9,4585],[13.9,4668],[13.9,4751],[13.9,4835],[13.9,4918],[14,5002],[14.9,5085],[15.4,5168],[15.5,5252],[16,5335],[16.5,5418],[16.5,5501],[16.8,5585],[16.9,5668],[17.2,5752],[17.4,5835],[17.4,5919],[17.7,6002],[17.8,6085],[17.9,6168],[17.9,6252],[17.9,6335],[17.9,6418],[17.9,6502],[17.9,6585],[18.2,6669],[18.5,6752],[18.5,6835],[18.5,6919],[18.5,7002],[18.9,7086],[18.9,7169],[18.9,7252],[18.9,7335],[18.9,7419],[18.9,7502],[18.9,7586],[18.9,7669],[18.9,7752],[18.9,7836],[18.9,7919],[18.9,8002],[18.6,8086],[18.4,8170],[18.3,8252],[18.1,8336],[18.1,8419],[17.9,8502],[17.8,8586],[17.7,8669],[17.7,8753],[17.7,8836],[17.7,8919],[17.7,9003],[17.7,9086],[17.7,9169],[17.7,9253],[17.7,9336],[17.7,9420],[17.7,9503],[17.7,9586],[17.7,9670],[17.7,9753],[17.7,9836],[17.7,9920]]",1,0,582.028,722.5048,31.66666667,4.9418,"[{""rating"":31.666666666666664,""responseTime"":4.941799999952309}]",space,139.9509,,722.5049,Not at all,0,722.5286,,,[],,0,15,15,15,1,audio/Narrative8Situation6.wav,audio/Narrative7Situation6.wav,audio/Narrative6Situation6.wav,audio/Narrative5Situation6.wav,2,3,2,3,,,,,,,,,,,,,,,,,,,,,,,,,,,,,,,,,,,,,,,
,,,,,,62dc761564191bc28a87e7c7,2024-02-08_09h50.45.621,group3.1-3.2-social-tom,2023.2.2,Win32,60.60606061,65c5074098b851296ff0b7ed,65c5144580ce2dd1a455146e,,,,,,,,,,,,,,,,,,,,,,,,,,,,,722.529,1,audio/Narrative7Situation7.wav,727.5321,,727.5321,744.7053,"[[999,6],[999,83],[999,166],[999,249],[999,333],[999,416],[999,500],[999,583],[999,666],[999,750],[999,833],[999,917],[999,1000],[999,1083],[999,1167],[999,1250],[999,1333],[999,1417],[999,1500],[999,1583],[999,1667],[999,1750],[999,1834],[999,1917],[999,2000],[999,2084],[50.8,2167],[48.4,2251],[27.7,2674],[27.9,2764],[19.3,2841],[18,2924],[17.3,3007],[14.3,3092],[12.9,3167],[12.6,3258],[10.6,3341],[6.5,3424],[4.5,3508],[4.2,3584],[4.2,3667],[4.2,3751],[4.2,3841],[4.2,3918],[4.2,4004],[4.2,4091],[4.2,4168],[4.2,4251],[4.2,4334],[4.2,4424],[4.2,4508],[4.2,4584],[4.2,4674],[4.2,4751],[4.2,4834],[4.2,4924],[4.2,5008],[4.2,5085],[4.2,5174],[4.2,5251],[4.2,5340],[4.2,5424],[4.2,5502],[4.2,5591],[4.2,5675],[4.2,5752],[4.2,5838],[4.2,5925],[4.2,6008],[4.2,6085],[4.2,6175],[4.2,6252],[4.2,6335],[4.2,6426],[4.2,6502],[4.2,6592],[4.3,6676],[4.4,6752],[4.5,6835],[4.7,6926],[4.8,7021],[4.8,7092],[4.9,7192],[5.2,7276],[5.3,7356],[5.3,7443],[5.3,7519],[5.4,7609],[5.6,7686],[5.8,7775],[6.1,7859],[6.5,7944],[6.6,8019],[6.7,8103],[6.8,8186],[7.1,8269],[7.1,8353],[7.1,8436],[7.1,8519],[7.1,8603],[7.1,8686],[7.1,8769],[7.1,8853],[7.1,8936],[7.1,9019],[7.1,9103],[7.1,9186],[7.1,9270],[7.1,9353],[7.1,9436],[7.1,9519],[7.1,9603],[7.1,9686],[7.1,9770],[7.1,9853],[7.1,9937],[7.1,10020],[7.1,10103],[7.1,10187],[7.1,10270],[7.1,10353],[7.1,10437],[7.1,10520],[7.1,10603],[7.1,10687],[7.1,10770],[7.1,10853],[7.1,10937],[7.1,11020],[6.6,11104],[6.1,11187],[6.1,11270],[6.1,11354],[6.1,11437],[6.1,11520],[6.1,11604],[6.1,11687],[6.1,11770],[6.1,11854],[6.1,11937],[6.1,12021],[6.1,12104],[6.1,12187],[6.1,12271],[6.1,12354],[6.1,12437],[6.1,12521],[6.1,12604],[6.1,12687],[6.1,12771],[6.1,12854],[6.1,12937],[6.1,13021],[6.1,13104],[6.1,13188],[6.1,13271],[6.1,13355],[6.1,13438],[6.1,13521],[6.1,13605],[6.1,13688],[6.1,13771],[6.1,13855],[6.1,13938],[6.1,14021],[6.1,14105],[6.1,14188],[6.1,14271],[6.1,14355],[6.1,14438],[6.1,14522],[6.1,14605],[6.1,14688],[6.1,14772],[6.1,14855],[6.1,14938],[6.1,15022],[6.1,15105],[6.1,15188],[6.1,15272],[6.1,15355],[6.1,15439],[6.1,15522],[6.1,15605],[6.1,15689],[6.1,15772],[6.1,15855],[6.1,15939],[6.1,16022],[6.1,16105],[6.1,16189],[6.1,16272],[6.1,16355],[6.1,16439],[6.1,16522],[6.1,16606],[6.1,16689],[6.1,16772],[6.1,16856],[6.1,16940],[6.1,17022],[6.1,17106]]",1,0,744.7055,756.6165,22.1875,10.7868,"[{""rating"":0,""responseTime"":7.6490999999045926},{""rating"":51.66666666666667,""responseTime"":9.485000000000014},{""rating"":22.1875,""responseTime"":10.786799999952336}]",space,11.3536,,756.6165,Not at all,0,756.6179,,,[],,0,16,16,16,1,audio/Narrative8Situation7.wav,audio/Narrative7Situation7.wav,audio/Narrative6Situation7.wav,audio/Narrative5Situation7.wav,3,5,5,4,,,,,,,,,,,,,,,,,,,,,,,,,,,,,,,,,,,,,,,
,,,,,,62dc761564191bc28a87e7c7,2024-02-08_09h50.45.621,group3.1-3.2-social-tom,2023.2.2,Win32,60.60606061,65c5074098b851296ff0b7ed,65c5144580ce2dd1a455146e,,,,,,,,,,,,,,,,,,,,,,,,,,,,,756.6182,1,audio/Narrative7Situation8.wav,758.6269,,758.6269,768.6641,"[[999,0],[999,83],[999,166],[999,256],[999,340],[999,423],[999,500],[999,583],[999,666],[999,750],[999,833],[999,917],[999,1004],[999,1083],[999,1173],[999,1250],[999,1333],[999,1417],[999,1500],[999,1584],[999,1667],[999,1750],[999,1834],[999,1917],[999,2000],[999,2084],[999,2173],[999,2258],[999,2334],[999,2424],[999,2500],[999,2584],[999,2667],[999,2757],[999,2834],[999,2924],[999,3007],[999,3090],[999,3167],[999,3251],[999,3334],[999,3424],[999,3507],[999,3591],[999,3667],[999,3751],[999,3841],[999,3918],[999,4008],[999,4084],[999,4168],[999,4255],[999,4341],[999,4424],[999,4508],[999,4585],[999,4674],[999,4758],[999,4841],[999,4925],[999,5008],[999,5085],[999,5168],[999,5252],[999,5341],[999,5418],[999,5502],[999,5585],[999,5675],[999,5759],[999,5842],[999,5925],[999,6002],[999,6085],[999,6168],[999,6252],[999,6342],[999,6426],[999,6504],[999,6592],[999,6669],[999,6759],[999,6842],[999,6926],[999,7009],[999,7093],[999,7169],[999,7259],[999,7342],[999,7426],[999,7502],[999,7593],[999,7669],[999,7753],[999,7836],[999,7919],[999,8003],[999,8086],[999,8176],[999,8253],[999,8336],[999,8419],[999,8503],[999,8586],[999,8669],[999,8753],[999,8836],[999,8926],[999,9003],[999,9086],[999,9170],[999,9253],[999,9336],[999,9420],[999,9507],[999,9593],[999,9676],[999,9753],[999,9837],[999,9927],[999,10003]]",1,0,768.6642,773.7327,100,4.3343,"[{""rating"":34.895833333333336,""responseTime"":3.1004999999998972},{""rating"":0,""responseTime"":3.500799999952278},{""rating"":100,""responseTime"":4.334299999952236}]",space,4.5236,,773.7328,Half the time,50,773.7362,,,[],,0,17,17,17,1,audio/Narrative8Situation8.wav,audio/Narrative7Situation8.wav,audio/Narrative6Situation8.wav,audio/Narrative5Situation8.wav,3,2,5,3,,,,,,,,,,,,,,,,,,,,,,,,,,,,,,,,,,,,,,,
,,,,,,62dc761564191bc28a87e7c7,2024-02-08_09h50.45.621,group3.1-3.2-social-tom,2023.2.2,Win32,60.60606061,65c5074098b851296ff0b7ed,65c5144580ce2dd1a455146e,,,,,,,,,,,,,,,,,,,,,,,,,,,,,773.7364,1,audio/Narrative7Situation9.wav,775.7501,,775.7501,784.3929,"[[999,0],[999,89],[999,173],[999,256],[999,333],[999,416],[999,506],[999,583],[999,666],[999,750],[999,833],[999,923],[999,1000],[999,1090],[999,1173],[999,1250],[999,1333],[999,1416],[999,1506],[999,1583],[999,1673],[999,1750],[999,1833],[999,1917],[999,2007],[999,2083],[999,2167],[999,2257],[999,2333],[999,2424],[999,2507],[999,2584],[999,2673],[999,2750],[999,2834],[999,2934],[999,3017],[999,3101],[999,3184],[999,3267],[999,3351],[999,3434],[999,3517],[999,3601],[999,3684],[999,3767],[999,3861],[999,3934],[999,4017],[999,4101],[999,4184],[999,4267],[999,4351],[999,4434],[999,4518],[999,4601],[999,4684],[999,4775],[999,4851],[999,4934],[999,5018],[999,5101],[999,5185],[999,5268],[999,5351],[999,5435],[999,5518],[999,5601],[999,5685],[999,5768],[999,5851],[999,5935],[999,6018],[999,6101],[999,6185],[999,6268],[999,6352],[999,6435],[999,6518],[999,6602],[999,6685],[999,6769],[999,6852],[999,6935],[999,7019],[999,7102],[999,7185],[999,7269],[999,7352],[999,7435],[999,7519],[999,7602],[999,7685],[999,7781],[999,7856],[999,7936],[999,8025],[999,8102],[999,8186],[999,8269],[999,8352],[999,8442],[999,8526],[999,8603]]",1,0,784.393,790.312,100,5.7455,"[{""rating"":100,""responseTime"":5.745499999999993}]",space,5.3528,,790.312,All the time,100,796.9912,100,4.3907,"[{""rating"":100,""responseTime"":4.3907000000477865}]",space,0,18,18,18,1,audio/Narrative8Situation9.wav,audio/Narrative7Situation9.wav,audio/Narrative6Situation9.wav,audio/Narrative5Situation9.wav,3,2,4,3,,,6.1442,,,,,,,,,,,,,,,,,,,,,,,,,,,,,,,,,,,,
,,,,,,62dc761564191bc28a87e7c7,2024-02-08_09h50.45.621,group3.1-3.2-social-tom,2023.2.2,Win32,60.60606061,65c5074098b851296ff0b7ed,65c5144580ce2dd1a455146e,,,,,,,,,,,,,,,,,,,,,,,,,,,800.143,802.7268,802.744,2,audio/Narrative13Situation2.wav,802.7441,,802.7441,832.5045,"[[100,816],[100,899],[100,982],[100,1066],[74.4,1816],[72,1900],[68.4,1983],[62.6,2067],[58.3,2150],[57.6,2233],[57.6,2316],[57.6,2400],[57.6,2483],[57.6,2567],[57.6,2650],[57.6,2733],[57.6,2816],[57.6,2900],[57.6,2983],[57.6,3072],[57.6,3150],[57.6,3233],[57.6,3317],[57.6,3400],[57.6,3484],[57.6,3567],[57.6,3650],[57.6,3734],[57.6,3817],[57.6,3900],[57,3984],[53.5,4069],[49.9,4151],[49.3,4234],[49.3,4317],[50.9,4402],[59.6,4484],[64.7,4574],[67,4658],[70.7,4741],[71.7,4824],[72.2,4908],[72.2,4986],[72.3,5075],[72.5,5157],[72.5,5241],[72.5,5324],[72.5,5401],[72.5,5491],[72.5,5572],[68.4,5658],[52.4,5741],[3.9,5825],[16.3,6242],[22.1,6318],[22.1,6407],[19.7,6492],[17.5,6575],[17.1,6658],[17,6735],[17,6818],[17,6908],[17,6985],[17,7075],[17,7158],[17,7238],[17,7322],[17,7409],[17,7485],[17,7568],[17,7652],[17,7735],[17,7822],[17,7909],[17,7985],[17,8075],[17,8158],[17,8235],[17,8326],[17,8405],[17,8492],[17,8576],[17,8659],[17,8742],[17,8826],[16.9,8908],[16.9,8989],[16.8,9069],[16.8,9152],[16.8,9236],[16.8,9323],[16.8,9402],[16.8,9492],[16.8,9569],[16.7,9653],[16.7,9736],[16.6,9826],[16.4,9903],[16.4,9986],[16.4,10069],[16.4,10152],[16.4,10249],[16.4,10319],[16.4,10403],[16.4,10486],[16.4,10569],[16.4,10653],[16.4,10743],[16.4,10826],[16.4,10903],[16.4,10993],[16.4,11077],[16.4,11153],[16.4,11243],[16.4,11320],[16.4,11403],[16.4,11493],[16.4,11570],[16.4,11660],[16.4,11743],[16.4,11823],[16.4,11910],[16.4,11993],[16.4,12070],[16.4,12153],[16.4,12244],[16.4,12327],[16.4,12403],[16.4,12487],[16.4,12577],[16.4,12654],[16.4,12737],[16.4,12820],[16.4,12904],[16.4,12994],[16.4,13070],[16.4,13161],[16.4,13239],[16.4,13321],[16.4,13404],[16.4,13487],[16.4,13577],[16.4,13654],[16.4,13737],[14.4,13821],[20.6,13912],[21.1,13994],[24.1,14078],[34.7,14178],[39.5,14262],[56.7,14345],[74.2,14428],[74.8,14511],[75.7,14595],[75.7,14671],[75.9,14761],[78,14845],[78.6,14928],[79.5,15011],[79.5,15088],[79.5,15171],[79.5,15255],[78.9,15346],[78.8,15421],[78.8,15508],[78.8,15588],[78.8,15671],[78.8,15761],[78.8,15844],[78.8,15921],[78.8,16005],[78.8,16088],[78.8,16171],[78.8,16261],[78.8,16338],[78.8,16425],[78.8,16505],[78.8,16588],[76.7,16679],[55.4,16796],[45.3,16896],[42,16979],[35.5,17062],[32.1,17145],[26.7,17229],[23.5,17312],[16.4,17396],[16.3,17479],[16.3,17562],[16.3,17646],[15.3,17729],[15.3,17806],[15.3,17895],[15.3,17972],[15.3,18056],[15.3,18139],[15.3,18229],[15.3,18306],[15.3,18389],[15.3,18472],[15.3,18556],[15.3,18646],[15.3,18723],[15.3,18806],[15.3,18896],[15.3,18973],[15.3,19062],[15.3,19139],[15.3,19229],[15.3,19312],[15.3,19389],[15.3,19481],[15.3,19562],[15.3,19646],[15.3,19723],[15.3,19806],[15.3,19896],[15.3,19973],[15.3,20056],[15.3,20146],[15.3,20223],[15.3,20314],[15.3,20390],[15.3,20480],[15.3,20556],[15.3,20646],[15.3,20730],[15.3,20807],[15.3,20896],[15.3,20973],[15.3,21057],[15.3,21140],[15.3,21230],[15.3,21307],[15.3,21390],[15.3,21473],[15.3,21557],[15.3,21647],[15.3,21724],[15.3,21807],[15.3,21890],[15.3,21978],[15.3,22064],[15.3,22147],[15.3,22231],[15.3,22307],[15.3,22390],[15.3,22474],[15.3,22557],[15.3,22647],[15.3,22724],[15.3,22814],[15.3,22891],[15.3,22974],[15.3,23057],[15.3,23141],[15.3,23224],[15.3,23315],[15.3,23398],[15.3,23474],[15.3,23557],[15.3,23641],[15.3,23731],[15.3,23808],[15.3,23891],[15.3,23981],[15.3,24065],[15.3,24148],[15.3,24224],[15.3,24315],[15.3,24395],[15.3,24482],[15.3,24558],[15.3,24648],[15.3,24725],[15.3,24808],[15.3,24891],[15.3,24975],[15.3,25065],[15.3,25166],[15.3,25242],[15.3,25325],[15.3,25408],[15.3,25492],[15.3,25575],[15.3,25658],[15.3,25742],[15.3,25825],[15.3,25908],[15.3,25992],[15.3,26075],[15.3,26158],[15.3,26242],[15.3,26325],[15.3,26409],[15.3,26492],[15.3,26575],[15.3,26659],[15.3,26742],[15.3,26825],[15.3,26909],[15.3,26992],[15.3,27076],[15.3,27159],[15.3,27242],[15.3,27326],[15.3,27409],[15.3,27492],[15.3,27576],[15.3,27659],[15.3,27742],[15.3,27826],[15.3,27909],[15.3,27992],[15.3,28076],[15.3,28159],[15.3,28243],[15.3,28326],[15.3,28409],[15.3,28493],[15.3,28576],[15.3,28659],[15.3,28743],[15.3,28826],[15.3,28910],[15.3,28993],[15.3,29076],[15.3,29160],[15.3,29243],[15.3,29326],[15.3,29410],[15.3,29493],[15.3,29576],[15.3,29660],[15.3,29743]]",1,0,832.5047,832.5136,,,[],,,,832.5136,All the time,100,832.5148,,,[],,0,0,0,0,1,audio/Narrative13Situation2.wav,audio/Narrative13Situation2.wav,audio/Narrative13Situation2.wav,audio/Narrative13Situation2.wav,2,2,2,2,,,,,796.9985,800.1427,space,2.6184,,,,,,,,,,,,,,,,,,,,,,,,,,,,,,,
,,,,,,62dc761564191bc28a87e7c7,2024-02-08_09h50.45.621,group3.1-3.2-social-tom,2023.2.2,Win32,60.60606061,65c5074098b851296ff0b7ed,65c5144580ce2dd1a455146e,,,,,,,,,,,,,,,,,,,,,,,,,,,,,832.515,2,audio/Narrative6Situation1.wav,834.5219,,834.522,861.1153,"[[15.6,1834],[18.2,1917],[19.3,2001],[19.6,2084],[19.9,2167],[29.8,2257],[30.1,2334],[33.1,2424],[42.4,2508],[42.7,2588],[44.3,2674],[52.9,2757],[57.5,2841],[59.8,2924],[64,3008],[71.7,3091],[73,3174],[74.2,3258],[75.8,3350],[75.8,3434],[74.5,3518],[63.6,3601],[52.7,3684],[48.6,3768],[45.2,3851],[40,3934],[35,4018],[21.7,4101],[16.4,4184],[16.4,4268],[16.4,4351],[16.4,4434],[16.4,4518],[16.4,4601],[16.4,4685],[16.4,4768],[16.4,4851],[16.4,4934],[16.4,5018],[16.4,5101],[16.4,5185],[16.4,5268],[16.4,5351],[16.4,5435],[16.4,5518],[16.4,5601],[16.4,5685],[16.4,5768],[16.4,5851],[16.4,5935],[16.4,6018],[16.4,6111],[16.4,6185],[16.4,6268],[16.4,6352],[16.4,6435],[16.4,6519],[16.4,6602],[16.7,6686],[18.2,6769],[22.4,6854],[25.3,6935],[26.4,7019],[35.1,7103],[46,7186],[51,7276],[60.3,7376],[65.8,7459],[69.1,7542],[74.5,7627],[76.3,7709],[77.6,7793],[80.4,7876],[83,7959],[86,8043],[88.5,8126],[88.6,8209],[88.6,8293],[88.6,8369],[88.6,8452],[88.6,8536],[88.6,8626],[88.6,8703],[88.6,8793],[88.6,8869],[88.6,8953],[88.6,9036],[88.6,9119],[88.6,9210],[88.6,9286],[88.6,9376],[88.6,9463],[88.6,9536],[88.6,9620],[88.6,9707],[88.6,9786],[88.6,9870],[88.6,9960],[88.3,10043],[88,10127],[87.8,10218],[87.2,10294],[86.9,10377],[86,10460],[84.8,10543],[83.4,10627],[82.2,10711],[78.2,10794],[70.8,10877],[70.5,10953],[70.5,11037],[70.5,11126],[70.5,11204],[70.5,11287],[70.5,11370],[70.5,11460],[70.5,11537],[70.5,11620],[70.5,11704],[70.5,11787],[70.5,11870],[70.5,11954],[70.5,12037],[70.5,12121],[70.5,12210],[70.5,12294],[70.5,12371],[70.5,12454],[70.5,12544],[70.5,12621],[70.5,12704],[70.5,12788],[70.5,12871],[70.5,12961],[70.5,13042],[70.5,13121],[70.5,13204],[70.5,13294],[70.5,13371],[70.5,13459],[70.5,13544],[70.5,13627],[70.5,13711],[70.5,13795],[70.5,13878],[70.5,13961],[70.5,14038],[70.5,14122],[70.5,14211],[70.4,14289],[70.2,14378],[70.1,14455],[70.1,14544],[69.8,14628],[69.4,14712],[68.6,14795],[65.6,14879],[64,14962],[62.6,15045],[61,15129],[60,15212],[58.2,15295],[57.2,15379],[57,15462],[56.9,15539],[56.9,15622],[56.9,15705],[56.9,15789],[56.9,15879],[56.8,15962],[56.8,16045],[56.7,16122],[56.5,16212],[56.1,16299],[49.6,16413],[49.1,16489],[49,16579],[49,16662],[49,16746],[49,16829],[49,16906],[48.6,16996],[40.1,17080],[22.7,17163],[19.7,17239],[19.5,17329],[19.3,17406],[18.6,17496],[16,17580],[16,17656],[16,17739],[15.8,17829],[15.8,17906],[15.8,17989],[15.8,18073],[15.8,18160],[15.8,18246],[15.8,18344],[15.8,18406],[15.8,18490],[15.7,18573],[15.7,18663],[15.7,18740],[15.7,18830],[15.7,18913],[15.7,18990],[15.7,19080],[15.7,19163],[15.7,19246],[15.7,19330],[15.7,19406],[15.7,19496],[15.7,19573],[15.7,19657],[15.7,19747],[15.7,19831],[15.7,19913],[15.7,19990],[15.7,20081],[15.7,20163],[15.7,20247],[15.7,20330],[15.7,20414],[15.7,20490],[15.7,20574],[15.7,20657],[15.7,20747],[15.7,20830],[15.7,20914],[15.7,20990],[15.7,21080],[15.7,21158],[15.7,21241],[15.7,21331],[15.7,21411],[15.7,21497],[15.7,21581],[15.7,21657],[15.7,21747],[15.7,21825],[15.7,21915],[15.7,21991],[15.7,22081],[15.7,22158],[15.7,22241],[15.7,22324],[15.7,22414],[15.7,22497],[15.7,22581],[15.7,22664],[15.7,22741],[15.7,22828],[15.7,22914],[15.7,22998],[15.7,23075],[15.7,23158],[15.7,23241],[15.7,23325],[15.7,23415],[15.7,23491],[15.7,23581],[15.7,23665],[15.7,23741],[15.7,23825],[15.7,23915],[15.7,23998],[15.7,24075],[15.7,24158],[15.7,24242],[15.7,24325],[15.7,24408],[15.7,24499],[15.7,24582],[15.7,24666],[15.7,24748],[15.7,24842],[15.7,24925],[15.7,25009],[15.7,25092],[15.7,25175],[15.7,25259],[15.7,25342],[15.7,25425],[15.7,25509],[15.7,25592],[15.7,25675],[15.7,25759],[15.7,25842],[15.7,25926],[15.7,26009],[15.7,26092],[15.7,26176],[15.7,26259],[15.7,26342],[15.7,26426],[15.7,26509],[15.7,26592]]",1,0,861.1155,874.5739,49.27083333,12.8735,"[{""rating"":49.270833333333336,""responseTime"":12.873500000000035}]",space,12.9162,,874.574,Half the time,50,883.5735,49.89583333,6.7264,"[{""rating"":49.895833333333336,""responseTime"":6.726399999856881}]",space,0,1,1,1,1,audio/Narrative7Situation1.wav,audio/Narrative8Situation1.wav,audio/Narrative5Situation1.wav,audio/Narrative6Situation1.wav,2,5,5,2,,,8.4588,,,,,,,,,,,,,,,,,,,,,,,,,,,,,,,,,,,,
,,,,,,62dc761564191bc28a87e7c7,2024-02-08_09h50.45.621,group3.1-3.2-social-tom,2023.2.2,Win32,60.60606061,65c5074098b851296ff0b7ed,65c5144580ce2dd1a455146e,,,,,,,,,,,,,,,,,,,,,,,,,,,,,883.5738,2,audio/Narrative6Situation2.wav,886.5745,,886.5745,915.0855,"[[999,8],[999,83],[999,166],[999,250],[999,333],[999,416],[999,500],[999,592],[999,666],[999,750],[999,833],[999,916],[999,1000],[999,1083],[999,1167],[999,1250],[999,1333],[999,1417],[999,1500],[999,1583],[999,1667],[999,1750],[999,1834],[999,1917],[999,2000],[999,2084],[999,2167],[999,2250],[999,2334],[999,2417],[999,2501],[999,2584],[999,2667],[999,2751],[999,2834],[999,2917],[999,3001],[999,3084],[999,3168],[999,3251],[999,3334],[999,3418],[999,3501],[999,3584],[999,3668],[999,3751],[999,3834],[999,3918],[999,4001],[999,4084],[999,4168],[999,4251],[999,4334],[999,4418],[999,4501],[999,4585],[999,4668],[999,4751],[999,4835],[999,4918],[999,5001],[999,5085],[999,5168],[999,5251],[999,5335],[999,5418],[999,5502],[999,5585],[999,5668],[999,5752],[999,5835],[999,5918],[999,6002],[999,6085],[999,6168],[999,6252],[999,6335],[999,6419],[999,6502],[999,6585],[999,6669],[999,6752],[999,6835],[999,6919],[999,7006],[999,7086],[999,7169],[999,7252],[999,7336],[999,7419],[999,7503],[999,7586],[55.7,7670],[52.1,7753],[49.3,7836],[49.3,7919],[45.4,8003],[29,8086],[27.8,8170],[25.4,8253],[22.2,8336],[22,8419],[21.8,8503],[21.5,8586],[21.5,8669],[21.5,8753],[21.5,8836],[21.5,8919],[21.5,9003],[21.5,9086],[21.5,9170],[21.5,9253],[21.5,9336],[21.5,9420],[21.5,9503],[21.5,9586],[21.5,9670],[21.5,9753],[21.5,9837],[21.5,9920],[21.5,10003],[21.5,10087],[21.5,10170],[21.5,10253],[21.6,10337],[21.6,10420],[24.2,10504],[47.2,10587],[64.8,10671],[73.2,10754],[80.4,10844],[80.5,10927],[80.6,11011],[80.6,11091],[80.6,11170],[80.6,11254],[80.6,11344],[80.6,11421],[80.6,11504],[80.6,11594],[80.6,11677],[80.6,11754],[80.6,11845],[80.6,11927],[80.6,12004],[80.6,12087],[80.6,12171],[80.6,12254],[80.6,12337],[80.6,12428],[80.6,12511],[80.6,12588],[80.6,12678],[80.6,12761],[80.6,12838],[80.6,12928],[80.6,13004],[80.6,13088],[80.6,13178],[80.6,13255],[80.6,13338],[80.6,13427],[80.6,13505],[80.6,13588],[80.6,13671],[80.6,13761],[80.6,13845],[80.6,13921],[80.6,14005],[80.6,14088],[80.6,14178],[80.6,14255],[80.6,14345],[80.6,14422],[80.6,14505],[80.6,14588],[80.6,14678],[80.6,14762],[80.6,14838],[80.6,14929],[80.6,15005],[80.6,15088],[80.6,15176],[80.6,15262],[80.6,15345],[80.6,15429],[80.6,15512],[80.6,15589],[80.6,15676],[80.6,15755],[80.7,15839],[80.7,15929],[80.7,16006],[80.7,16096],[80.7,16179],[80.7,16263],[80.7,16346],[80.7,16423],[80.7,16510],[80.7,16596],[80.7,16679],[80.7,16756],[80.7,16843],[80.7,16923],[80.7,17006],[80.7,17096],[80.7,17173],[80.7,17263],[80.7,17346],[80.7,17423],[80.7,17506],[80.7,17589],[80.7,17673],[80.7,17763],[80.7,17840],[80.3,17929],[79.5,18013],[79.4,18090],[79.4,18173],[78.8,18264],[55.5,18347],[44,18430],[23.5,18514],[21.1,18596],[21.1,18680],[21.1,18764],[21.1,18846],[19.3,18930],[18.3,19014],[18.1,19097],[18.1,19181],[18.1,19257],[18.1,19340],[18.1,19424],[18.1,19507],[18.1,19597],[18.1,19673],[18.1,19763],[18.1,19847],[18.1,19924],[18.1,20014],[18.1,20090],[18.1,20174],[18.1,20257],[18.1,20347],[18.1,20424],[18.1,20507],[18.1,20591],[18.2,20681],[18.4,20765],[18.4,20841],[18.4,20930],[18.5,21014],[18.5,21091],[18.5,21174],[18.5,21258],[18.6,21341],[18.6,21424],[18.6,21508],[18.6,21595],[18.6,21674],[18.6,21764],[18.6,21841],[18.6,21924],[18.6,22014],[18.5,22098],[18,22182],[17,22265],[14.9,22348],[13.4,22432],[12.8,22516],[12.8,22591],[12.8,22675],[12.8,22758],[12.8,22841],[12.8,22925]]",1,0,915.0857,921.3543,16.77083333,4.9723,"[{""rating"":26.875,""responseTime"":3.27049999999997},{""rating"":16.770833333333336,""responseTime"":4.972299999952384}]",space,5.7142,,921.3543,All the time,100,921.3571,,,[],,0,2,2,2,1,audio/Narrative7Situation2.wav,audio/Narrative8Situation2.wav,audio/Narrative5Situation2.wav,audio/Narrative6Situation2.wav,3,3,3,3,,,,,,,,,,,,,,,,,,,,,,,,,,,,,,,,,,,,,,,
,,,,,,62dc761564191bc28a87e7c7,2024-02-08_09h50.45.621,group3.1-3.2-social-tom,2023.2.2,Win32,60.60606061,65c5074098b851296ff0b7ed,65c5144580ce2dd1a455146e,,,,,,,,,,,,,,,,,,,,,,,,,,,,,921.3574,2,audio/Narrative6Situation3.wav,926.3727,,926.3728,938.9949,"[[999,6],[999,83],[999,166],[999,250],[999,333],[999,416],[999,500],[999,583],[999,666],[999,750],[999,833],[999,916],[999,1000],[999,1083],[999,1167],[999,1260],[999,1337],[999,1417],[999,1506],[999,1584],[999,1675],[999,1767],[999,1850],[999,1934],[999,2017],[999,2100],[999,2184],[999,2284],[999,2373],[999,2450],[999,2540],[999,2617],[999,2707],[999,2784],[999,2874],[999,2951],[999,3034],[999,3117],[999,3201],[999,3284],[999,3367],[999,3451],[999,3538],[999,3618],[999,3701],[999,3784],[999,3868],[999,3951],[999,4041],[999,4118],[999,4207],[999,4284],[999,4368],[999,4451],[999,4535],[999,4618],[999,4708],[999,4784],[999,4872],[999,4951],[999,5039],[999,5118],[999,5209],[999,5285],[999,5368],[999,5451],[999,5535],[999,5618],[999,5708],[999,5792],[999,5868],[999,5952],[999,6042],[999,6118],[999,6202],[999,6292],[999,6369],[999,6458],[999,6535],[999,6627],[999,6702],[999,6785],[999,6869],[999,6952],[999,7058],[999,7143],[999,7226],[999,7309],[999,7386],[999,7476],[999,7559],[999,7643],[999,7719],[999,7810],[999,7889],[999,7975],[999,8059],[999,8143],[999,8226],[999,8303],[999,8392],[999,8469],[999,8553],[999,8636],[999,8719],[999,8803],[999,8886],[999,8986],[999,9076],[999,9164],[999,9236],[999,9320],[999,9403],[999,9493],[999,9570],[999,9653],[999,9736],[999,9820],[999,9903],[999,9986],[999,10077],[999,10153],[999,10237],[999,10326],[999,10403],[999,10487],[999,10570],[999,10660],[999,10737],[999,10820],[999,10910],[999,10994],[999,11070],[999,11160],[999,11237],[999,11327],[999,11404],[999,11487],[999,11570],[999,11660],[999,11737],[999,11824],[999,11910],[999,11994],[999,12071],[999,12158],[999,12237],[999,12327],[999,12404],[999,12488],[999,12571]]",1,0,938.995,941.2019,49.375,0.7839,"[{""rating"":49.375,""responseTime"":0.7838999998568852}]",space,1.6577,,941.2019,Half the time,50,941.2045,,,[],,0,3,3,3,1,audio/Narrative7Situation3.wav,audio/Narrative8Situation3.wav,audio/Narrative5Situation3.wav,audio/Narrative6Situation3.wav,8,4,3,5,,,,,,,,,,,,,,,,,,,,,,,,,,,,,,,,,,,,,,,
,,,,,,62dc761564191bc28a87e7c7,2024-02-08_09h50.45.621,group3.1-3.2-social-tom,2023.2.2,Win32,60.60606061,65c5074098b851296ff0b7ed,65c5144580ce2dd1a455146e,,,,,,,,,,,,,,,,,,,,,,,,,,,,,941.2048,2,audio/Narrative6Situation4.wav,943.2123,,943.2124,955.8338,"[[49.4,256],[49.9,340],[50.1,423],[50.1,500],[50.1,583],[50.1,673],[50.1,750],[50.1,833],[50.1,924],[50.1,1000],[50.1,1090],[50.1,1167],[50.1,1250],[50.1,1333],[50.1,1417],[50.1,1506],[50.1,1591],[50.1,1667],[50.1,1757],[50.1,1840],[50.1,1917],[50.1,2007],[50.1,2084],[50.1,2173],[50.1,2257],[50.1,2334],[50.1,2417],[50.1,2507],[50.1,2584],[50.1,2667],[50.1,2750],[50.1,2840],[50.1,2924],[50.1,3008],[50.1,3084],[50.1,3167],[50.1,3258],[50.1,3334],[50.1,3421],[50.1,3501],[50.1,3591],[50.1,3674],[50.1,3758],[50.1,3846],[50.1,3918],[50.1,4001],[50.1,4091],[46.6,4179],[37.9,4276],[30.3,4359],[22.1,4458],[22.1,4541],[22.1,4618],[22.1,4701],[21.7,4792],[19.4,4875],[19,4968],[18.4,5052],[15.3,5135],[14.7,5218],[14.7,5302],[14.7,5385],[14.7,5468],[14.7,5552],[14.7,5635],[12.4,5725],[12.4,5802],[12.4,5885],[13.1,5975],[13.1,6052],[13.2,6135],[13.2,6218],[13.2,6302],[13.2,6385],[13.2,6475],[13.2,6556],[13.2,6642],[13.2,6725],[13.2,6809],[13.2,6889],[13.2,6976],[13.2,7059],[13.2,7142],[13.2,7225],[13.2,7302],[13.2,7393],[13.2,7469],[13.2,7552],[13.2,7642],[13.2,7719],[13.2,7802],[13.2,7886],[13.2,7976],[13.2,8052],[13.2,8142],[13.2,8219],[13.2,8309],[13.2,8386],[13.2,8476],[13.2,8553],[13.2,8643],[13.2,8726],[13.2,8806],[13.2,8886],[13.2,8976],[13.2,9053],[13.2,9136],[13.2,9226],[13.2,9310],[13.2,9393],[13.2,9476],[13.2,9560],[13.2,9636],[13.2,9726],[13.2,9803],[13.2,9887],[13.2,9970],[13.2,10060],[13.2,10144],[13.2,10228],[13.2,10303],[13.2,10387],[13.2,10470],[13.2,10560],[13.2,10654],[13.2,10737],[13,10827],[13,10903],[13,10990],[13,11077],[13,11160],[13,11237],[13,11320],[13.6,11404],[13.6,11494],[13.6,11578],[13.6,11660],[13.6,11744],[13.6,11827],[13.6,11904],[13.6,11994],[13.6,12077],[13.6,12154],[13.6,12244],[13.6,12321],[13.6,12404],[13.6,12494],[13.6,12577]]",1,0,955.834,959.0918,19.47916667,2.3737,"[{""rating"":21.770833333333332,""responseTime"":2.0572999999523063},{""rating"":19.479166666666664,""responseTime"":2.37370000004762}]",space,2.7183,,959.0919,Not at all,0,959.0943,,,[],,0,4,4,4,1,audio/Narrative7Situation4.wav,audio/Narrative8Situation4.wav,audio/Narrative5Situation4.wav,audio/Narrative6Situation4.wav,3,3,1,2,,,,,,,,,,,,,,,,,,,,,,,,,,,,,,,,,,,,,,,
,,,,,,62dc761564191bc28a87e7c7,2024-02-08_09h50.45.621,group3.1-3.2-social-tom,2023.2.2,Win32,60.60606061,65c5074098b851296ff0b7ed,65c5144580ce2dd1a455146e,,,,,,,,,,,,,,,,,,,,,,,,,,,,,959.0946,2,audio/Narrative6Situation5.wav,961.1025,,961.1025,969.0555,"[[999,0],[999,89],[999,173],[999,256],[999,339],[999,423],[999,506],[999,589],[999,674],[999,750],[999,839],[999,923],[999,1006],[999,1083],[999,1166],[999,1256],[999,1340],[999,1416],[999,1500],[999,1590],[999,1667],[999,1750],[999,1841],[999,1923],[999,2008],[999,2083],[999,2173],[999,2250],[999,2333],[999,2417],[999,2506],[999,2584],[999,2674],[999,2757],[999,2840],[999,2924],[999,3008],[999,3091],[999,3174],[999,3258],[999,3341],[999,3441],[52.3,3525],[52.1,3601],[52,3691],[52,3767],[52,3851],[50.2,3941],[49.6,4025],[49.4,4105],[49.1,4184],[48.9,4268],[48.9,4368],[48.9,4451],[48.9,4534],[48.9,4618],[48.9,4701],[48.9,4784],[48.9,4868],[48.9,4952],[48.9,5035],[48.9,5118],[48.9,5202],[48.9,5285],[48.9,5368],[48.9,5451],[48.9,5535],[48.9,5618],[48.9,5701],[48.9,5785],[48.9,5868],[48.9,5951],[48.9,6035],[48.9,6118],[48.9,6202],[48.9,6285],[48.9,6368],[48.9,6452],[48.9,6535],[48.9,6618],[48.9,6702],[48.9,6785],[62.1,6869],[99.9,6952],[99.5,7036],[91.7,7119],[83.3,7203],[82.2,7286],[81.6,7369],[81.4,7452],[81.3,7536],[81.3,7619],[81.1,7702],[81,7785],[80.9,7869],[80.9,7952]]",1,0,969.0557,972.4067,81.35416667,3.3468,"[{""rating"":81.35416666666666,""responseTime"":3.3467999999522817}]",space,1.3559,,972.4068,Half the time,50,972.4093,,,[],,0,5,5,5,1,audio/Narrative7Situation5.wav,audio/Narrative8Situation5.wav,audio/Narrative5Situation5.wav,audio/Narrative6Situation5.wav,5,2,5,2,,,,,,,,,,,,,,,,,,,,,,,,,,,,,,,,,,,,,,,
,,,,,,62dc761564191bc28a87e7c7,2024-02-08_09h50.45.621,group3.1-3.2-social-tom,2023.2.2,Win32,60.60606061,65c5074098b851296ff0b7ed,65c5144580ce2dd1a455146e,,,,,,,,,,,,,,,,,,,,,,,,,,,,,972.4096,2,audio/Narrative6Situation6.wav,974.4241,,974.4242,985.495,"[[999,0],[999,89],[999,173],[999,256],[999,339],[999,423],[999,500],[999,589],[999,666],[999,750],[999,833],[999,916],[999,1006],[999,1083],[999,1166],[999,1256],[999,1333],[999,1423],[999,1500],[999,1583],[999,1667],[999,1750],[999,1833],[999,1923],[999,2007],[999,2083],[999,2174],[999,2263],[999,2341],[999,2417],[999,2500],[999,2584],[999,2667],[999,2750],[999,2840],[999,2924],[999,3007],[999,3090],[999,3174],[999,3251],[999,3334],[999,3417],[999,3507],[999,3584],[999,3667],[999,3751],[999,3841],[999,3917],[999,4001],[999,4084],[999,4168],[999,4251],[999,4341],[999,4418],[999,4501],[999,4584],[999,4668],[999,4758],[999,4841],[999,4925],[999,5001],[999,5091],[52.5,5175],[52.5,5251],[52.5,5335],[50.9,5425],[50.6,5501],[50.5,5591],[50.4,5675],[49.6,5759],[48.8,5835],[47.6,5925],[47.4,6006],[47,6092],[46.6,6175],[46.4,6259],[45.7,6343],[41.8,6426],[34.3,6509],[28,6593],[25.1,6676],[21.7,6759],[21.6,6835],[21.5,6925],[21.5,7002],[21.5,7085],[21.5,7169],[21.5,7252],[21.5,7336],[21.5,7425],[21.5,7519],[20.4,7602],[19.9,7686],[19.5,7769],[18.1,7853],[16.6,7936],[13.3,8020],[7.1,8110]]",1,0,985.4952,993.7379,17.39583333,7.3208,"[{""rating"":7.187500000000002,""responseTime"":4.536400000095455},{""rating"":64.16666666666666,""responseTime"":6.018600000143124},{""rating"":17.395833333333332,""responseTime"":7.320799999952442}]",space,7.6886,,993.7379,All the time,100,993.7406,,,[],,0,6,6,6,1,audio/Narrative7Situation6.wav,audio/Narrative8Situation6.wav,audio/Narrative5Situation6.wav,audio/Narrative6Situation6.wav,3,2,3,2,,,,,,,,,,,,,,,,,,,,,,,,,,,,,,,,,,,,,,,
,,,,,,62dc761564191bc28a87e7c7,2024-02-08_09h50.45.621,group3.1-3.2-social-tom,2023.2.2,Win32,60.60606061,65c5074098b851296ff0b7ed,65c5144580ce2dd1a455146e,,,,,,,,,,,,,,,,,,,,,,,,,,,,,993.7409,2,audio/Narrative6Situation7.wav,998.7499,,998.7499,1023.6091,"[[999,9],[999,83],[999,166],[999,249],[999,333],[999,416],[999,500],[999,583],[999,666],[999,750],[999,833],[999,916],[999,1000],[999,1083],[999,1166],[999,1250],[999,1333],[999,1416],[999,1500],[999,1589],[999,1667],[999,1750],[999,1833],[999,1917],[999,2000],[999,2083],[999,2167],[999,2250],[999,2334],[999,2436],[999,2500],[999,2584],[999,2667],[999,2750],[999,2834],[999,2917],[999,3000],[999,3084],[999,3168],[999,3274],[72.6,3366],[74.3,3434],[73,3524],[72.6,3601],[72.6,3691],[72.6,3774],[72.6,3858],[72.6,3934],[72.7,4017],[73,4108],[73.2,4191],[73.6,4275],[73.9,4355],[74.2,4441],[74.6,4518],[75.9,4608],[76.1,4684],[76.1,4774],[76.3,4851],[76.3,4942],[76.3,5018],[76.3,5101],[76.3,5185],[76.3,5268],[76.3,5358],[76.3,5435],[76.3,5518],[76.3,5608],[76.3,5685],[76.3,5775],[76.3,5859],[76.3,5935],[76.3,6025],[76.3,6102],[76.3,6185],[76.3,6272],[76.3,6362],[76.3,6442],[76.3,6518],[76.3,6602],[76.3,6692],[76.3,6769],[76.3,6855],[76.3,6935],[76.3,7019],[76.3,7108],[76.3,7185],[76.3,7276],[76.3,7352],[76.3,7435],[76.3,7519],[76.3,7602],[76.3,7686],[76.3,7769],[76.3,7852],[76.3,7936],[76.3,8019],[76.3,8103],[76.6,8186],[77.2,8270],[77.4,8352],[77.8,8436],[78.4,8519],[78.4,8603],[78.4,8686],[78.4,8769],[78.4,8853],[78.4,8936],[78.4,9019],[78.4,9103],[78.4,9186],[78.4,9270],[78.4,9353],[78.1,9436],[78.1,9520],[78,9603],[78,9686],[77.7,9770],[76.9,9853],[76.8,9936],[76.7,10020],[76.7,10103],[76.7,10186],[76.7,10270],[76.7,10353],[76.7,10437],[76.7,10520],[76.7,10603],[76.7,10687],[76.7,10770],[76.6,10853],[76.6,10937],[76.6,11020],[76.6,11103],[76.6,11187],[76.6,11270],[76.6,11354],[76.6,11437],[76.6,11520],[76.6,11604],[76.6,11687],[76.6,11770],[76.6,11854],[76.6,11937],[76.6,12020],[76.6,12104],[76.6,12188],[76.6,12270],[76.6,12354],[76.6,12437],[76.6,12521],[76.6,12604],[76.6,12687],[76.6,12771],[76.6,12854],[76.6,12937],[76.6,13021],[76.6,13104],[76.6,13187],[76.6,13271],[76.6,13354],[76.6,13438],[76.6,13521],[76.6,13604],[76.6,13688],[76.6,13771],[76.6,13855],[76.6,13939],[76.6,14021],[76.6,14105],[76.6,14188],[76.6,14271],[76.6,14355],[76.6,14438],[76.6,14521],[76.6,14605],[76.6,14688],[76.6,14771],[76.6,14855],[76.6,14939],[76.6,15022],[76.6,15105],[76.6,15188],[76.6,15272],[76.6,15355],[76.6,15439],[76.6,15522],[76.6,15605],[76.6,15689],[76.6,15772],[76.6,15855],[76.6,15939],[76.6,16022],[76.6,16105],[76.6,16189],[76.6,16272],[76.6,16355],[76.6,16439],[76.6,16522],[76.6,16605],[76.6,16689],[76.6,16772],[76.6,16856],[76.6,16939],[76.6,17022],[76.6,17106],[76.6,17189],[76.6,17273],[76.6,17356],[76.6,17439],[76.4,17523],[76.3,17606],[75.5,17689],[74.5,17773],[74.3,17856],[74.3,17939],[74.3,18023],[74.3,18106],[74.3,18190],[74.3,18273],[74.3,18356],[74.3,18440],[74.3,18523],[74.3,18606],[74.3,18690],[74.3,18773],[74.5,18856],[75.8,18940],[75.8,19023],[76.4,19107],[76.8,19190],[76.9,19273],[77.4,19357],[78.6,19441],[78.6,19523],[78.6,19610],[78.6,19690],[78.8,19773],[78.8,19857],[78.8,19940],[78.8,20023],[78.8,20107],[78.8,20190],[78.8,20273],[78.8,20357],[78.8,20440],[78.8,20524],[78.8,20607],[78.8,20690],[78.8,20774],[78.8,20857],[78.8,20941],[78.8,21024],[78.8,21107],[78.8,21191],[78.8,21274],[78.8,21357],[78.8,21441],[78.9,21524],[78.9,21607],[78.9,21691],[78.9,21774],[78.9,21857],[78.9,21941],[78.9,22024],[78.9,22108],[78.9,22191],[78.9,22274],[78.9,22358],[78.9,22441],[78.9,22525],[78.9,22608],[78.9,22691],[78.9,22774],[79,22858],[79,22941],[79,23025],[79,23108],[79,23192],[79,23275],[79,23358],[79,23441],[79,23525],[79,23609],[79,23692],[79,23775],[79,23858],[79,23942],[79,24025],[79,24108],[79,24192],[79,24275],[79.7,24358],[79.7,24442],[79.7,24525],[79.9,24609],[80.2,24692],[80.9,24775],[81.6,24859]]",1,0,1023.6092,1029.2678,73.75,1.9239,"[{""rating"":73.75,""responseTime"":1.9239000000952728}]",space,5.1174,,1029.2678,Half the time,50,1029.2702,,,[],,0,7,7,7,1,audio/Narrative7Situation7.wav,audio/Narrative8Situation7.wav,audio/Narrative5Situation7.wav,audio/Narrative6Situation7.wav,5,3,4,5,,,,,,,,,,,,,,,,,,,,,,,,,,,,,,,,,,,,,,,
,,,,,,62dc761564191bc28a87e7c7,2024-02-08_09h50.45.621,group3.1-3.2-social-tom,2023.2.2,Win32,60.60606061,65c5074098b851296ff0b7ed,65c5144580ce2dd1a455146e,,,,,,,,,,,,,,,,,,,,,,,,,,,,,1029.2704,2,audio/Narrative6Situation8.wav,1034.2796,,1034.2796,1041.1392,"[[999,7],[999,83],[999,166],[999,256],[999,333],[999,416],[999,517],[999,600],[999,683],[999,767],[999,850],[999,933],[999,1017],[999,1100],[999,1184],[999,1267],[999,1350],[999,1433],[999,1517],[999,1600],[999,1683],[999,1767],[999,1850],[999,1934],[999,2017],[999,2101],[999,2184],[999,2267],[999,2351],[999,2434],[50.1,2518],[52.5,2601],[71.1,2708],[83.6,2807],[83.8,2884],[84.9,2975],[85,3051],[85,3141],[85.2,3217],[85.5,3304],[85.7,3400],[85.7,3467],[85.7,3551],[85.7,3641],[85.7,3718],[85.7,3807],[85.7,3884],[85.7,3968],[85.7,4058],[85.7,4134],[85.7,4218],[86,4308],[86,4391],[86.1,4468],[86.1,4551],[86.1,4635],[86.1,4722],[86.1,4801],[86.1,4891],[86.1,4968],[86.1,5051],[86.1,5135],[86.1,5218],[86.1,5308],[86.1,5392],[86.1,5475],[86.1,5558],[86.1,5635],[86.1,5718],[86.1,5802],[86.1,5885],[86.1,5968],[86.1,6052],[86.1,6135],[86.1,6225],[86.1,6302],[86.1,6389],[86.1,6475],[86.1,6552],[86.1,6642],[86.1,6719],[86.1,6809]]",1,0,1041.1392,1043.0733,86.45833333,1.5501,"[{""rating"":90.72916666666666,""responseTime"":1.1998999998568252},{""rating"":86.45833333333333,""responseTime"":1.5500999999046599}]",space,1.4011,,1043.0734,Not at all,0,1043.0758,,,[],,0,8,8,8,1,audio/Narrative7Situation8.wav,audio/Narrative8Situation8.wav,audio/Narrative5Situation8.wav,audio/Narrative6Situation8.wav,2,3,3,5,,,,,,,,,,,,,,,,,,,,,,,,,,,,,,,,,,,,,,,
,,,,,,62dc761564191bc28a87e7c7,2024-02-08_09h50.45.621,group3.1-3.2-social-tom,2023.2.2,Win32,60.60606061,65c5074098b851296ff0b7ed,65c5144580ce2dd1a455146e,,,,,,,,,,,,,,,,,,,,,,,,,,,,,1043.076,2,audio/Narrative6Situation9.wav,1047.0909,,1047.0909,1057.0453,"[[85.4,3168],[85.1,3251],[85,3328],[84.9,3417],[84.9,3494],[84.9,3578],[84.9,3668],[84.9,3744],[84.9,3828],[84.9,3911],[84.9,3995],[84.9,4078],[84.9,4168],[84.9,4252],[84.9,4335],[84.8,4418],[84.8,4502],[84.8,4578],[84.7,4669],[84.7,4751],[84.7,4828],[84.6,4919],[84.3,5002],[83.6,5085],[82.9,5169],[82.2,5252],[81.3,5335],[80.5,5421],[80.2,5502],[79.9,5586],[79.6,5662],[79.4,5752],[79.2,5836],[79,5912],[78.8,5995],[78.5,6086],[78.2,6169],[78.1,6252],[78,6329],[78,6412],[77.9,6502],[77.8,6585],[77.7,6669],[77.5,6746],[77,6836],[76.8,6919],[76.6,6996],[76.5,7079],[76.4,7169],[65.5,7253],[27.4,7337],[20.8,7419],[17.5,7504],[13.6,7586],[8.6,7670],[4.8,7754],[3.5,7836],[3.3,7913],[3.2,8003],[3.1,8080],[3,8170],[0.8,8253]]",1,0,1057.0454,1060.213,50.41666667,1.1352,"[{""rating"":50.416666666666664,""responseTime"":1.1352000000476892}]",space,2.6347,,1060.2131,Half the time,50,1060.2155,,,[],,0,9,9,9,1,audio/Narrative7Situation9.wav,audio/Narrative8Situation9.wav,audio/Narrative5Situation9.wav,audio/Narrative6Situation9.wav,2,3,3,4,,,,,,,,,,,,,,,,,,,,,,,,,,,,,,,,,,,,,,,
,,,,,,62dc761564191bc28a87e7c7,2024-02-08_09h50.45.621,group3.1-3.2-social-tom,2023.2.2,Win32,60.60606061,65c5074098b851296ff0b7ed,65c5144580ce2dd1a455146e,,,,,,,,,,,,,,,,,,,,,,,,,,,,,1060.2158,2,audio/Narrative5Situation1.wav,1065.2247,,1065.2247,1078.5027,"[[42,2684],[42.3,2767],[42.8,2851],[45.4,2941],[46.6,3024],[47.2,3108],[48.3,3191],[49.6,3274],[50.7,3358],[51.7,3440],[51.8,3517],[51.8,3607],[51.8,3691],[51,3775],[50.6,3857],[49.8,3941],[49.5,4017],[49.5,4101],[49.5,4191],[49.6,4268],[49.7,4351],[45.3,4442],[42.3,4518],[25.7,4625],[23.2,4708],[19.9,4785],[16.3,4868],[16.3,4958],[16.6,5042],[16.6,5118],[16.6,5201],[16.6,5285],[16.6,5368],[16.6,5458],[16.6,5542],[16.6,5625],[16.6,5709],[16.5,5785],[16.4,5868],[16.3,5959],[16.3,6035],[16.3,6125],[16.1,6208],[16,6285],[16,6368],[15.9,6459],[15.9,6535],[15.6,6642],[15.6,6725],[15.5,6809],[15.5,6892],[15.5,6969],[15.9,7059],[16,7142],[16.3,7642],[16.1,7728],[16.1,7809],[16.1,7886],[16.1,7976],[16.1,8052],[16.1,8143],[16.3,8226],[16.3,8302],[16.3,8392],[16.3,8476],[16.3,8560],[16.3,8636],[16.3,8726],[16.3,8803],[16.3,8886],[16.3,8984],[16.4,9057],[16.4,9136],[16.4,9226],[16.5,9310],[16.5,9386],[16.6,9470],[16.6,9553],[16.7,9643],[16.7,9720],[16.7,9803],[16.7,9893],[16.7,9970],[16.7,10059],[16.7,10136],[16.7,10220],[16.7,10303],[16.8,10393],[16.8,10477],[16.8,10553],[16.8,10644],[16.8,10724],[16.8,10810],[16.8,10887],[16.8,10970],[16.8,11060],[16.8,11137],[16.8,11227],[16.8,11304],[16.8,11394],[16.8,11470],[16.8,11560],[16.8,11644],[16.8,11720],[16.8,11804],[16.8,11894],[16.8,11970],[16.8,12054],[16.8,12141],[16.8,12227],[16.8,12304],[16.8,12394],[16.8,12477],[16.8,12554],[16.8,12637],[16.8,12727],[16.8,12804],[16.8,12894],[16.8,12971],[16.8,13054],[16.8,13144],[16.8,13227]]",1,0,1078.5029,1083.5384,32.5,3.5831,"[{""rating"":32.5,""responseTime"":3.5831000001430766}]",space,4.5022,,1083.5389,Not at all,0,1083.5415,,,[],,0,10,10,10,1,audio/Narrative8Situation1.wav,audio/Narrative7Situation1.wav,audio/Narrative6Situation1.wav,audio/Narrative5Situation1.wav,5,2,2,5,,,,,,,,,,,,,,,,,,,,,,,,,,,,,,,,,,,,,,,
,,,,,,62dc761564191bc28a87e7c7,2024-02-08_09h50.45.621,group3.1-3.2-social-tom,2023.2.2,Win32,60.60606061,65c5074098b851296ff0b7ed,65c5144580ce2dd1a455146e,,,,,,,,,,,,,,,,,,,,,,,,,,,,,1083.5418,2,audio/Narrative5Situation2.wav,1086.5492,,1086.5493,1116.0271,"[[999,7],[999,83],[999,166],[999,249],[999,339],[999,416],[999,500],[999,589],[999,673],[999,750],[999,833],[999,916],[999,1000],[999,1083],[999,1173],[999,1250],[999,1333],[999,1417],[999,1500],[999,1583],[999,1667],[999,1750],[999,1833],[999,1917],[999,2024],[37.2,2125],[29.7,2457],[22.7,2541],[18.4,2625],[17,2707],[15,2791],[14.5,2874],[14.3,2957],[14.2,3034],[14,3124],[13.6,3201],[13.4,3291],[12.7,3374],[12.7,3451],[12.6,3534],[12.5,3635],[12.5,3717],[12.4,3801],[12.2,3884],[12.1,3968],[11.9,4051],[11.8,4134],[11.8,4218],[12.8,4301],[14,4384],[14.1,4468],[14.3,4558],[17.2,4641],[25.1,4725],[44.7,4808],[55.5,4891],[59.1,4975],[67.8,5058],[79.4,5142],[80.2,5225],[80.7,5308],[81.7,5401],[81.7,5485],[81.7,5568],[81.7,5651],[81.7,5735],[81.7,5818],[81.7,5902],[81.7,5985],[81.7,6068],[81.7,6152],[81.7,6235],[81.7,6318],[81.7,6402],[81.7,6485],[81.7,6568],[81.7,6652],[81.7,6735],[81.6,6819],[81.4,6902],[80.8,6985],[80.7,7069],[80.7,7152],[80.7,7235],[80.6,7319],[66.8,7402],[42.7,7486],[41.4,7569],[40.6,7653],[33.5,7736],[7.4,7819],[7.4,7902],[1.9,7986],[1.9,8069],[5.4,8153],[6.8,8236],[6.8,8319],[6.8,8402],[6.8,8486],[6.8,8569],[6.8,8653],[6.8,8736],[6.8,8819],[6.8,8903],[6.8,8986],[6.8,9069],[6.8,9153],[6.8,9236],[6.8,9320],[6.8,9403],[6.8,9486],[6.8,9570],[6.8,9653],[6.8,9736],[6.8,9820],[6.8,9903],[6.8,9986],[6.8,10070],[6.8,10153],[6.8,10237],[6.8,10320],[6.8,10403],[6.8,10487],[6.8,10570],[6.8,10653],[7.3,10737],[7.9,10820],[8,10903],[8.1,10987],[8.2,11070],[8.2,11153],[8.2,11237],[8.2,11320],[8.2,11404],[8.2,11487],[8.2,11571],[8.2,11654],[8.2,11737],[8.2,11820],[8.2,11904],[8.2,11987],[8.2,12070],[14.1,12157],[35.6,12238],[52.4,12321],[54.7,12404],[57.4,12488],[60.7,12571],[63.2,12654],[63.3,12737],[63.3,12821],[63.4,12904],[63.5,12988],[63.6,13071],[64.2,13154],[65.2,13238],[67.4,13321],[70,13404],[70.5,13488],[70.6,13571],[70.6,13654],[70.6,13738],[70.7,13821],[70.7,13904],[70.7,13988],[70.7,14071],[70.7,14155],[70.7,14238],[70.8,14321],[70.8,14405],[70.8,14488],[70.8,14572],[70.8,14655],[70.8,14738],[70.8,14822],[70.8,14905],[70.8,14988],[70.8,15072],[70.8,15155],[71.1,15238],[71.1,15322],[71.7,15406],[72.8,15489],[74.9,15572],[75,15655],[75,15738],[75,15822],[75,15905],[75,15989],[75,16072],[75,16155],[75,16239],[75,16322],[75,16406],[75,16489],[75,16574],[75,16656],[75,16739],[75,16822],[75,16906],[75,16989],[75,17072],[75,17156],[75,17239],[75,17322],[75,17406],[75.1,17489],[75.1,17573],[75.1,17656],[75.1,17739],[75.1,17823],[75.1,17906],[75.1,17989],[75.1,18073],[75.1,18156],[75.1,18239],[75.1,18323],[75.1,18406],[75.1,18490],[75.1,18573],[75.1,18656],[75.1,18740],[75.1,18823],[75.1,18906],[75.1,18990],[75.1,19073],[75.1,19156],[75.1,19240],[75.1,19323],[75.1,19407],[75.1,19490],[75.1,19573],[75.1,19657],[75.1,19740],[75.1,19824],[75.1,19907],[75.1,19990],[75.1,20074],[75.1,20157],[75.1,20240],[75.1,20324],[75.1,20407],[75.1,20490],[75.1,20574],[75.1,20657],[75.1,20740],[75.1,20824],[75.1,20907],[75.1,20991],[75.1,21074],[75.1,21157],[75.1,21241],[75.1,21324],[75.1,21407],[75.1,21491],[75.1,21574],[75.1,21657],[75.1,21741],[75.1,21824],[75.1,21908],[75.1,21991],[75.1,22074],[75.1,22158],[75.1,22241],[75.1,22324],[75.1,22408],[75.1,22491],[75.1,22574],[75.1,22658],[75.1,22741],[75.1,22825],[75.1,22908],[75.1,22991],[75.1,23075],[75.1,23158],[75.1,23241],[75.1,23325],[75.1,23408],[75.1,23491],[75.1,23575],[75.1,23658],[75.1,23741],[75.1,23825],[75.1,23908],[75.1,23992],[75.1,24075],[75.1,24158],[75.1,24242],[75.1,24325],[75.1,24409],[75.1,24494],[75.1,24575],[75.1,24658],[75.1,24742],[75.1,24825],[75.1,24909],[75.1,24992],[75.1,25075],[75.1,25159],[75.1,25242],[75.1,25326],[75.1,25409],[75.1,25492],[75.1,25576],[75.1,25659],[75.1,25742],[75.1,25826],[75.1,25909],[75.1,25992],[75.1,26076],[75.1,26159],[75.1,26242],[75.1,26326],[75.1,26409],[75.1,26493],[75.1,26576],[75.1,26659],[75.1,26743],[75.1,26826],[75.1,26909],[75.1,26993],[75.1,27076],[75.1,27159],[75.1,27243],[75.1,27326],[75.1,27410],[75.1,27493],[75.1,27576],[75.1,27660],[75.1,27743],[75.1,27826],[75.1,27910],[75.1,27993],[75.1,28077],[75.1,28160],[75.1,28243],[75.1,28327],[75.1,28410],[75.1,28493],[75.1,28577],[75.1,28660],[75.1,28745],[75.1,28827],[75.1,28910],[75.1,28993],[75.1,29077],[75.1,29160],[75.1,29244],[75.1,29327],[75.4,29411]]",1,0,1116.0273,1120.169,87.60416667,2.7407,"[{""rating"":87.60416666666666,""responseTime"":2.740700000047582}]",space,3.6016,,1120.1691,Not at all,0,1120.1705,,,[],,0,11,11,11,1,audio/Narrative8Situation2.wav,audio/Narrative7Situation2.wav,audio/Narrative6Situation2.wav,audio/Narrative5Situation2.wav,3,3,3,3,,,,,,,,,,,,,,,,,,,,,,,,,,,,,,,,,,,,,,,
,,,,,,62dc761564191bc28a87e7c7,2024-02-08_09h50.45.621,group3.1-3.2-social-tom,2023.2.2,Win32,60.60606061,65c5074098b851296ff0b7ed,65c5144580ce2dd1a455146e,,,,,,,,,,,,,,,,,,,,,,,,,,,,,1120.1708,2,audio/Narrative5Situation3.wav,1123.1797,,1123.1797,1137.0849,"[[999,0],[999,89],[999,166],[999,249],[999,333],[999,416],[999,500],[999,589],[999,673],[999,750],[999,833],[999,916],[999,1006],[999,1083],[999,1166],[999,1250],[999,1339],[999,1423],[999,1500],[999,1589],[999,1666],[999,1750],[999,1833],[999,1917],[999,2006],[999,2090],[999,2173],[999,2250],[999,2333],[999,2417],[999,2504],[999,2584],[999,2674],[999,2750],[999,2834],[999,2917],[999,3007],[999,3090],[999,3174],[999,3250],[999,3341],[999,3417],[999,3507],[999,3584],[999,3667],[999,3758],[999,3835],[999,3924],[999,4005],[999,4084],[999,4167],[999,4258],[999,4334],[999,4418],[999,4508],[999,4591],[999,4668],[999,4751],[999,4834],[999,4918],[999,5001],[999,5084],[999,5174],[999,5251],[999,5335],[999,5418],[999,5508],[999,5591],[999,5675],[999,5752],[999,5841],[999,5918],[999,6008],[999,6085],[999,6168],[999,6259],[999,6342],[999,6418],[999,6501],[999,6585],[999,6675],[999,6752],[999,6835],[999,6925],[999,7002],[999,7092],[999,7175],[999,7258],[999,7335],[999,7419],[999,7502],[999,7592],[999,7669],[999,7752],[999,7836],[999,7926],[999,8002],[999,8086],[999,8175],[999,8259],[999,8336],[999,8425],[999,8502],[999,8586],[999,8669],[999,8753],[999,8836],[999,8943],[999,9019],[999,9102],[999,9186],[999,9269],[999,9353],[999,9436],[999,9519],[999,9603],[999,9686],[999,9769],[999,9853],[999,9936],[999,10020],[999,10103],[999,10186],[999,10270],[999,10353],[999,10436],[999,10520],[999,10603],[999,10687],[999,10770],[999,10853],[999,10937],[999,11020],[999,11104],[999,11187],[999,11270],[999,11354],[999,11437],[999,11520],[999,11604],[999,11687],[999,11770],[999,11854],[999,11937],[999,12020],[999,12104],[999,12187],[999,12270],[999,12354],[999,12437],[999,12520],[999,12604],[999,12687],[999,12771],[999,12854],[999,12937],[999,13021],[999,13104],[999,13187],[999,13271],[999,13354],[999,13438],[999,13521],[999,13604],[999,13688],[999,13771],[999,13854]]",1,0,1137.085,1140.4595,50.83333333,3.1205,"[{""rating"":40.9375,""responseTime"":2.635100000142984},{""rating"":50.83333333333333,""responseTime"":3.1204999999999927}]",space,2.8367,,1140.4595,Not at all,0,1140.4616,,,[],,0,12,12,12,1,audio/Narrative8Situation3.wav,audio/Narrative7Situation3.wav,audio/Narrative6Situation3.wav,audio/Narrative5Situation3.wav,4,8,5,3,,,,,,,,,,,,,,,,,,,,,,,,,,,,,,,,,,,,,,,
,,,,,,62dc761564191bc28a87e7c7,2024-02-08_09h50.45.621,group3.1-3.2-social-tom,2023.2.2,Win32,60.60606061,65c5074098b851296ff0b7ed,65c5144580ce2dd1a455146e,,,,,,,,,,,,,,,,,,,,,,,,,,,,,1140.4619,2,audio/Narrative5Situation4.wav,1141.4697,,1141.4698,1161.8673,"[[52.2,423],[52.1,506],[52.1,583],[52.1,673],[52.1,756],[52,833],[51.9,923],[51.6,1007],[51.4,1090],[51.3,1166],[51.3,1256],[51.3,1340],[51.3,1417],[51.3,1507],[51.3,1583],[51.1,1667],[51.1,1750],[51.1,1833],[51.1,1917],[51.1,2007],[51.1,2091],[41.5,2174],[36.3,2258],[29.6,2341],[27.1,2424],[20.7,2508],[13.1,2591],[11.8,2674],[10.4,2767],[10.3,2850],[10.3,2934],[10.3,3017],[10.3,3100],[10.3,3184],[10.3,3267],[10.3,3350],[10.3,3434],[10.3,3517],[10.3,3601],[10.3,3684],[10.3,3767],[10.1,3851],[9.5,3934],[6.7,4018],[6.7,4101],[6.7,4184],[6.7,4268],[6.7,4351],[6.7,4434],[6.7,4518],[6.7,4601],[6.7,4684],[6.7,4768],[5.3,4851],[5.3,4934],[5.3,5018],[5.3,5108],[8.8,5192],[35.3,5275],[56.7,5375],[66.4,5460],[71.1,5541],[73.5,5625],[75.7,5709],[76,5792],[76,5868],[76,5958],[76,6035],[76,6118],[76,6201],[76.1,6291],[76.1,6368],[76.1,6452],[76.1,6542],[76.1,6618],[76.1,6709],[76.1,6785],[76.1,6868],[76.1,6952],[76.1,7035],[76.1,7126],[76.1,7209],[76.1,7285],[76.1,7375],[76.1,7452],[76.1,7542],[76.1,7625],[76.1,7702],[76.1,7792],[76.1,7876],[76.1,7959],[76.1,8042],[76.1,8119],[76.1,8202],[76.1,8293],[76.1,8376],[76.1,8459],[76.1,8543],[76.1,8619],[76.1,8709],[76.1,8790],[76.1,8869],[76.1,8959],[76.1,9060],[76.1,9136],[76.1,9219],[76.1,9303],[76.1,9386],[76.1,9469],[76.1,9553],[76.1,9636],[76.1,9720],[76.1,9803],[76.1,9886],[76.1,9970],[76.1,10053],[76.1,10136],[76.1,10220],[76.1,10303],[76.1,10386],[76.1,10470],[76.1,10553],[76.1,10636],[76.1,10720],[76.1,10803],[76.1,10887],[76.1,10970],[76.1,11053],[76.1,11137],[76.1,11220],[76.1,11303],[76.1,11387],[76.7,11471],[77.3,11554],[77.7,11637],[77.7,11720],[77.7,11804],[77.7,11887],[77.7,11970],[77.7,12054],[77.7,12137],[77.7,12220],[77.7,12304],[77.7,12387],[77.7,12471],[77.7,12554],[77.7,12637],[77.7,12721],[77.7,12804],[77.7,12887],[77.7,12971],[77.7,13054],[77.7,13137],[77.7,13221],[77.7,13304],[77.7,13388],[77.7,13471],[77.7,13554],[77.7,13638],[77.7,13721],[77.7,13804],[77.7,13888],[77.7,13971],[77.7,14055],[77.7,14138],[77.7,14221],[77.7,14304],[77.7,14388],[77.7,14471],[77.7,14555],[77.7,14638],[77.7,14721],[77.7,14805],[77.7,14889],[77.7,14972],[77.7,15055],[77.7,15138],[77.7,15222],[77.7,15305],[77.7,15388],[77.7,15472],[77.7,15555],[77.7,15638],[77.7,15722],[77.7,15805],[77.7,15889],[77.7,15972],[77.7,16055],[77.7,16139],[77.7,16222],[77.7,16305],[77.7,16389],[77.7,16472],[77.7,16555],[77.7,16639],[77.7,16722],[77.7,16805],[77.7,16889],[77.7,16972],[77.7,17056],[77.7,17139],[77.7,17222],[77.8,17306],[77.8,17389],[77.8,17472],[77.8,17556],[77.8,17639],[77.8,17722],[77.8,17806],[77.8,17889],[77.8,17973],[77.9,18056],[77.9,18140],[77.9,18223],[75.1,18306],[72.6,18390],[70.5,18473],[66.5,18564],[60.1,18664],[57.4,18747],[54.5,18831],[53.9,18930],[36.3,19014],[30.2,19097],[28,19173],[24.1,19263],[21.5,19347],[20.2,19430],[17.8,19514],[16.4,19597],[15.4,19681],[14.8,19764],[14.8,19846],[14.8,19930],[14.8,20007],[14.8,20096],[14.8,20180],[14.8,20257],[14.8,20347]]",1,0,1161.8675,1168.363,59.6875,6.4941,"[{""rating"":59.68750000000001,""responseTime"":6.49409999990462}]",space,2.7686,,1168.3631,All the time,100,1168.3657,,,[],,0,13,13,13,1,audio/Narrative8Situation4.wav,audio/Narrative7Situation4.wav,audio/Narrative6Situation4.wav,audio/Narrative5Situation4.wav,3,3,2,1,,,,,,,,,,,,,,,,,,,,,,,,,,,,,,,,,,,,,,,
,,,,,,62dc761564191bc28a87e7c7,2024-02-08_09h50.45.621,group3.1-3.2-social-tom,2023.2.2,Win32,60.60606061,65c5074098b851296ff0b7ed,65c5144580ce2dd1a455146e,,,,,,,,,,,,,,,,,,,,,,,,,,,,,1168.366,2,audio/Narrative5Situation5.wav,1173.3885,,1173.3885,1188.8206,"[[999,7],[999,76],[999,159],[999,249],[999,326],[999,409],[999,500],[999,576],[999,663],[999,747],[999,833],[999,909],[999,993],[999,1083],[999,1160],[999,1250],[999,1326],[999,1410],[999,1500],[999,1576],[999,1666],[999,1743],[999,1826],[999,1917],[999,1993],[999,2083],[999,2160],[999,2251],[999,2333],[49.7,2417],[50.2,2500],[50.5,2585],[50.7,2667],[50.7,2743],[50.7,2827],[50.7,2917],[50.7,2993],[50.7,3077],[50.7,3161],[50.7,3250],[50.6,3327],[50.6,3410],[50.5,3501],[50.4,3584],[50.3,3660],[50.3,3744],[50.3,3827],[50.3,3910],[50.3,3994],[50.3,4081],[46.4,4168],[34.7,4252],[29.1,4334],[24.5,4418],[19.9,4507],[14.6,4585],[12.8,4668],[12.8,4751],[12.8,4828],[12.8,4911],[12.8,5001],[12.8,5078],[12.8,5167],[12.8,5251],[12.8,5328],[12.8,5418],[12.8,5494],[12.8,5588],[12.8,5668],[12.8,5745],[12.8,5828],[12.8,5919],[12.8,6001],[12.8,6078],[12.8,6166],[12.8,6245],[12.8,6328],[12.8,6411],[13.2,6502],[15.3,6585],[17,6669],[18.1,6750],[25.5,6836],[28.5,6919],[35.7,7003],[44.9,7086],[50.9,7169],[56,7245],[63.6,7352],[72.6,7436],[77.3,7519],[79.9,7602],[97,7686],[100,7769],[100,7852],[100,7929],[100,8019],[100,8102],[100,8186],[100,8262],[100,8352],[100,8429],[100,8512],[100,8602],[100,8679],[100,8769],[100,8846],[100,8929],[100,9019],[100,9096],[100,9179],[100,9263],[100,9352],[100,9436],[100,9513],[100,9603],[100,9679],[100,9763],[100,9852],[100,9934],[100,10029],[100,10113],[100,10196],[100,10279],[100,10363],[100,10446],[100,10530],[100,10613],[100,10696],[100,10780],[100,10863],[100,10946],[100,11030],[100,11113],[100,11197],[100,11280],[100,11363],[100,11447],[100,11530],[100,11613],[100,11697],[100,11780],[100,11863],[100,11947],[100,12033],[100,12114],[100,12197],[100,12280],[100,12364],[100,12447],[100,12530],[100,12614],[100,12697],[100,12781],[100,12864],[100,12954],[100,13031],[100,13114],[100,13197],[100,13281],[100,13364],[100,13447],[100,13531],[100,13614],[100,13697],[100,13781],[100,13864],[100,13948],[100,14031],[100,14114],[100,14198],[100,14281],[100,14364],[100,14448],[100,14531],[100,14614],[100,14698],[100,14781],[100,14865],[100,14948],[100,15031],[100,15115],[100,15198],[100,15281],[100,15365]]",1,0,1188.8207,1192.4287,77.1875,3.3173,"[{""rating"":64.6875,""responseTime"":2.543400000095289},{""rating"":77.1875,""responseTime"":3.3172999999521835}]",space,3.0778,,1192.4287,Half the time,50,1192.4318,,,[],,0,14,14,14,1,audio/Narrative8Situation5.wav,audio/Narrative7Situation5.wav,audio/Narrative6Situation5.wav,audio/Narrative5Situation5.wav,2,5,2,5,,,,,,,,,,,,,,,,,,,,,,,,,,,,,,,,,,,,,,,
