exp_question,consent.started,consent.stopped,consentResponse.keys,consentResponse.rt,consentResponse.duration,participantID,date,expName,psychopyVersion,OS,frameRate,STUDY_ID,SESSION_ID,opening1.started,opening1.stopped,keyEndingOpening1.keys,keyEndingOpening1.rt,keyEndingOpening1.duration,volumeAdjust.started,volumeAdjust.stopped,endingAdjust.keys,endingAdjust.rt,endingAdjust.duration,opening2.started,opening2.stopped,keyEndingOpening.keys,keyEndingOpening.rt,keyEndingOpening.duration,mouse.x,mouse.y,mouse.leftButton,mouse.midButton,mouse.rightButton,mouse.time,instructionLoop.thisRepN,instructionLoop.thisTrialN,instructionLoop.thisN,instructionLoop.thisIndex,instructionLoop.ran,readyForAudio.started,readyForAudio.stopped,fixation.started,run,audio_played,fixation.stopped,endPractice.keys,audioPre.started,audioPre.stopped,continuousResponses_audio,continuousSlider.response,continuousSlider.rt,intRating.started,intRating.stopped,intQuestionSlider.response,intQuestionSlider.rt,intQuestionSlider.history,confirmResponse.keys,confirmResponse.rt,confirmResponse.duration,catchQuestion.started,catch_label,catch_value,catchQuestion.stopped,catchQuestionSlider.response,catchQuestionSlider.rt,catchQuestionSlider.history,confirmResponse_2.keys,audioRunLoop.thisRepN,audioRunLoop.thisTrialN,audioRunLoop.thisN,audioRunLoop.thisIndex,audioRunLoop.ran,conditions1_1,conditions2_1,conditions1_2,conditions2_2,dur1_1,dur2_1,dur1_2,dur2_2,endPractice.rt,endPractice.duration,confirmResponse_2.rt,confirmResponse_2.duration,runIntervalBreak.started,runIntervalBreak.stopped,endingBreakKey.keys,endingBreakKey.rt,endingBreakKey.duration,connection.started,connection.stopped,connectionEnding.keys,connectionEnding.rt,connectionEnding.duration,readyForText.started,readyForText.stopped,textPre.started,run_dup,textPre.stopped,continuousResponses_text,textRunLoop.thisRepN,textRunLoop.thisTrialN,textRunLoop.thisN,textRunLoop.thisIndex,textRunLoop.ran,text1_1,text1_2,text2_1,text2_2,runBreakText.started,runBreakText.stopped,endingBreakKey_2.keys,endingBreakKey_2.rt,endingBreakKey_2.duration,ending.started,ending.stopped,endingEnding.keys,endingEnding.rt,endingEnding.duration
social,0,5.236,y,4.918,,62fbdda6e4b5a034b71296f8,2024-02-08_15h03.55.213,group3.1-3.2-social-tom,2023.2.2,Win32,146.1988304,65c5074098b851296ff0b7ed,65c5416c80ce2dd1a4552242,,,,,,,,,,,,,,,,,,,,,,,,,,,,,,,,,,,,,,,,,,,,,,,,,,,,,,,,,,,,,,,,,,,,,,,,,,,,,,,,,,,,,,,,,,,,,,,,,,,,,,,,,,
,,,,,,62fbdda6e4b5a034b71296f8,2024-02-08_15h03.55.213,group3.1-3.2-social-tom,2023.2.2,Win32,146.1988304,65c5074098b851296ff0b7ed,65c5416c80ce2dd1a4552242,5.237,8.85,space,3.589,,,,,,,,,,,,,,,,,,,,,,,,,,,,,,,,,,,,,,,,,,,,,,,,,,,,,,,,,,,,,,,,,,,,,,,,,,,,,,,,,,,,,,,,,,,,,,,,,,,,,,
,,,,,,62fbdda6e4b5a034b71296f8,2024-02-08_15h03.55.213,group3.1-3.2-social-tom,2023.2.2,Win32,146.1988304,65c5074098b851296ff0b7ed,65c5416c80ce2dd1a4552242,,,,,,8.85,24.781,space,15.62,,,,,,,,,,,,,,,,,,,,,,,,,,,,,,,,,,,,,,,,,,,,,,,,,,,,,,,,,,,,,,,,,,,,,,,,,,,,,,,,,,,,,,,,,,,,,,,,,
,,,,,,62fbdda6e4b5a034b71296f8,2024-02-08_15h03.55.213,group3.1-3.2-social-tom,2023.2.2,Win32,146.1988304,65c5074098b851296ff0b7ed,65c5416c80ce2dd1a4552242,,,,,,,,,,,24.785,37.225,space,12.418,,[],[],[],[],[],[],0,0,0,0,1,,,,,,,,,,,,,,,,,,,,,,,,,,,,,,,,,,,,,,,,,,,,,,,,,,,,,,,,,,,,,,,,,,,,,,,,,,,,,,,,
,,,,,,62fbdda6e4b5a034b71296f8,2024-02-08_15h03.55.213,group3.1-3.2-social-tom,2023.2.2,Win32,146.1988304,65c5074098b851296ff0b7ed,65c5416c80ce2dd1a4552242,,,,,,,,,,,37.226,54.297,space,17.011,,[],[],[],[],[],[],1,0,1,0,1,,,,,,,,,,,,,,,,,,,,,,,,,,,,,,,,,,,,,,,,,,,,,,,,,,,,,,,,,,,,,,,,,,,,,,,,,,,,,,,,
,,,,,,62fbdda6e4b5a034b71296f8,2024-02-08_15h03.55.213,group3.1-3.2-social-tom,2023.2.2,Win32,146.1988304,65c5074098b851296ff0b7ed,65c5416c80ce2dd1a4552242,,,,,,,,,,,54.297,79.373,space,25.043,,[],[],[],[],[],[],2,0,2,0,1,,,,,,,,,,,,,,,,,,,,,,,,,,,,,,,,,,,,,,,,,,,,,,,,,,,,,,,,,,,,,,,,,,,,,,,,,,,,,,,,
,,,,,,62fbdda6e4b5a034b71296f8,2024-02-08_15h03.55.213,group3.1-3.2-social-tom,2023.2.2,Win32,146.1988304,65c5074098b851296ff0b7ed,65c5416c80ce2dd1a4552242,,,,,,,,,,,79.373,120.838,space,41.439,,[],[],[],[],[],[],3,0,3,0,1,,,,,,,,,,,,,,,,,,,,,,,,,,,,,,,,,,,,,,,,,,,,,,,,,,,,,,,,,,,,,,,,,,,,,,,,,,,,,,,,
,,,,,,62fbdda6e4b5a034b71296f8,2024-02-08_15h03.55.213,group3.1-3.2-social-tom,2023.2.2,Win32,146.1988304,65c5074098b851296ff0b7ed,65c5416c80ce2dd1a4552242,,,,,,,,,,,120.839,135.485,space,14.628,,[],[],[],[],[],[],4,0,4,0,1,,,,,,,,,,,,,,,,,,,,,,,,,,,,,,,,,,,,,,,,,,,,,,,,,,,,,,,,,,,,,,,,,,,,,,,,,,,,,,,,
,,,,,,62fbdda6e4b5a034b71296f8,2024-02-08_15h03.55.213,group3.1-3.2-social-tom,2023.2.2,Win32,146.1988304,65c5074098b851296ff0b7ed,65c5416c80ce2dd1a4552242,,,,,,,,,,,,,,,,,,,,,,,,,,,135.486,138.062,138.072,1,audio/Narrative13Situation2.wav,140.076,,140.076,169.815,"[[999,2],[999,98],[999,198],[999,279],[999,376],[999,459],[999,556],[999,654],[999,739],[999,841],[999,925],[999,1023],[999,1112],[999,1195],[999,1296],[999,1376],[999,1475],[999,1572],[999,1654],[999,1754],[999,1844],[999,1925],[999,2022],[999,2106],[999,2203],[999,2303],[999,2384],[999,2481],[999,2565],[999,2655],[999,2752],[999,2836],[999,2933],[999,3016],[999,3114],[999,3211],[999,3294],[999,3384],[999,3468],[999,3565],[999,3663],[999,3748],[999,3843],[999,3927],[999,4024],[999,4114],[999,4197],[999,4288],[999,4372],[999,4468],[999,4566],[999,4649],[999,4746],[999,4834],[999,4927],[999,5010],[999,5094],[999,5191],[999,5274],[999,5372],[999,5469],[999,5553],[999,5650],[999,5752],[999,5831],[999,5927],[999,6011],[999,6108],[999,6206],[999,6288],[999,6386],[999,6469],[999,6567],[999,6664],[999,6747],[999,6844],[999,6928],[999,7025],[999,7122],[999,7206],[999,7303],[999,7395],[999,7484],[999,7581],[999,7664],[999,7761],[999,7859],[999,7943],[999,8033],[999,8116],[999,8213],[999,8304],[999,8387],[999,8484],[999,8568],[999,8665],[999,8762],[999,8848],[55.5,8943],[54,9026],[53.1,9131],[53.1,9228],[53.1,9312],[56.3,9409],[59.7,9505],[59.9,9588],[59.9,9686],[60.1,9770],[60.1,9867],[60.7,9963],[60.7,10047],[60.7,10145],[60.7,10229],[59.9,10325],[56.9,10423],[56.9,10506],[57.1,10604],[57.6,10704],[55.9,10784],[55.7,10881],[63.3,10965],[73.7,11063],[77.5,11160],[78.5,11243],[81.5,11340],[81.7,11425],[81.7,11521],[85.5,11618],[87.6,11701],[88.3,11799],[90.2,11882],[90.9,11979],[92.3,12076],[92.9,12160],[94.8,12257],[96.7,12349],[97.2,12431],[97.5,12528],[97.5,12612],[97.5,12709],[97.5,12806],[97.7,12890],[98,12987],[98.1,13070],[97.8,13161],[96.8,13259],[96.8,13341],[96.8,13438],[96.8,13521],[96.8,13619],[96.8,13717],[96.9,13800],[97.2,13890],[98,13974],[99.1,14070],[99.1,14168],[99.1,14251],[99.1,14349],[99.1,14432],[99.1,14530],[99.1,14620],[99.1,14703],[99.1,14800],[99.1,14883],[99.1,14981],[99.1,15078],[99.1,15162],[99.1,15259],[99.1,15356],[99.1,15440],[99.1,15536],[99.1,15620],[99.1,15717],[99.1,15815],[99.1,15898],[99.1,15995],[99.1,16078],[99.1,16169],[99.1,16266],[98.8,16350],[98.8,16453],[98.8,16546],[98.8,16635],[98.8,16732],[98.8,16815],[98.8,16912],[98.8,17000],[98.8,17079],[98.8,17177],[97.6,17259],[95.2,17357],[94,17449],[91.6,17537],[90.3,17628],[89.7,17712],[89.5,17809],[89,17900],[87.9,17989],[86.9,18087],[85.9,18170],[85,18268],[85,18358],[85,18442],[85,18538],[85,18621],[85,18719],[85,18810],[85,18892],[85,18989],[85,19074],[85,19163],[85,19262],[85,19344],[85,19441],[85,19526],[85,19608],[85,19693],[85,19775],[85,19865],[85,19949],[85,20046],[85,20129],[85,20226],[85,20323],[84.8,20407],[83.9,20505],[83.5,20588],[83.5,20678],[83.5,20776],[83,20859],[81.9,20956],[81.5,21047],[81.5,21137],[81.5,21234],[81.5,21317],[80.6,21415],[79.9,21512],[79.9,21596],[79.9,21693],[79.2,21776],[79.1,21874],[79.6,21970],[81.4,22054],[83,22144],[84.4,22228],[86.1,22325],[87.7,22422],[89.5,22506],[90.7,22603],[91.2,22687],[91.2,22783],[91.6,22875],[91.9,22957],[91.9,23055],[91.9,23138],[91.9,23235],[91.9,23333],[91.9,23416],[91.9,23513],[91.9,23610],[91.9,23693],[91.9,23791],[91.9,23874],[91.9,23971],[91.9,24069],[91.9,24152],[91.9,24250],[91.9,24332],[91.9,24424],[91.9,24521],[91.9,24603],[91.9,24701],[91.9,24784],[91.9,24881],[91.9,24979],[91.9,25062],[91.9,25152],[91.9,25236],[91.9,25333],[91.9,25430],[91.9,25514],[91.9,25611],[91.9,25702],[91.9,25792],[91.9,25882],[91.9,25966],[91.9,26062],[91.9,26154],[91.9,26243],[91.6,26341],[90.4,26424],[90,26522],[90,26619],[90,26702],[90,26799],[90,26883],[90,26980],[90,27077],[90,27160],[90,27260],[90,27342],[90,27432],[90,27529],[90,27613],[90,27710],[90,27812],[90,27897],[90,27994],[90,28079],[90,28175],[90,28274],[90,28357],[90,28453],[90,28536],[90,28641],[90,28738],[90,28820],[90,28918],[90,29017],[90,29099],[90,29195],[90,29279],[90,29379],[90,29474],[90,29557],[90,29655],[90,29739]]",1,0,169.815,176.352,89.94186047,4.15,"[{""rating"":89.94186046511628,""responseTime"":4.150000000000006}]",space,6.015,,176.352,Not at all,0,176.355,,,[],,0,0,0,0,1,audio/Narrative13Situation2.wav,audio/Narrative13Situation2.wav,audio/Narrative13Situation2.wav,audio/Narrative13Situation2.wav,2,2,2,2,,,,,,,,,,,,,,,,,,,,,,,,,,,,,,,,,,,,,,,
,,,,,,62fbdda6e4b5a034b71296f8,2024-02-08_15h03.55.213,group3.1-3.2-social-tom,2023.2.2,Win32,146.1988304,65c5074098b851296ff0b7ed,65c5416c80ce2dd1a4552242,,,,,,,,,,,,,,,,,,,,,,,,,,,,,176.356,1,audio/Narrative7Situation1.wav,179.243,space,179.243,235.12,"[[999,1],[999,97],[999,181],[999,278],[999,375],[999,459],[999,556],[999,648],[999,730],[999,826],[999,909],[999,1008],[999,1105],[999,1188],[999,1284],[999,1368],[999,1466],[999,1564],[999,1647],[999,1743],[999,1826],[999,1925],[999,2014],[999,2098],[999,2188],[999,2272],[999,2369],[999,2466],[999,2549],[999,2647],[999,2731],[999,2826],[999,2918],[999,3001],[999,3099],[999,3182],[999,3278],[999,3376],[999,3460],[999,3558],[999,3656],[999,3737],[999,3836],[999,3919],[999,4016],[999,4113],[999,4197],[999,4293],[999,4378],[999,4474],[999,4570],[28.5,4656],[29.5,4753],[30.1,4835],[30.1,4933],[28.7,5030],[26.9,5113],[26.7,5211],[26.7,5308],[26.4,5392],[26,5489],[25.7,5573],[25.3,5670],[24.1,5767],[22.7,5850],[23,5947],[23,6030],[23.1,6128],[23.1,6225],[23.1,6308],[23.1,6406],[23.1,6489],[23.1,6580],[23.1,6677],[23.1,6760],[23.1,6858],[23.1,6949],[23.1,7038],[24,7136],[24.7,7219],[25.5,7316],[25.8,7413],[25.9,7497],[25.9,7600],[25.9,7685],[25.9,7782],[26.6,7879],[30.3,7963],[33.5,8058],[37.6,8159],[41,8241],[45.3,8337],[46.9,8421],[48.2,8518],[49,8616],[49.2,8699],[49.2,8796],[49.7,8879],[50.3,8977],[50.5,9074],[50.5,9158],[50.5,9255],[50.5,9338],[50.5,9436],[50.5,9533],[50.5,9616],[50.5,9713],[50.5,9811],[51.6,9894],[52.6,9991],[52.7,10075],[52.7,10175],[53.2,10270],[54,10353],[54.8,10449],[54.9,10533],[54.9,10631],[54.9,10728],[54.9,10811],[54.9,10908],[54.9,11000],[54.9,11088],[54.9,11186],[54.9,11269],[54.9,11374],[54.9,11471],[54.9,11555],[54.9,11652],[54.9,11735],[54.9,11832],[54.9,11930],[54.9,12016],[54.9,12111],[54.9,12201],[54.9,12290],[54.9,12381],[54.9,12463],[54.9,12562],[54.9,12653],[54.9,12745],[54.9,12840],[54.9,12923],[54.9,13021],[56.5,13118],[58.4,13201],[59.9,13299],[60.1,13381],[60.3,13482],[60.8,13576],[61.7,13659],[63.1,13757],[64.1,13840],[65.1,13938],[66,14034],[66.7,14118],[66.7,14216],[67,14313],[68.7,14396],[68.9,14494],[68.9,14576],[68.9,14667],[69.5,14764],[71.3,14848],[73.3,14945],[73.4,15028],[74.5,15125],[76.6,15223],[76.9,15307],[78.1,15403],[78.2,15487],[78.7,15585],[79.2,15682],[79.2,15765],[79.7,15862],[80.3,15962],[80.3,16043],[80.3,16133],[80.3,16216],[80.3,16314],[80.3,16413],[80.3,16495],[80.3,16592],[80.3,16675],[80.3,16772],[80.3,16869],[80.3,16953],[80.3,17051],[80.3,17134],[80.3,17231],[80.3,17328],[80.3,17412],[80.5,17502],[80.9,17586],[81.6,17676],[81.9,17773],[82.2,17856],[83,17953],[83.1,18037],[83.1,18134],[83.1,18231],[83.1,18314],[83.1,18405],[83.1,18488],[83.1,18586],[83.1,18683],[83.1,18766],[83.1,18866],[83.1,18964],[83.1,19045],[83.1,19142],[83.1,19225],[83.1,19322],[83.1,19419],[83.3,19503],[84.1,19600],[84.6,19683],[85.2,19781],[85.8,19872],[86.3,19955],[86.7,20045],[87,20128],[87.3,20226],[87.4,20323],[87.4,20406],[87.4,20497],[87.4,20580],[87.4,20677],[87.4,20775],[87.4,20858],[87.4,20956],[87.4,21038],[87.4,21135],[87.4,21233],[87.4,21316],[87.4,21406],[87.4,21490],[87.4,21587],[87.4,21685],[87.4,21768],[87.4,21865],[87.4,21957],[87.4,22046],[87.4,22136],[87.4,22220],[87.4,22317],[87.6,22409],[87.7,22498],[87.8,22595],[87.8,22677],[88,22776],[88.1,22866],[88.2,22949],[88.3,23046],[88.4,23130],[88.6,23227],[88.8,23325],[88.9,23407],[88.9,23505],[88.9,23589],[88.9,23679],[88.9,23776],[88.9,23859],[88.9,23957],[88.9,24040],[88.5,24138],[86.8,24235],[86.7,24318],[86.7,24409],[86.7,24491],[86.7,24589],[86.7,24686],[86.7,24770],[86.7,24867],[86.7,24957],[86.7,25048],[86.7,25138],[86.7,25222],[86.7,25319],[86.7,25409],[86.7,25499],[86.7,25590],[86.7,25673],[86.7,25770],[86.7,25862],[86.7,25944],[86.7,26040],[86.7,26124],[86.7,26221],[86.7,26319],[86.7,26403],[86.9,26499],[86.9,26583],[86.9,26673],[86.9,26772],[87,26854],[87,26951],[87,27034],[87,27132],[87,27229],[87,27313],[87,27403],[87,27486],[87.1,27584],[87.1,27681],[87.1,27765],[87.1,27862],[87.1,27945],[87.1,28042],[87.1,28132],[87.1,28216],[87.1,28313],[87.1,28397],[87.1,28494],[87.3,28591],[87.3,28675],[87.5,28776],[87.7,28863],[88,28945],[88.3,29043],[88.5,29126],[88.8,29223],[88.9,29320],[89,29403],[89.2,29501],[89.3,29584],[89.4,29675],[89.6,29758],[89.7,29848],[89.7,29945],[89.8,30028],[89.8,30127],[90,30224],[90.1,30307],[90.2,30398],[90.2,30481],[90.2,30570],[90.2,30661],[89.2,30752],[87.3,30849],[87.2,30933],[87.2,31030],[87.7,31120],[89.4,31205],[90.2,31301],[90.3,31384],[90.6,31481],[92,31579],[92.3,31662],[92.6,31760],[93.5,31843],[94.4,31933],[94.8,32030],[95.1,32113],[95.6,32211],[95.8,32295],[95.8,32391],[95.8,32482],[95.8,32564],[95.8,32658],[95.8,32739],[95.8,32836],[96.3,32933],[96.4,33017],[96.4,33114],[96.5,33198],[96.9,33295],[97.2,33385],[97.3,33469],[97.3,33566],[97.3,33649],[97.3,33746],[97.4,33843],[97.5,33927],[97.5,34025],[97.5,34115],[97.5,34197],[97.5,34298],[97.5,34379],[97.5,34477],[97.5,34573],[97.5,34656],[97.5,34754],[97.5,34837],[97.5,34928],[97.5,35026],[97.5,35108],[97.5,35206],[97.5,35289],[97.5,35386],[97.5,35484],[97.5,35567],[97.6,35657],[97.7,35741],[97.7,35838],[97.7,35935],[97.7,36019],[97.7,36115],[97.7,36199],[97.7,36290],[97.7,36387],[97.7,36470],[97.7,36568],[97.7,36650],[97.7,36748],[97.7,36845],[98,36928],[98.3,37027],[98.5,37109],[98.8,37199],[99,37297],[99.1,37380],[99.1,37477],[99.2,37576],[99.2,37658],[99.3,37755],[99.4,37839],[99.4,37929],[99.4,38026],[99.4,38109],[99.4,38207],[99.5,38291],[99.5,38388],[99.5,38485],[99.5,38568],[99.5,38659],[99.5,38742],[99.5,38840],[99.5,38937],[99.7,39020],[99.7,39118],[99.7,39201],[99.7,39298],[99.7,39388],[99.7,39472],[99.7,39569],[99.7,39653],[99.7,39752],[99.7,39846],[99.7,39930],[99.7,40013],[99.7,40097],[99.7,40187],[99.7,40285],[99.7,40368],[99.7,40465],[99.7,40548],[99.7,40646],[99.5,40743],[99.3,40826],[99.2,40917],[99.2,41000],[100,41098],[100,41195],[100,41278],[100,41376],[100,41466],[100,41556],[100,41647],[100,41730],[100,41827],[100,41920],[100,42008],[100,42105],[100,42188],[100,42272],[100,42355],[100,42457],[100,42549],[100,42633],[100,42730],[100,42827],[100,42911],[100,43008],[100,43091],[100,43467],[100,43550],[100,43647],[100,43745],[100,43828],[100,43918],[100,44002],[100,44099],[100,44196],[100,44279],[100,44377],[100,44469],[100,44557],[100,44655],[100,44739],[100,44836],[100,44932],[100,45017],[100,45113],[100,45197],[100,45294],[100,45391],[100,45475],[100,45574],[100,45655],[100,45753],[100,45850],[100,45933],[100,46031],[100,46122],[100,46211],[100,46308],[100,46392],[100,46489],[100,46586],[100,46671],[100,46767],[100,46851],[100,46947],[100,47045],[100,47128],[100,47226],[100,47318],[100,47407],[100,47504],[100,47587],[100,47686],[100,47782],[100,47865],[100,47962],[100,48045],[100,48143],[99.5,48240],[99.2,48324],[99.2,48421],[99.2,48505],[99.2,48602],[99.4,48699],[99.5,48782],[99.9,48880],[99.9,48972],[99.9,49060],[99.9,49157],[99.9,49241],[99.9,49338],[99.9,49435],[99.9,49518],[99.9,49616],[99.9,49699],[99.9,49796],[99.9,49893],[99.9,49977],[99.9,50075],[100,50157],[100,50255],[100,50352],[100,50435],[100,50533],[100,50625],[100,50713],[100,50811],[100,50894],[100,50992],[100,51088],[100,51172],[100,51270],[100,51353],[100,51451],[100,51547],[100,51631],[100,51728],[100,51819],[100,51909],[100,52006],[100,52089],[100,52187],[100,52284],[100,52367],[100,52464],[100,52548],[100,52645],[100,52742],[100,52826],[100,52923],[100,53007],[100,53104],[100,53201],[100,53285],[100,53382],[100,53474],[100,53563],[100,53653],[100,53736],[100,53833],[100,53923],[100,54007],[100,54104],[100,54188],[100,54284],[100,54375],[100,54466],[100,54563],[100,54646],[100,54744],[100,54841],[100,54925],[100,55021],[100,55105],[100,55196],[100,55286],[100,55368],[100,55466],[100,55549],[100,55647],[100,55738],[100,55820]]",1,0,235.121,241.525,99.76744186,4.503,"[{""rating"":99.76744186046511,""responseTime"":4.502999999999986}]",space,5.882,,241.525,Definitely yes,100,241.528,,,[],,0,1,1,1,1,audio/Narrative7Situation1.wav,audio/Narrative8Situation1.wav,audio/Narrative5Situation1.wav,audio/Narrative6Situation1.wav,2,5,5,2,2.88,,,,,,,,,,,,,,,,,,,,,,,,,,,,,,,,,,,,,,
,,,,,,62fbdda6e4b5a034b71296f8,2024-02-08_15h03.55.213,group3.1-3.2-social-tom,2023.2.2,Win32,146.1988304,65c5074098b851296ff0b7ed,65c5416c80ce2dd1a4552242,,,,,,,,,,,,,,,,,,,,,,,,,,,,,241.529,1,audio/Narrative7Situation2.wav,244.533,,244.533,251.996,"[[97.7,1000],[44.7,1466],[46.8,1563],[48.3,1646],[48.4,1744],[48.6,1830],[49.2,1917],[49.8,2014],[49.8,2098],[49.8,2197],[49.8,2287],[49.8,2376],[49.8,2475],[49.8,2556],[49.8,2647],[49.8,2737],[49.8,2822],[49.8,2918],[49.8,3001],[49.8,3098],[49.8,3189],[49.8,3280],[49.8,3370],[49.8,3455],[49.8,3550],[49.8,3643],[49.8,3731],[49.9,3828],[51.6,3911],[52,4009],[52,4099],[52,4183],[52.5,4281],[54,4363],[56.1,4461],[57.6,4558],[58.4,4641],[58.4,4738],[58.4,4822],[58.4,4913],[58.4,5009],[59,5093],[59.6,5194],[60,5274],[60.2,5372],[60.2,5468],[60.2,5551],[60.2,5641],[60.2,5724],[60.2,5822],[60.2,5920],[60.2,6002],[60.2,6100],[60.2,6192],[60.2,6288],[60.2,6378],[60.2,6462],[60.2,6560],[60.2,6657],[60.2,6740],[60.2,6837],[60.2,6921],[60.2,7012],[60.2,7101],[60.2,7185],[60.2,7282],[60.2,7365],[60.2,7462]]",1,0,251.996,256.818,98.95348837,3.812,"[{""rating"":98.95348837209302,""responseTime"":3.812000000000012}]",space,4.3,,256.819,Not at all,0,256.825,,,[],,0,2,2,2,1,audio/Narrative7Situation2.wav,audio/Narrative8Situation2.wav,audio/Narrative5Situation2.wav,audio/Narrative6Situation2.wav,3,3,3,3,,,,,,,,,,,,,,,,,,,,,,,,,,,,,,,,,,,,,,,
,,,,,,62fbdda6e4b5a034b71296f8,2024-02-08_15h03.55.213,group3.1-3.2-social-tom,2023.2.2,Win32,146.1988304,65c5074098b851296ff0b7ed,65c5416c80ce2dd1a4552242,,,,,,,,,,,,,,,,,,,,,,,,,,,,,256.825,1,audio/Narrative7Situation3.wav,264.83,,264.83,274.076,"[[999,1],[999,88],[999,186],[999,269],[999,367],[999,465],[999,548],[999,645],[999,728],[999,826],[49.4,922],[50.8,1006],[51,1104],[51,1189],[51,1278],[51,1374],[51,1458],[51,1555],[50.6,1638],[50.2,1735],[50.2,1833],[50.2,1915],[50.2,2013],[50.2,2112],[50.2,2194],[50.2,2292],[50,2375],[46.8,2472],[43.8,2569],[40.6,2653],[36.1,2751],[30.1,2833],[22.4,2931],[18.3,3028],[15.3,3112],[13.4,3208],[13.4,3292],[13.4,3383],[12.7,3480],[12,3563],[11.9,3660],[11.9,3752],[11.9,3841],[11.9,3938],[11.9,4021],[11.3,4119],[11.2,4216],[11.2,4300],[11.2,4397],[11.2,4480],[11.2,4576],[11.2,4675],[11.3,4762],[12.2,4849],[12.7,4932],[13.1,5031],[14,5127],[14.1,5209],[14.1,5307],[14.1,5390],[14.1,5487],[14.1,5578],[14.1,5661],[14.1,5758],[14.1,5842],[14.2,5939],[14.3,6036],[14.3,6120],[14.3,6218],[14.3,6310],[14.3,6391],[14.3,6490],[14.3,6572],[14.3,6669],[14.3,6766],[14.7,6850],[15.8,6946],[17,7030],[18,7121],[18.1,7218],[18.1,7301],[18.2,7400],[18.2,7482],[18.2,7579],[18.2,7676],[18.2,7759],[18.2,7850],[18.2,7934],[18.2,8031],[18.2,8128],[18.2,8211],[18.2,8309],[18.2,8391],[18.2,8490],[18.2,8581],[18.2,8663],[18.2,8760],[18.2,8843],[18.2,8941],[18.4,9038],[20.6,9122],[22.8,9218]]",1,0,274.077,278.592,0.755813953,3.298,"[{""rating"":0.7558139534883712,""responseTime"":3.298000000000002}]",space,3.996,,278.592,Partially,50,278.595,,,[],,0,3,3,3,1,audio/Narrative7Situation3.wav,audio/Narrative8Situation3.wav,audio/Narrative5Situation3.wav,audio/Narrative6Situation3.wav,8,4,3,5,,,,,,,,,,,,,,,,,,,,,,,,,,,,,,,,,,,,,,,
,,,,,,62fbdda6e4b5a034b71296f8,2024-02-08_15h03.55.213,group3.1-3.2-social-tom,2023.2.2,Win32,146.1988304,65c5074098b851296ff0b7ed,65c5416c80ce2dd1a4552242,,,,,,,,,,,,,,,,,,,,,,,,,,,,,278.596,1,audio/Narrative7Situation4.wav,281.602,,281.602,293.309,"[[999,0],[999,96],[999,197],[999,276],[999,375],[999,457],[999,554],[999,652],[999,734],[999,832],[999,916],[999,1012],[999,1110],[999,1194],[999,1290],[999,1376],[999,1464],[999,1562],[15.9,1645],[10.8,1743],[9.5,1825],[9.7,1923],[13.8,2020],[20.3,2103],[29.2,2201],[29.7,2298],[29.7,2381],[29.7,2479],[28.3,2562],[25.4,2661],[23.2,2757],[23.1,2840],[23.1,2938],[23.1,3021],[23.1,3119],[23.1,3215],[23.1,3299],[23.1,3396],[22.8,3487],[20.5,3577],[18.2,3674],[17.3,3757],[17.3,3854],[17.2,3952],[16.8,4036],[16.7,4132],[16.7,4215],[16.7,4313],[16.7,4411],[16.7,4493],[16.7,4591],[16.7,4674],[16.7,4772],[16.7,4876],[16.7,4959],[16.7,5056],[17.3,5154],[18,5238],[19.2,5334],[22.3,5418],[23.6,5515],[19.8,5605],[10.8,5689],[6.9,5786],[6.3,5870],[5.3,5967],[3.3,6064],[2.7,6149],[1,6244],[0.4,7065],[1.7,7154],[1.8,7252],[1.8,7335],[1.8,7433],[1.8,7517],[1.8,7613],[1.8,7711],[2.3,7794],[4.6,7884],[6.1,7968],[6.6,8065],[6.7,8162],[6.7,8246],[6.7,8343],[6.7,8426],[6.7,8524],[6.7,8613],[6.7,8698],[6.7,8781],[6.7,8864],[6.7,8961],[6.9,9059],[7.2,9142],[7.2,9239],[7.2,9322],[7.2,9413],[7.2,9510],[7.2,9593],[7.2,9691],[7.2,9775],[7.2,9872],[7.2,9969],[7.2,10052],[7.2,10142],[7.2,10226],[7.2,10323],[7.2,10420],[7.2,10503],[7.2,10601],[7.2,10688],[7.2,10775],[6.8,10865],[6.7,10951],[6.7,11046],[6.7,11129],[6.7,11226],[6.7,11323],[6.7,11407],[6.7,11497],[6.7,11581],[6.7,11671]]",1,0,293.309,303.287,27.96511628,9.047,"[{""rating"":43.08139534883721,""responseTime"":5.1790000000000305},{""rating"":27.96511627906977,""responseTime"":9.047000000000025}]",space,9.464,,303.287,Definitely yes,100,303.289,,,[],,0,4,4,4,1,audio/Narrative7Situation4.wav,audio/Narrative8Situation4.wav,audio/Narrative5Situation4.wav,audio/Narrative6Situation4.wav,3,3,1,2,,,,,,,,,,,,,,,,,,,,,,,,,,,,,,,,,,,,,,,
,,,,,,62fbdda6e4b5a034b71296f8,2024-02-08_15h03.55.213,group3.1-3.2-social-tom,2023.2.2,Win32,146.1988304,65c5074098b851296ff0b7ed,65c5416c80ce2dd1a4552242,,,,,,,,,,,,,,,,,,,,,,,,,,,,,303.289,1,audio/Narrative7Situation5.wav,308.289,,308.289,316.765,"[[999,0],[999,99],[999,180],[999,270],[999,357],[999,439],[999,535],[999,617],[999,715],[999,798],[999,896],[999,987],[999,1069],[999,1167],[999,1251],[999,1347],[999,1444],[999,1528],[999,1626],[999,1723],[999,1806],[999,1903],[999,1987],[999,2084],[999,2181],[999,2265],[999,2362],[999,2446],[999,2536],[22.7,2633],[25.6,2716],[26.6,2814],[25,2913],[19.4,3001],[19,3092],[16.7,3175],[13,3265],[13,3348],[13,3446],[13,3544],[13,3627],[13,3724],[13,3814],[13,3905],[13,3995],[13,4079],[13,4177],[13,4266],[13,4355],[13,4454],[13,4536],[13,4634],[13,4724],[13,4807],[13,4905],[13,4989],[13,5086],[13,5182],[13,5266],[13,5364],[13,5448],[15.1,5537],[17.9,5634],[18.5,5718],[19.1,5816],[20.5,5899],[22.2,5996],[23.1,6093],[23.8,6177],[25.3,6273],[27.3,6365],[28.7,6454],[28.7,6551],[28.9,6636],[29,6732],[29,6829],[29,6915],[29,7009],[29,7093],[29,7191],[29,7289],[29,7371],[29,7468],[29,7552],[29,7649],[29,7746],[29,7830],[29,7927],[29,8019],[29,8108],[29,8205],[29,8289],[29,8384]]",1,0,316.766,321.476,10,3.338,"[{""rating"":9.999999999999998,""responseTime"":3.3379999999999654}]",space,4.197,,321.477,Not at all,0,321.482,,,[],,0,5,5,5,1,audio/Narrative7Situation5.wav,audio/Narrative8Situation5.wav,audio/Narrative5Situation5.wav,audio/Narrative6Situation5.wav,5,2,5,2,,,,,,,,,,,,,,,,,,,,,,,,,,,,,,,,,,,,,,,
,,,,,,62fbdda6e4b5a034b71296f8,2024-02-08_15h03.55.213,group3.1-3.2-social-tom,2023.2.2,Win32,146.1988304,65c5074098b851296ff0b7ed,65c5416c80ce2dd1a4552242,,,,,,,,,,,,,,,,,,,,,,,,,,,,,321.483,1,audio/Narrative7Situation6.wav,324.485,,324.485,334.45,"[[7.9,1291],[9.9,1375],[10,1464],[10,1548],[10.2,1646],[13.3,1743],[21.9,1826],[26.5,1923],[27.4,2007],[29,2103],[35.1,2201],[38.3,2284],[39.8,2382],[42.3,2474],[46.6,2562],[49.6,2659],[51.7,2743],[51.9,2826],[54.4,2911],[63.5,3007],[67.5,3105],[67.7,3188],[72.2,3286],[75.7,3377],[75.8,3466],[75.8,3563],[76.2,3646],[77.5,3745],[77.9,3841],[77.9,3925],[77.9,4022],[77.9,4105],[77.9,4202],[77.9,4300],[77.9,4384],[77.9,4481],[77.9,4564],[77.9,4661],[77.9,4759],[77.9,4843],[77.9,4938],[77.9,5036],[77.9,5120],[77.9,5216],[77.9,5300],[77.9,5397],[77.9,5495],[77.9,5579],[77.9,5675],[77.9,5759],[77.9,5855],[77.9,5954],[77.9,6038],[77.9,6134],[77.9,6226],[77.9,6314],[77.9,6413],[77.9,6495],[78.9,6594],[78.9,6690],[79.1,6774],[79.5,6872],[79.5,6954],[79.5,7051],[79.5,7146],[79.5,7225],[79.5,7322],[81,7406],[82.6,7502],[83,7600],[83.1,7683],[83.1,7781],[83.1,7863],[83.1,7961],[83.1,8060],[83.1,8142],[83.1,8240],[83.1,8331],[83.1,8420],[83.1,8517],[83.1,8601],[83.1,8699],[83.1,8795],[83.1,8879],[83.1,8976],[83.1,9060],[83.1,9149],[83.1,9247],[83.1,9331],[83.1,9427],[83.1,9512],[83.1,9608],[83.1,9706],[83.1,9788],[83.1,9885]]",1,0,334.45,339.086,96.1627907,3.503,"[{""rating"":96.16279069767441,""responseTime"":3.502999999999986}]",space,4.117,,339.086,Definitely yes,100,339.092,,,[],,0,6,6,6,1,audio/Narrative7Situation6.wav,audio/Narrative8Situation6.wav,audio/Narrative5Situation6.wav,audio/Narrative6Situation6.wav,3,2,3,2,,,,,,,,,,,,,,,,,,,,,,,,,,,,,,,,,,,,,,,
,,,,,,62fbdda6e4b5a034b71296f8,2024-02-08_15h03.55.213,group3.1-3.2-social-tom,2023.2.2,Win32,146.1988304,65c5074098b851296ff0b7ed,65c5416c80ce2dd1a4552242,,,,,,,,,,,,,,,,,,,,,,,,,,,,,339.092,1,audio/Narrative7Situation7.wav,344.092,,344.092,361.253,"[[999,1],[999,83],[999,181],[999,264],[999,361],[999,458],[999,542],[999,639],[999,730],[999,819],[999,917],[999,1000],[999,1099],[999,1194],[999,1278],[999,1376],[999,1459],[999,1556],[50.6,1653],[54.4,1737],[55.7,1828],[55.7,1911],[55.9,2008],[56,2105],[56,2189],[56,2278],[56,2362],[55.4,2459],[53.8,2557],[53.7,2641],[53.7,2737],[53.7,2829],[53.7,2918],[53.9,3008],[54.7,3092],[55.2,3189],[55.4,3281],[55.6,3370],[55.9,3460],[56.1,3543],[56.6,3643],[57.2,3733],[57.2,3814],[57.2,3912],[57.2,3995],[57.2,4093],[56.9,4192],[54.1,4273],[50.4,4370],[45.6,4454],[41.2,4544],[40.8,4641],[37.7,4725],[30.6,4822],[30.5,4905],[30.3,5003],[29.9,5100],[29.9,5182],[28.3,5281],[25,5364],[24.5,5461],[23.4,5557],[22.8,5641],[22.8,5739],[21.5,5831],[20.8,5919],[20.7,6010],[20.7,6093],[20.7,6191],[20.7,6281],[20.7,6374],[20.7,6468],[20.7,6552],[20.7,6649],[20.7,6740],[22.9,6823],[39.8,6920],[51.7,7004],[54,7100],[57.5,7198],[65.2,7282],[69.8,7378],[70.1,7462],[70.6,7562],[70.6,7656],[70.6,7740],[70.6,7837],[70.6,7929],[70.6,8018],[70.6,8109],[70.6,8191],[70.6,8282],[70.6,8365],[70.6,8462],[70.6,8560],[70.6,8643],[70.6,8740],[70.8,8831],[73,8922],[74.5,9012],[74.9,9095],[75.2,9192],[75.4,9285],[75.4,9372],[75.5,9470],[75.6,9554],[75.6,9651],[75.6,9741],[75.6,9824],[75.6,9922],[75.6,10006],[75.6,10103],[75.6,10200],[75.6,10283],[75.6,10379],[75.6,10463],[75.6,10554],[75.6,10640],[75.6,10720],[75.6,10818],[75.6,10901],[75.6,10999],[75.6,11096],[75.6,11179],[75.6,11270],[75.6,11353],[75.6,11450],[75.6,11548],[75.6,11631],[75.6,11728],[75.8,11811],[75.9,11909],[75.9,11992],[75.9,12075],[75.9,12173],[75.9,12256],[76.1,12353],[76.1,12451],[76.1,12534],[76.1,12636],[76.3,12715],[76.8,12805],[77,12902],[77,12986],[77,13083],[77,13167],[77,13264],[77,13361],[77,13444],[77.2,13542],[80.1,13634],[82.3,13723],[85.7,13819],[88.4,13903],[90.8,14001],[92.4,14097],[92.8,14181],[92.8,14271],[93.3,14355],[94.7,14451],[95.7,14549],[95.7,14635],[95.7,14730],[95.7,14813],[95.7,14911],[95.7,15001],[95.7,15085],[95.7,15181],[96,15265],[96.2,15362],[96.2,15459],[96.3,15542],[96.6,15640],[96.7,15723],[96.7,15813],[96.7,15911],[96.7,15994],[97.2,16092],[97.4,16184],[97.4,16272],[97.4,16370],[97.6,16453],[98,16540],[98.1,16620],[98.1,16717],[98.1,16814],[98.1,16897],[98.1,16995],[98.1,17086]]",1,0,361.254,364.498,99.18604651,2.124,"[{""rating"":99.18604651162791,""responseTime"":2.123999999999967}]",space,2.731,,364.498,Definitely yes,100,364.501,,,[],,0,7,7,7,1,audio/Narrative7Situation7.wav,audio/Narrative8Situation7.wav,audio/Narrative5Situation7.wav,audio/Narrative6Situation7.wav,5,3,4,5,,,,,,,,,,,,,,,,,,,,,,,,,,,,,,,,,,,,,,,
,,,,,,62fbdda6e4b5a034b71296f8,2024-02-08_15h03.55.213,group3.1-3.2-social-tom,2023.2.2,Win32,146.1988304,65c5074098b851296ff0b7ed,65c5416c80ce2dd1a4552242,,,,,,,,,,,,,,,,,,,,,,,,,,,,,364.501,1,audio/Narrative7Situation8.wav,366.506,,366.506,376.511,"[[999,0],[999,96],[999,179],[999,277],[999,361],[999,459],[999,555],[999,638],[58.4,736],[54.9,828],[52.3,911],[50.5,1007],[50.3,1090],[50.3,1188],[50.3,1284],[50.3,1368],[50,1466],[48.4,1548],[48,1639],[48,1736],[49,1820],[50.6,1917],[50.6,2000],[51,2097],[51,2195],[51,2279],[51,2368],[51,2452],[51,2550],[51,2647],[51,2730],[51,2827],[51,2911],[51,3008],[51,3098],[51,3182],[51,3272],[51,3355],[51,3453],[51,3550],[51,3633],[51,3730],[51,3814],[51,3911],[51,4009],[51,4092],[51,4188],[51,4281],[51,4370],[51,4467],[51,4550],[51,4649],[51,4745],[51,4828],[51,4925],[51,5008],[51,5106],[51,5203],[51,5287],[51,5385],[51,5468],[51,5564],[51,5655],[51,5738],[51,5842],[51,5935],[51,6024],[51,6120],[51,6203],[51,6301],[51,6392],[51,6475],[51,6572],[51,6655],[51,6753],[51,6851],[51,6935],[51,7031],[51,7114],[50.3,7204],[46.8,7302],[45.4,7385],[43.6,7483],[42.6,7566],[42.5,7663],[42.5,7760],[43,7844],[44.1,7935],[45.6,8018],[46.5,8115],[46.5,8212],[47.3,8296],[48.2,8392],[48.3,8484],[48.3,8580],[48.3,8670],[48.3,8754],[48.5,8851],[48.8,8948],[48.8,9032],[48.8,9128],[49.1,9213],[49.6,9302],[49.8,9393],[50.1,9476],[50.8,9574],[50.9,9657],[50.9,9754],[50.9,9852],[50.9,9935]]",1,0,376.512,379.757,56.56976744,2.31,"[{""rating"":56.56976744186046,""responseTime"":2.3100000000000023}]",space,2.727,,379.757,Definitely yes,100,379.758,,,[],,0,8,8,8,1,audio/Narrative7Situation8.wav,audio/Narrative8Situation8.wav,audio/Narrative5Situation8.wav,audio/Narrative6Situation8.wav,2,3,3,5,,,,,,,,,,,,,,,,,,,,,,,,,,,,,,,,,,,,,,,
,,,,,,62fbdda6e4b5a034b71296f8,2024-02-08_15h03.55.213,group3.1-3.2-social-tom,2023.2.2,Win32,146.1988304,65c5074098b851296ff0b7ed,65c5416c80ce2dd1a4552242,,,,,,,,,,,,,,,,,,,,,,,,,,,,,379.758,1,audio/Narrative7Situation9.wav,381.764,,381.764,390.38,"[[52.2,264],[52.2,362],[52.2,459],[52.2,541],[51.9,639],[49.4,738],[44.1,819],[34.1,916],[29.7,1000],[23.4,1098],[20.8,1195],[20.8,1278],[19.1,1375],[18.3,1459],[18.3,1557],[18.3,1646],[18.3,1730],[18.3,1827],[18.3,1911],[33.6,2007],[57.2,2105],[59.4,2189],[65.5,2286],[71,2368],[73.9,2459],[80.1,2557],[81.4,2639],[81.5,2737],[83.3,2829],[83.6,2918],[84,3016],[84.3,3098],[84.3,3195],[84.5,3295],[84.5,3377],[84.5,3473],[84.8,3557],[85.5,3641],[86.8,3733],[86.8,3820],[86.8,3921],[86.8,4002],[86.8,4100],[86.8,4195],[86.8,4279],[86.8,4377],[86.8,4461],[86.8,4557],[86.8,4647],[86.8,4731],[86.8,4822],[86.8,4906],[86.8,5002],[86.8,5093],[86.8,5177],[86.8,5274],[86.8,5356],[86.8,5447],[86.8,5543],[86.8,5627],[86.8,5725],[86.8,5808],[86.8,5906],[86.8,6002],[86.8,6086],[86.8,6177],[86.8,6259],[86.8,6358],[86.8,6454],[86.8,6538],[86.8,6635],[86.8,6718],[86.8,6815],[86.8,6913],[86.8,6997],[86.8,7093],[86.8,7185],[86.8,7276],[86.8,7372],[86.8,7454],[86.8,7553],[86.8,7641],[88.5,7725],[91.2,7822],[92.4,7906],[93.6,8004],[96.6,8101],[97.6,8183],[98.5,8281],[98.5,8365],[98.5,8454],[98.5,8553]]",1,0,390.38,392.416,98.95348837,1.108,"[{""rating"":98.95348837209302,""responseTime"":1.108000000000004}]",space,1.52,,392.416,Partially,50,392.419,,,[],,0,9,9,9,1,audio/Narrative7Situation9.wav,audio/Narrative8Situation9.wav,audio/Narrative5Situation9.wav,audio/Narrative6Situation9.wav,2,3,3,4,,,,,,,,,,,,,,,,,,,,,,,,,,,,,,,,,,,,,,,
,,,,,,62fbdda6e4b5a034b71296f8,2024-02-08_15h03.55.213,group3.1-3.2-social-tom,2023.2.2,Win32,146.1988304,65c5074098b851296ff0b7ed,65c5416c80ce2dd1a4552242,,,,,,,,,,,,,,,,,,,,,,,,,,,,,392.419,1,audio/Narrative8Situation1.wav,397.425,,397.426,413.337,"[[999,0],[999,96],[999,179],[999,271],[999,353],[999,450],[999,548],[999,631],[999,729],[999,812],[999,910],[999,1006],[46.9,1090],[44.9,1187],[42.1,1286],[41.1,1367],[41.1,1465],[40.5,1548],[40.5,1646],[40.5,1735],[39.5,1819],[33.4,1915],[24.2,2000],[19.7,2097],[17.3,2196],[16.3,2278],[15.8,2375],[15.8,2459],[15.8,2551],[15.2,2646],[14.7,2729],[14.4,2826],[14.4,2910],[14.4,3015],[14.4,3112],[14.4,3196],[14.4,3293],[14.4,3390],[14.1,3473],[12.8,3571],[11.4,3653],[9.3,3751],[7.8,3848],[7.6,3932],[7.6,4021],[7.4,4105],[5.8,4203],[5.3,4300],[5.1,4383],[4.5,4480],[4.5,4564],[4.5,4663],[4.5,4751],[4.5,4836],[4.5,4932],[4.5,5015],[3.3,5112],[2.5,5210],[2.5,5294],[2.5,5391],[2.5,5488],[2.5,5571],[2.6,5670],[2.8,5752],[2.8,5848],[2.8,5946],[2.8,6030],[2.8,6129],[2.8,6211],[2.6,6300],[2.6,6398],[2.6,6482],[2.6,6578],[2.6,6662],[2.6,6759],[2.6,6855],[2.6,6941],[2.6,7023],[2.6,7109],[2.6,7204],[2.6,7302],[2.6,7384],[2.7,7482],[2.9,7566],[2.9,7663],[2.9,7753],[2.9,7836],[2.9,7934],[2.9,8016],[3.2,8114],[4,8211],[4.5,8295],[4.5,8391],[4.5,8484],[4.5,8566],[4.5,8663],[4.5,8747],[4.6,8843],[4.8,8937],[4.8,9016],[11.7,9115],[22.7,9198],[26.3,9289],[35.5,9390],[45.3,9470],[48.4,9566],[50.2,9650],[52,9747],[53.1,9845],[55,9927],[56.1,10025],[57.1,10108],[57.9,10206],[58.1,10302],[60.3,10386],[62.2,10484],[62.6,10567],[63.1,10664],[63.1,10754],[63.1,10837],[63.4,10935],[63.4,11019],[63.4,11116],[63.4,11213],[63.4,11295],[63.4,11395],[63.4,11485],[63.4,11567],[63.4,11665],[63.4,11747],[63.4,11847],[63.4,11943],[63.4,12026],[63.4,12117],[63.4,12200],[63.4,12290],[63.4,12383],[63.4,12470],[63.4,12568],[63.4,12651],[63.4,12749],[63.4,12846],[63.4,12929],[63.4,13020],[63.4,13103],[63.4,13201],[63.4,13301],[63.4,13381],[63.4,13479],[63.4,13562],[65,13658],[65.4,13750],[65.8,13833],[66.1,13930],[66.2,14013],[66.2,14110],[66.2,14208],[66.2,14290],[66.2,14388],[66.2,14471],[66.2,14562],[66.2,14660],[66.2,14742],[66.2,14840],[66.2,14931],[66.2,15021],[66.2,15117],[66.2,15201],[66.2,15292],[66.2,15381],[66.2,15459],[66.2,15556],[66.2,15639],[67.6,15735],[69.7,15819]]",1,0,413.337,416.261,71.51162791,1.623,"[{""rating"":71.51162790697674,""responseTime"":1.6229999999999905}]",space,2.404,,416.261,Partially,50,416.263,,,[],,0,10,10,10,1,audio/Narrative8Situation1.wav,audio/Narrative7Situation1.wav,audio/Narrative6Situation1.wav,audio/Narrative5Situation1.wav,5,2,2,5,,,,,,,,,,,,,,,,,,,,,,,,,,,,,,,,,,,,,,,
,,,,,,62fbdda6e4b5a034b71296f8,2024-02-08_15h03.55.213,group3.1-3.2-social-tom,2023.2.2,Win32,146.1988304,65c5074098b851296ff0b7ed,65c5416c80ce2dd1a4552242,,,,,,,,,,,,,,,,,,,,,,,,,,,,,416.263,1,audio/Narrative8Situation2.wav,419.264,,419.264,429.372,"[[47.3,88],[47.3,185],[45,269],[37.3,365],[27.6,468],[25.2,548],[24.9,644],[24.7,730],[24.7,826],[26.6,915],[27.5,1000],[27.6,1096],[28,1180],[28,1276],[37.9,1916],[28.2,2014],[25.5,2112],[25.4,2194],[25.4,2290],[25.4,2374],[25.4,2466],[25.4,2562],[23,2646],[21.1,2745],[21.1,2826],[21.1,2923],[21.1,3021],[21.1,3103],[21.1,3194],[21.1,3278],[21.1,3379],[21.1,3473],[21.1,3555],[15.6,3653],[14.1,3737],[14.1,3834],[14.1,3923],[13.6,4007],[11.7,4105],[11.1,4187],[9.4,4286],[8.9,4382],[8.9,4466],[8.7,4562],[7.2,4656],[6.5,4738],[6.4,4834],[6.4,4918],[6.1,5014],[5.8,5115],[5.8,5195],[5.8,5286],[5.8,5370],[5.8,5466],[5.4,5564],[5.2,5647],[4.6,5745],[3.5,5827],[2.5,5925],[2.3,6022],[2.3,6105],[2.3,6195],[2.3,6279],[2.1,6377],[1.9,6473],[1.9,6557],[1.9,6654],[1.9,6738],[1.9,6836],[1.9,6925],[1.9,7009],[1.9,7105],[1.9,7189],[1.9,7286],[1.9,7387],[1.9,7468],[1.9,7564],[1.9,7656],[1.9,7738],[1.9,7836],[1.9,7920],[1.9,8016],[1.9,8115],[1.9,8197],[1.9,8295],[1.9,8377],[1.9,8468],[1.9,8567],[1.9,8649],[1.9,8745],[1.9,8829],[1.9,8927],[1.9,9024],[1.9,9106],[1.9,9197],[1.9,9283],[1.9,9377],[1.9,9475],[1.9,9558],[1.9,9656],[1.9,9740],[1.9,9836],[1.9,9927],[1.9,10010],[1.9,10101]]",1,0,429.373,431.818,1.279069767,2.18,"[{""rating"":1.2790697674418594,""responseTime"":2.180000000000007}]",space,1.932,,431.818,Not at all,0,431.821,,,[],,0,11,11,11,1,audio/Narrative8Situation2.wav,audio/Narrative7Situation2.wav,audio/Narrative6Situation2.wav,audio/Narrative5Situation2.wav,3,3,3,3,,,,,,,,,,,,,,,,,,,,,,,,,,,,,,,,,,,,,,,
,,,,,,62fbdda6e4b5a034b71296f8,2024-02-08_15h03.55.213,group3.1-3.2-social-tom,2023.2.2,Win32,146.1988304,65c5074098b851296ff0b7ed,65c5416c80ce2dd1a4552242,,,,,,,,,,,,,,,,,,,,,,,,,,,,,431.821,1,audio/Narrative8Situation3.wav,435.827,,435.827,458.193,"[[1.5,1187],[1.5,1271],[1.5,1369],[1.5,1466],[1.5,1549],[1.5,1639],[1.5,1723],[1.5,1819],[1.5,1918],[1.5,2001],[1.5,2084],[1.5,2168],[1.5,2264],[1.5,2355],[1.5,2437],[1.5,2535],[1.5,2619],[1.5,2716],[1.5,2812],[5.8,2896],[13.3,2995],[23,3078],[33,3175],[38.7,3273],[43,3355],[49.1,3453],[53.4,3545],[58,3632],[60.6,3730],[60.6,3816],[60.8,3905],[61,3997],[61,4086],[61,4182],[61,4266],[61,4363],[61,4459],[61,4543],[61,4638],[61,4718],[61,4807],[61,4900],[61,4989],[61,5086],[61,5168],[61.9,5259],[63.2,5357],[63.3,5439],[63.3,5537],[63.3,5620],[63.3,5718],[63.3,5816],[63.3,5899],[62.4,5995],[62.1,6079],[61.6,6168],[61.5,6266],[61.5,6350],[61.5,6447],[61.5,6530],[61.5,6627],[61.5,6725],[61.5,6809],[61.5,6906],[61.5,6997],[61.5,7086],[61.5,7182],[61.5,7266],[61.5,7365],[61.5,7461],[61.5,7545],[61.5,7634],[61.9,7720],[63.3,7816],[65.1,7918],[68.8,7995],[73.4,8093],[76.2,8177],[79,8275],[81.4,8365],[83,8449],[84.5,8545],[85.2,8629],[85.9,8727],[86.2,8824],[86.2,8906],[86.2,9004],[86.2,9088],[86.2,9177],[86.2,9275],[86.2,9358],[86.4,9456],[86.4,9560],[86.4,9637],[86.4,9733],[86.4,9817],[86.5,9908],[86.7,9999],[86.7,10088],[86.7,10186],[86.7,10269],[86.7,10365],[86.7,10463],[86.7,10547],[86.7,10637],[86.7,10721],[86.7,10811],[86.7,10903],[86.7,10995],[89.5,11088],[92.8,11173],[94.1,11269],[94.3,11363],[94.3,11442],[94.3,11533],[94.3,11615],[94.3,11713],[94.3,11814],[94.3,11894],[94.3,11992],[94.3,12074],[94.3,12173],[94.6,12269],[95,12353],[95.2,12451],[95.2,12533],[95.2,12632],[95.5,12728],[95.9,12812],[96.4,12901],[96.4,12985],[96.5,13083],[97,13180],[97.4,13263],[97.5,13360],[97.5,13446],[97.5,13535],[97.7,13625],[97.7,13708],[97.7,13805],[97.7,13889],[97.7,13985],[97.7,14084],[97.9,14167],[98,14264],[98,14360],[98,14437],[98,14535],[98,14617],[98,14716],[98,14812],[98,14896],[98,14994],[98,15078],[98,15167],[98,15266],[98,15348],[98,15444],[98,15528],[98,15625],[98,15723],[98,15807],[98,15898],[98,15980],[98,16076],[98,16175],[98,16257],[98,16355],[98,16439],[98,16536],[98,16634],[98,16716],[98,16814],[98,16903],[98,16988],[98,17091],[98,17175],[98,17271],[98,17370],[98,17454],[98,17550],[98,17634],[98,17730],[98,17829],[98,17912],[98,18009],[98,18091],[98,18189],[98,18287],[98,18370],[98,18466],[98,18564],[98,18649],[98,18745],[98,18831],[98,18927],[98,19025],[98,19107],[98,19204],[98,19287],[98,19384],[98,19490],[98,19572],[98,19670],[98,19774],[98,19857],[98,19954],[98,20038],[98,20141],[98,20239],[98,20322],[98,20420],[98,20516],[98,20601],[98,20697],[98,20781],[98,20879],[98,20976],[98,21060],[98,21156],[98,21240],[98,21336],[98,21435],[98,21516],[98,21615],[98,21706],[98,21795],[98,21893],[98,21977],[98,22074],[98,22170],[98,22254],[98,22351]]",1,0,458.193,460.958,98.25581395,2.532,"[{""rating"":98.25581395348837,""responseTime"":2.5319999999999823}]",space,2.252,,460.959,Not at all,0,460.96,,,[],,0,12,12,12,1,audio/Narrative8Situation3.wav,audio/Narrative7Situation3.wav,audio/Narrative6Situation3.wav,audio/Narrative5Situation3.wav,4,8,5,3,,,,,,,,,,,,,,,,,,,,,,,,,,,,,,,,,,,,,,,
,,,,,,62fbdda6e4b5a034b71296f8,2024-02-08_15h03.55.213,group3.1-3.2-social-tom,2023.2.2,Win32,146.1988304,65c5074098b851296ff0b7ed,65c5416c80ce2dd1a4552242,,,,,,,,,,,,,,,,,,,,,,,,,,,,,460.961,1,audio/Narrative8Situation4.wav,463.966,,463.966,478.127,"[[999,0],[999,98],[999,194],[999,278],[999,375],[999,459],[999,548],[999,646],[999,730],[999,819],[999,903],[999,1000],[999,1100],[999,1180],[999,1271],[999,1355],[999,1451],[999,1550],[21.2,1632],[18.2,1730],[17.4,1822],[16.7,1911],[14.6,2000],[11,2084],[7.2,2182],[6.3,2274],[9.8,2362],[21.8,2459],[25.1,2543],[28.3,2639],[36.1,2731],[41.8,2814],[44.6,2911],[47,2995],[47.4,3093],[48.9,3189],[50,3273],[50.6,3370],[50.9,3454],[51.5,3550],[51.5,3648],[51.5,3731],[51.4,3829],[51.4,3930],[50.9,4009],[50.8,4100],[50.6,4182],[50.6,4279],[50.6,4382],[50.6,4461],[50.6,4550],[50.6,4634],[50.6,4731],[50.6,4822],[50.6,4916],[50.6,5009],[50.6,5093],[50.6,5190],[50.6,5288],[50.6,5370],[50.6,5468],[50.6,5550],[50.6,5649],[50.6,5745],[50.6,5829],[50.6,5927],[50.6,6012],[50.6,6108],[50.6,6204],[50.6,6288],[50.6,6384],[50.6,6485],[51.6,6565],[53.3,6663],[54.5,6747],[55.3,6843],[55.6,6942],[56.8,7024],[67,7122],[77.5,7204],[84.4,7302],[87.6,7399],[89.5,7483],[93.5,7581],[96.9,7670],[98.7,7761],[99.2,7858],[99.4,7942],[99.4,8038],[99.4,8136],[99.4,8219],[99.4,8317],[99.4,8401],[99.4,8497],[99.4,8594],[100,8677],[100,8776],[100,8858],[100,8956],[100,9053],[100,9137],[100,9233],[100,9326],[100,9415],[100,9512],[100,9594],[100,9692],[100,9790],[100,9874],[100,9971],[100,10053],[100,10137],[100,10235],[100,10317],[100,10415],[100,10499],[100,10596],[100,10694],[100,10776],[100,10874],[100,10956],[100,11055],[100,11151],[100,11235],[100,11332],[100,11435],[100,11512],[100,11610],[100,11694],[100,11790],[100,11887],[100,11973],[100,12069],[100,12153],[100,12250],[100,12346],[100,12430],[100,12526],[100,12610],[100,12709],[100,12805],[100,12889],[100,12987],[100,13086],[100,13165],[100,13264],[100,13348],[100,13444],[100,13541],[100,13625],[100,13721],[100,13805],[100,13903],[100,14000],[100,14084]]",1,0,478.127,480.329,99.76744186,1.852,"[{""rating"":99.76744186046511,""responseTime"":1.8519999999999754}]",space,1.681,,480.329,Partially,50,480.332,,,[],,0,13,13,13,1,audio/Narrative8Situation4.wav,audio/Narrative7Situation4.wav,audio/Narrative6Situation4.wav,audio/Narrative5Situation4.wav,3,3,2,1,,,,,,,,,,,,,,,,,,,,,,,,,,,,,,,,,,,,,,,
,,,,,,62fbdda6e4b5a034b71296f8,2024-02-08_15h03.55.213,group3.1-3.2-social-tom,2023.2.2,Win32,146.1988304,65c5074098b851296ff0b7ed,65c5416c80ce2dd1a4552242,,,,,,,,,,,,,,,,,,,,,,,,,,,,,480.332,1,audio/Narrative8Situation5.wav,482.337,,482.337,490.571,"[[999,1],[999,83],[999,180],[999,278],[999,360],[49.1,451],[48.7,535],[48.6,632],[48.5,729],[47.7,812],[40.7,910],[40.3,992],[40.3,1091],[40.3,1181],[39.9,1265],[40.1,1360],[54.9,1444],[65.8,1543],[67.2,1639],[68.6,1723],[79.8,1821],[81.3,1911],[82,1994],[82.3,2091],[82.3,2174],[82.3,2271],[83.1,2372],[84.4,2451],[84.4,2550],[84.7,2634],[84.8,2730],[84.8,2828],[84.9,2912],[84.9,3012],[84.9,3092],[84.9,3189],[84.9,3287],[84.9,3370],[84.9,3460],[84.9,3544],[84.9,3640],[84.9,3737],[84.9,3821],[84.9,3918],[84.9,4023],[84.9,4105],[84.9,4203],[84.9,4286],[84.9,4387],[84.9,4482],[84.9,4564],[84.9,4662],[84.9,4746],[84.9,4843],[84.9,4932],[84.9,5016],[84.9,5113],[84.9,5198],[84.9,5294],[84.9,5391],[84.9,5475],[84.9,5566],[84.9,5649],[84.9,5746],[84.9,5843],[86.9,5927],[92,6024],[93.5,6124],[96.6,6205],[98.3,6301],[98.3,6388],[98.3,6475],[99.1,6574],[99.2,6656],[99.8,6753],[100,6836],[100,6934],[100,7032],[100,7115],[100,7205],[100,7288],[100,7388],[100,7483],[100,7566],[100,7664],[100,7750],[100,7845],[100,7941],[100,8025],[100,8122],[100,8221]]",1,0,490.571,492.634,99.65116279,1.115,"[{""rating"":99.65116279069768,""responseTime"":1.1149999999999523}]",space,1.546,,492.634,Definitely yes,100,492.637,,,[],,0,14,14,14,1,audio/Narrative8Situation5.wav,audio/Narrative7Situation5.wav,audio/Narrative6Situation5.wav,audio/Narrative5Situation5.wav,2,5,2,5,,,,,,,,,,,,,,,,,,,,,,,,,,,,,,,,,,,,,,,
,,,,,,62fbdda6e4b5a034b71296f8,2024-02-08_15h03.55.213,group3.1-3.2-social-tom,2023.2.2,Win32,146.1988304,65c5074098b851296ff0b7ed,65c5416c80ce2dd1a4552242,,,,,,,,,,,,,,,,,,,,,,,,,,,,,492.637,1,audio/Narrative8Situation6.wav,494.642,,494.643,501.089,"[[999,1],[999,84],[999,182],[999,278],[999,360],[999,458],[999,540],[999,639],[999,735],[999,819],[999,917],[999,1001],[999,1098],[999,1194],[999,1278],[999,1376],[999,1473],[999,1557],[999,1653],[999,1737],[50.3,1834],[50.1,1930],[50.1,2014],[50.1,2112],[51.9,2196],[57.8,2292],[69.5,2382],[80.1,2466],[89.9,2564],[90,2646],[90,2744],[90,2841],[89.1,2925],[83.7,3021],[83.7,3114],[84.9,3196],[84.9,3293],[84.9,3376],[84.9,3473],[84.9,3571],[84.9,3655],[84.9,3752],[84.9,3835],[84.9,3925],[84.9,4023],[84.9,4107],[84.9,4204],[84.9,4287],[84.9,4384],[84.9,4480],[85.3,4564],[86.9,4655],[87.8,4739],[88.6,4836],[89.2,4932],[89.8,5016],[89.8,5114],[89.9,5197],[90.1,5293],[90.5,5384],[91.1,5468],[91.9,5567],[92.4,5649],[93.3,5746],[94.2,5843],[94.3,5927],[94.5,6024],[94.6,6115],[94.5,6197],[94.1,6295],[94.1,6381]]",1,0,501.089,503.529,95.34883721,1.435,"[{""rating"":95.34883720930232,""responseTime"":1.4349999999999454}]",space,1.926,,503.529,Definitely yes,100,503.53,,,[],,0,15,15,15,1,audio/Narrative8Situation6.wav,audio/Narrative7Situation6.wav,audio/Narrative6Situation6.wav,audio/Narrative5Situation6.wav,2,3,2,3,,,,,,,,,,,,,,,,,,,,,,,,,,,,,,,,,,,,,,,
,,,,,,62fbdda6e4b5a034b71296f8,2024-02-08_15h03.55.213,group3.1-3.2-social-tom,2023.2.2,Win32,146.1988304,65c5074098b851296ff0b7ed,65c5416c80ce2dd1a4552242,,,,,,,,,,,,,,,,,,,,,,,,,,,,,503.53,1,audio/Narrative8Situation7.wav,506.531,,506.531,518.615,"[[999,0],[999,97],[999,179],[999,284],[999,368],[999,458],[999,554],[999,637],[999,736],[999,834],[999,915],[51.1,1012],[50.9,1097],[50.7,1194],[50.8,1291],[50.9,1374],[50.9,1472],[50.9,1555],[50.9,1652],[50.9,1748],[50.9,1833],[50.9,1930],[50.9,2013],[50.9,2112],[50.9,2208],[50.9,2291],[52,2388],[60.9,2489],[62.8,2569],[62.8,2666],[62.8,2751],[62.8,2847],[62.8,2952],[62.8,3035],[60.3,3132],[52.2,3223],[48.1,3313],[46.9,3411],[46.2,3493],[42.6,3590],[37.7,3689],[37.2,3771],[37.2,3868],[37.2,3952],[37.2,4050],[37.2,4146],[37.2,4231],[37.2,4328],[37.2,4411],[38.4,4508],[38.8,4598],[38.8,4681],[38.2,4772],[37.2,4856],[37.3,4953],[41.4,5050],[43.1,5133],[44.1,5229],[46.2,5314],[47,5411],[47,5507],[46.8,5593],[42.2,5689],[38,5781],[37.7,5869],[37.7,5968],[37.6,6050],[37,6147],[36.9,6246],[35.8,6329],[34,6425],[34,6510],[34,6607],[33.7,6704],[32.7,6787],[32.6,6883],[31.4,6977],[30.5,7066],[30.5,7161],[30.5,7246],[30.5,7343],[30.5,7440],[30.5,7523],[30.5,7621],[30.5,7708],[30.5,7800],[30.5,7898],[30.5,7982],[30.5,8079],[30.5,8162],[30.5,8260],[30.5,8351],[31.2,8434],[32.1,8531],[32.2,8614],[32.2,8712],[32.9,8810],[34.5,8892],[35.8,8989],[35.8,9080],[35.8,9170],[35.8,9267],[35.8,9352],[35.8,9448],[38.4,9545],[40.6,9628],[41.6,9726],[42.2,9810],[42.2,9906],[42.2,10011],[42.2,10093],[42.2,10191],[42.2,10284],[43.5,10372],[45.2,10469],[45.8,10553],[45.8,10650],[45.8,10747],[45.8,10830],[45.8,10930],[45.8,11012],[45.8,11108],[45.8,11205],[45.8,11289],[45.5,11387],[44.4,11491],[44.4,11566],[47.1,11664],[48.8,11747],[48.8,11845],[49.5,11944],[49.9,12026]]",1,0,518.615,521.045,49.88372093,0.738,"[{""rating"":49.883720930232556,""responseTime"":0.7379999999999427}]",space,1.91,,521.045,Not at all,0,521.05,,,[],,0,16,16,16,1,audio/Narrative8Situation7.wav,audio/Narrative7Situation7.wav,audio/Narrative6Situation7.wav,audio/Narrative5Situation7.wav,3,5,5,4,,,,,,,,,,,,,,,,,,,,,,,,,,,,,,,,,,,,,,,
,,,,,,62fbdda6e4b5a034b71296f8,2024-02-08_15h03.55.213,group3.1-3.2-social-tom,2023.2.2,Win32,146.1988304,65c5074098b851296ff0b7ed,65c5416c80ce2dd1a4552242,,,,,,,,,,,,,,,,,,,,,,,,,,,,,521.051,1,audio/Narrative8Situation8.wav,524.053,,524.053,536.886,"[[49.8,181],[49.8,278],[49.8,360],[49.2,457],[48.8,541],[42.9,640],[38.5,736],[35.9,820],[33.8,918],[33.8,1007],[33.8,1090],[33.8,1187],[33.5,1270],[29.7,1369],[26.9,1471],[26.8,1548],[24,1645],[14.6,1730],[13.3,1826],[10.8,1924],[8.3,2008],[7.2,2105],[5.9,2187],[3.7,2286],[2.2,2383],[0.8,2466],[0.6,2563],[0.6,2649],[0.6,2738],[0.6,2834],[0.6,2918],[0.6,3015],[0.6,3099],[0.6,3196],[0.6,3293],[0.6,3376],[0.6,3474],[0.6,3566],[0.6,3653],[0.6,3751],[0.6,3836],[0.6,3932],[0.6,4031],[0.6,4113],[0.6,4211],[0.6,4293],[0.6,4390],[0.6,4488],[0.6,4572],[0.6,4668],[0.6,4755],[0.6,4842],[0.6,4940],[0.6,5023],[0.6,5120],[0.6,5205],[0.6,5301],[0.6,5399],[0.6,5481],[0.6,5579],[0.6,5680],[0.6,5759],[0.6,5860],[1.7,5941],[5.3,6038],[7.3,6134],[15.6,6217],[20.1,6308],[20.8,6392],[25.4,6489],[29.8,6586],[30,6671],[30.2,6767],[30.5,6850],[31,6947],[32.2,7046],[34.9,7129],[36.6,7226],[36.6,7317],[36.6,7407],[36.6,7504],[36.6,7586],[36.6,7683],[36.7,7782],[36.7,7865],[36.7,7961],[36.7,8046],[36.7,8143],[36.7,8240],[36.7,8323],[36.7,8421],[36.7,8514],[36.7,8601],[36.7,8698],[36.7,8782],[36.7,8879],[37.7,8979],[38.6,9060],[39,9158],[39.5,9240],[40,9337],[40.8,9437],[42.4,9519],[45.3,9618],[46.8,9698],[48.8,9788],[50.2,9887],[50.5,9971],[50.6,10067],[50.6,10150],[50.6,10250],[52.9,10346],[54.6,10428],[56.4,10527],[57,10619],[57.1,10706],[57.8,10803],[59.5,10888],[60.3,10985],[60.8,11081],[60.8,11164],[60.8,11263],[60.8,11346],[60.8,11443],[61.1,11541],[61.6,11624],[61.6,11721],[61.6,11803],[61.6,11902],[61.7,12000],[61.7,12082],[61.7,12180],[61.7,12277],[61.7,12360],[61.7,12456],[61.7,12541],[64.7,12639],[64.7,12735],[65.1,12818]]",1,0,536.886,540.499,65.75581395,0.934,"[{""rating"":65.75581395348837,""responseTime"":0.9340000000000828}]",space,3.098,,540.499,Not at all,0,540.501,,,[],,0,17,17,17,1,audio/Narrative8Situation8.wav,audio/Narrative7Situation8.wav,audio/Narrative6Situation8.wav,audio/Narrative5Situation8.wav,3,2,5,3,,,,,,,,,,,,,,,,,,,,,,,,,,,,,,,,,,,,,,,
,,,,,,62fbdda6e4b5a034b71296f8,2024-02-08_15h03.55.213,group3.1-3.2-social-tom,2023.2.2,Win32,146.1988304,65c5074098b851296ff0b7ed,65c5416c80ce2dd1a4552242,,,,,,,,,,,,,,,,,,,,,,,,,,,,,540.501,1,audio/Narrative8Situation9.wav,543.501,,543.501,554.805,"[[999,0],[999,90],[999,187],[999,269],[999,368],[999,451],[999,548],[999,646],[999,729],[999,819],[999,902],[26.7,1000],[24.2,1096],[18.4,1180],[10.3,1278],[6.9,1360],[6.9,1459],[6.9,1556],[6.6,1639],[6.3,1735],[6.3,1827],[6.9,1917],[9.7,2022],[9.8,2104],[9.8,2201],[9.8,2298],[9.8,2383],[9.8,2480],[9.8,2562],[9.8,2660],[10.6,2758],[11.2,2841],[11.2,2939],[11.2,3036],[11.2,3119],[11.2,3216],[11.2,3300],[11.3,3397],[12.5,3495],[18.7,3577],[29.4,3675],[34,3758],[37.8,3855],[39.5,3952],[40.2,4037],[40.8,4133],[42.4,4237],[43.8,4314],[44.4,4412],[44.4,4495],[44.4,4591],[44.5,4690],[52.5,4773],[60.2,5509],[72.7,5607],[79.2,5691],[80.8,5787],[80.8,5888],[80.8,5968],[80.8,6065],[80.8,6149],[80.8,6239],[81,6338],[81.4,6420],[81.4,6517],[81.4,6600],[81.4,6697],[81.4,6795],[81.4,6878],[81.4,6975],[81.4,7059],[81.4,7156],[81.4,7253],[81.4,7336],[81.4,7434],[81.4,7517],[81.4,7615],[81.4,7711],[81.4,7795],[81.4,7893],[81.4,7992],[81.4,8072],[81.4,8170],[81.4,8253],[82.1,8351],[85.1,8449],[94,8531],[95.5,8629],[95.5,8713],[95.5,8810],[95.5,8907],[96.7,8990],[98.3,9086],[98.5,9190],[98.5,9268],[98.5,9365],[98.5,9447],[98.5,9546],[98.5,9643],[98.6,9726],[98.6,9824],[98.6,9907],[98.6,9997],[98.6,10095],[98.6,10177],[98.6,10276],[98.6,10359],[98.6,10463],[98.6,10561],[98.6,10644],[98.6,10740],[98.6,10845],[98.6,10921],[98.6,11019],[98.6,11103],[98.6,11200],[98.6,11303]]",1,0,554.805,557.015,98.60465116,0.593,"[{""rating"":98.60465116279069,""responseTime"":0.5929999999999609}]",space,1.698,,557.015,Not at all,0,564.519,0,6.006,"[{""rating"":0,""responseTime"":6.005999999999972}]",space,0,18,18,18,1,audio/Narrative8Situation9.wav,audio/Narrative7Situation9.wav,audio/Narrative6Situation9.wav,audio/Narrative5Situation9.wav,3,2,4,3,,,6.988,,,,,,,,,,,,,,,,,,,,,,,,,,,,,,,,,,,,
,,,,,,62fbdda6e4b5a034b71296f8,2024-02-08_15h03.55.213,group3.1-3.2-social-tom,2023.2.2,Win32,146.1988304,65c5074098b851296ff0b7ed,65c5416c80ce2dd1a4552242,,,,,,,,,,,,,,,,,,,,,,,,,,,567.311,569.889,569.897,2,audio/Narrative13Situation2.wav,569.897,,569.897,599.634,"[[0.1,2001],[16.7,2361],[20,2461],[10.2,2541],[2.2,2639],[0.3,2722],[3,4910],[6.7,5002],[7.4,5086],[7.4,5182],[7.4,5265],[7.4,5362],[7.4,5459],[7.4,5543],[13.1,5640],[18.3,5723],[18.5,5813],[18.5,5905],[18.5,5987],[18.5,6086],[18.5,6168],[18.5,6265],[18.5,6363],[18.5,6445],[18.5,6543],[18.5,6627],[18.5,6725],[18.5,6822],[18.5,6904],[18.5,7001],[18.5,7086],[18.5,7182],[18.5,7279],[18.5,7365],[18.5,7461],[18.5,7546],[18.5,7641],[18.5,7738],[18.5,7822],[18.5,7919],[18.5,8009],[26.7,8093],[35.1,8189],[42.5,8274],[49.8,8370],[56.3,8469],[63.3,8551],[64.9,8649],[66.7,8731],[76.3,8822],[77.6,8919],[77.6,9006],[77.6,9101],[77.6,9184],[77.6,9274],[77.6,9371],[77.6,9455],[77.6,9545],[77.6,9628],[77.2,9726],[76.3,9823],[73.5,9906],[70.6,10003],[70.6,10087],[70.6,10184],[70.6,10275],[70.6,10358],[70.6,10455],[70.6,10538],[70.6,10636],[70.6,10736],[71.2,10817],[71.5,10914],[71.5,11011],[71.7,11094],[72.3,11192],[72.5,11275],[72.8,11372],[72.8,11471],[72.8,11553],[72.8,11650],[72.8,11733],[72.8,11831],[73.3,11928],[75.8,12011],[77,12108],[77,12200],[77,12290],[77,12386],[77,12469],[77,12567],[77,12665],[77,12751],[77,12846],[77,12928],[77,13026],[77,13123],[77,13207],[77,13303],[77,13387],[77,13485],[77,13582],[77,13665],[77,13762],[77,13853],[77,13943],[77,14033],[77,14116],[77,14217],[77,14305],[77,14394],[77,14485],[77,14568],[77,14665],[77,14764],[77,14839],[79.3,14937],[80.1,15020],[80.4,15117],[80.5,15216],[80.5,15298],[81,15395],[81,15478],[81,15568],[81,15668],[81,15750],[81,15846],[78.5,15930],[77.9,16028],[77.9,16125],[77.9,16208],[77.9,16305],[77.9,16389],[77.9,16485],[78.4,16583],[78.6,16670],[78.6,16764],[78.6,16855],[78.6,16944],[78.6,17043],[78.6,17125],[78.6,17222],[78.6,17319],[78.6,17403],[78.6,17501],[78.6,17584],[78.6,17681],[78.6,17771],[78.6,17855],[78.6,17952],[78.6,18036],[78.6,18125],[78.6,18223],[78.6,18306],[78.6,18404],[78.6,18487],[78.6,18577],[78.6,18674],[78.6,18760],[78.6,18855],[78.6,18939],[78.6,19036],[78.6,19133],[78.6,19217],[78.6,19314],[78.6,19405],[78.6,19495],[79.4,19586],[79.5,19668],[79.5,19765],[79.5,19865],[79.5,19945],[79.5,20036],[79.5,20120],[79.5,20217],[79.5,20315],[79.5,20400],[79.5,20495],[79.5,20578],[79.5,20675],[79.5,20774],[79.5,20856],[79.5,20953],[79.5,21038],[79.5,21134],[79.5,21231],[79.5,21315],[79.5,21413],[79.5,21496],[79.5,21592],[79.5,21690],[79.5,21774],[79.5,21865],[79.5,21955],[79.5,22044],[79.5,22141],[79.7,22226],[79.8,22322],[79.9,22419],[79.9,22502],[79.9,22601],[79.9,22683],[80.1,22781],[80.2,22878],[80.2,22961],[81.5,23059],[82.8,23142],[83.6,23240],[83.8,23337],[84.1,23420],[84.2,23517],[84.5,23603],[85.5,23692],[85.7,23781],[85.7,23866],[85.7,23962],[85.7,24045],[85.7,24142],[85.7,24240],[85.7,24323],[85.7,24420],[85.7,24519],[85.7,24594],[85.7,24692],[85.7,24775],[85.7,24872],[85.7,24972],[85.7,25052],[85.7,25144],[85.7,25226],[85.7,25317],[85.7,25418],[85.7,25500],[85.7,25596],[85.7,25678],[85.7,25775],[85.7,25872],[85.7,25956],[85.7,26053],[85.7,26137],[85.7,26235],[85.7,26331],[86.3,26414],[86.7,26512],[86.8,26596],[86.9,26693],[86.9,26790],[86.9,26873],[86.9,26971],[86.9,27062],[86.9,27151],[86.9,27248],[86.9,27332],[86.9,27429],[86.9,27519],[86.9,27602],[86.9,27700],[86.9,27784],[86.9,27867],[86.9,27959],[86.9,28048],[86.9,28145],[86.9,28228],[86.9,28325],[86.9,28424],[86.9,28506],[86.9,28603],[86.9,28687],[86.9,28784],[86.9,28882],[86.9,28966],[86.9,29055],[86.9,29139],[86.9,29236],[86.9,29333],[86.9,29418],[86.9,29514],[87,29597],[87.2,29687]]",1,0,599.634,599.637,,,[],,,,599.637,Partially,50,599.64,,,[],,0,0,0,0,1,audio/Narrative13Situation2.wav,audio/Narrative13Situation2.wav,audio/Narrative13Situation2.wav,audio/Narrative13Situation2.wav,2,2,2,2,,,,,564.519,567.311,space,2.287,,,,,,,,,,,,,,,,,,,,,,,,,,,,,,,
,,,,,,62fbdda6e4b5a034b71296f8,2024-02-08_15h03.55.213,group3.1-3.2-social-tom,2023.2.2,Win32,146.1988304,65c5074098b851296ff0b7ed,65c5416c80ce2dd1a4552242,,,,,,,,,,,,,,,,,,,,,,,,,,,,,599.64,2,audio/Narrative5Situation1.wav,604.643,,604.643,617.921,"[[999,0],[999,82],[999,180],[999,268],[999,347],[999,444],[999,528],[999,625],[999,728],[999,805],[999,903],[999,986],[999,1083],[2,1180],[0.3,1722],[0.2,1813],[0.2,1896],[0.2,1994],[0.2,2091],[0.2,2173],[0.2,2271],[0.2,2355],[0.2,2452]]",1,0,617.921,625.786,16.22093023,6.687,"[{""rating"":0.23255813953488302,""responseTime"":1.8299999999999272},{""rating"":6.627906976744185,""responseTime"":4.985000000000014},{""rating"":16.22093023255814,""responseTime"":6.687000000000012}]",space,7.348,,625.786,Not at all,0,625.789,,,[],,0,1,1,1,1,audio/Narrative7Situation1.wav,audio/Narrative8Situation1.wav,audio/Narrative5Situation1.wav,audio/Narrative6Situation1.wav,2,5,5,2,,,,,,,,,,,,,,,,,,,,,,,,,,,,,,,,,,,,,,,
,,,,,,62fbdda6e4b5a034b71296f8,2024-02-08_15h03.55.213,group3.1-3.2-social-tom,2023.2.2,Win32,146.1988304,65c5074098b851296ff0b7ed,65c5416c80ce2dd1a4552242,,,,,,,,,,,,,,,,,,,,,,,,,,,,,625.789,2,audio/Narrative5Situation2.wav,628.795,,628.795,658.241,"[[999,0],[999,83],[999,180],[999,263],[999,360],[999,458],[14.9,542],[14.1,639],[11.2,738],[4.1,819],[3.3,917],[3.1,1000],[2,1098],[0.1,1195],[6.9,4501],[11.6,4585],[11.6,4682],[11.6,4766],[12.2,4863],[17.8,4961],[18.8,5044],[21.1,5142],[21.1,5234],[21.1,5322],[21.1,5420],[21.1,5503],[21.1,5603],[21.1,5697],[21.1,5780],[21.1,5877],[21.1,5962],[21.1,6057],[21.1,6156],[21.1,6238],[21.1,6336],[21.1,6419],[21.1,6516],[21.1,6614],[21.1,6697],[21.1,6795],[21.1,6892],[21.1,6975],[21.1,7072],[21.1,7156],[21.1,7253],[21.1,7350],[24,7434],[29.3,7531],[31,7615],[33.3,7711],[35.1,7809],[36.7,7893],[39.9,7989],[40.4,8092],[41.8,8171],[42,8268],[42,8351],[42,8448],[43,8546],[43.5,8629],[44.5,8727],[45,8810],[45,8907],[45,9004],[45,9088],[45,9185],[45,9268],[45,9366],[45,9463],[45,9546],[45,9643],[45,9743],[45,9824],[45,9922],[45,10004],[45,10102],[45,10200],[45,10283],[45,10379],[45,10463],[45,10561],[45,10657],[45,10741],[45,10838],[45,10922],[45,11019],[45,11116],[45,11199],[45,11297],[45,11398],[45,11480],[45,11575],[45,11658],[45,11756],[45,11854],[45,11936],[45,12033],[45,12117],[45.2,12214],[47.6,12312],[49.4,12395],[52.4,12492],[52.9,12595],[53.3,12673],[55.6,12770],[58.5,12853],[58.5,12951],[59.4,13048],[60.9,13132],[61.5,13235],[61.9,13312],[61.9,13408],[62.1,13506],[62.7,13590],[63.4,13687],[64.5,13770],[65.5,13867],[65.5,13958],[65.5,14042],[65.5,14139],[65.5,14222],[65.5,14320],[65.5,14410],[65.5,14493],[65.5,14590],[65.5,14674],[65.5,14771],[65.5,14868],[65.5,14951],[65.5,15049],[65.5,15141],[65.5,15223],[65.5,15320],[65.5,15403],[65.5,15501],[65.5,15600],[65.5,15681],[65.5,15778],[65.5,15862],[65.5,15951],[65.5,16050],[65.5,16133],[65.5,16230],[65.5,16314],[65.5,16411],[65.5,16509],[65.5,16591],[65.5,16682],[65.5,16765],[65.5,16862],[65.5,16960],[65.5,17044],[65.5,17141],[65.5,17224],[65.5,17321],[65.5,17411],[65.5,17495],[65.5,17592],[65.5,17675],[65.5,17772],[65.5,17870],[65.5,17953],[65.5,18051],[65.5,18148],[65.5,18230],[65.5,18328],[65.5,18413],[65.5,18495],[65.5,18598],[65.5,18682],[65.5,18780],[65.5,18863],[65.5,18953],[65.5,19051],[65.5,19134],[65.5,19232],[65.5,19315],[65.5,19412],[65.5,19509],[65.5,19593],[65.5,19690],[65.5,19773],[65.5,19871],[65.5,19968],[65.5,20052],[65.5,20148],[65.5,20240],[65.5,20329],[65.5,20420],[67.3,20503],[68.7,20600],[68.7,20691],[68.7,20774],[68.7,20872],[68.7,20956],[68.7,21052],[68.7,21150],[68.7,21226],[68.7,21323],[68.7,21406],[68.7,21504],[68.7,21604],[68.7,21685],[68.7,21782],[68.7,21865],[68.7,21956],[68.7,22052],[68.7,22136],[68.7,22233],[68.7,22317],[68.7,22407],[68.7,22504],[68.7,22587],[68.7,22677],[68.7,22762],[68.7,22859],[68.7,22956],[68.7,23039],[68.7,23137],[68.7,23220],[68.7,23317],[68.7,23415],[68.7,23498],[68.7,23595],[68.7,23679],[68.7,23776],[68.7,23872],[68.7,23956],[68.7,24056],[68.7,24145],[68.7,24234],[68.7,24331],[68.7,24415],[68.7,24512],[68.7,24609],[68.7,24693],[68.7,24791],[68.7,24875],[68.7,24970],[68.7,25068],[68.7,25151],[68.7,25249],[68.7,25331],[68.7,25429],[68.7,25527],[68.7,25610],[68.7,25706],[68.7,25805],[68.7,25890],[68.7,25985],[68.7,26068],[68.7,26166],[68.7,26264],[68.7,26346],[68.7,26444],[68.7,26527],[68.7,26632],[68.7,26728],[68.7,26812],[68.7,26908],[68.7,27009],[68.7,27090],[68.7,27187],[68.7,27274],[68.7,27360],[68.7,27458],[68.7,27542],[68.7,27632],[68.7,27716],[68.7,27812],[68.7,27910],[68.7,27994],[68.7,28090],[68.7,28174],[68.7,28271],[68.7,28360],[68.7,28445],[68.7,28542],[68.7,28626],[68.7,28723],[68.7,28820],[68.7,28903],[68.7,29001],[68.7,29084],[68.7,29181],[72.2,29278],[79.2,29362]]",1,0,658.241,661.124,83.77906977,2.316,"[{""rating"":83.77906976744185,""responseTime"":2.316000000000031}]",space,2.371,,661.124,Not at all,0,661.126,,,[],,0,2,2,2,1,audio/Narrative7Situation2.wav,audio/Narrative8Situation2.wav,audio/Narrative5Situation2.wav,audio/Narrative6Situation2.wav,3,3,3,3,,,,,,,,,,,,,,,,,,,,,,,,,,,,,,,,,,,,,,,
,,,,,,62fbdda6e4b5a034b71296f8,2024-02-08_15h03.55.213,group3.1-3.2-social-tom,2023.2.2,Win32,146.1988304,65c5074098b851296ff0b7ed,65c5416c80ce2dd1a4552242,,,,,,,,,,,,,,,,,,,,,,,,,,,,,661.126,2,audio/Narrative5Situation3.wav,664.126,,664.126,678.022,"[[999,0],[999,96],[999,180],[999,277],[999,369],[999,458],[999,555],[999,641],[999,735],[3.3,833],[2.2,917],[1.7,1013],[1.7,1096],[2.2,1194],[2.6,1286],[4.2,1368],[21.7,1459],[49.3,1542],[52.6,1639],[53.4,1737],[55,1819],[55,1917],[54.1,2000],[52.4,2091],[51.3,2187],[48.4,2271],[42.2,2369],[39.4,2451],[39.1,2548],[39.1,2646],[39.1,2730],[39.1,2826],[43,2920],[59.2,3105],[71.7,3187],[77.7,3288],[77.7,3391],[80.8,3474],[86.7,3562],[89.8,3647],[90.1,3745],[89.4,3841],[88.3,3925],[88.3,4022],[88.3,4105],[88.3,4202],[88.3,4293],[88.3,4377],[88.3,4474],[88.3,4559],[88.3,4654],[88.3,4752],[88.3,4836],[88.3,4935],[88.3,5028],[88.3,5113],[88.3,5210],[88.3,5293],[88.3,5391],[88.3,5489],[88.3,5572],[88.3,5654],[88.3,5738],[88.3,5827],[88.3,5930],[88.3,6009],[88.3,6107],[88.3,6190],[88.3,6287],[88.3,6384],[88.3,6468],[88.3,6565],[88.3,6648],[88.3,6745],[88.3,6843],[88.3,6926],[88.3,7024],[88.3,7107],[88.3,7204],[88.3,7309],[88.3,7392],[88.3,7489],[88.3,7586],[88.3,7677],[88.3,7774],[88.3,7858],[88.3,7955],[88.3,8052],[88.3,8134],[88.3,8233],[88.3,8331],[88.3,8413],[88.3,8509],[88.3,8595],[88.3,8691],[88.3,8785],[88.3,8865],[88.3,8963],[88.3,9046],[88.3,9143],[88.3,9240],[88.3,9324],[88.3,9421],[88.3,9504],[88.3,9596],[88.3,9692],[88.3,9774],[88.3,9872],[88.3,9956],[88.3,10052],[88.3,10151],[88.3,10234],[88.3,10331],[88.3,10432],[88.3,10512],[88.3,10609],[88.3,10692],[88.3,10788],[88.3,10887],[88.3,10971],[88.3,11067],[88.3,11151],[88.3,11249],[88.3,11334],[88.3,11415],[88.3,11512],[88.3,11596],[88.3,11692],[88.3,11790],[88.3,11873],[88.3,11971],[88.3,12053],[88.3,12151],[88.3,12256],[88.3,12339],[88.3,12436],[88.3,12528],[88.3,12610],[88.3,12706],[88.3,12791],[88.3,12888],[88.3,12988],[88.3,13069],[91.3,13158],[93.7,13242],[94.9,13333],[95.5,13434],[95.8,13513],[96.9,13610],[97.2,13694],[97.7,13791],[97.7,13889]]",1,0,678.022,680.682,97.38372093,1.471,"[{""rating"":97.38372093023256,""responseTime"":1.4710000000000036}]",space,2.146,,680.682,Partially,50,680.685,,,[],,0,3,3,3,1,audio/Narrative7Situation3.wav,audio/Narrative8Situation3.wav,audio/Narrative5Situation3.wav,audio/Narrative6Situation3.wav,8,4,3,5,,,,,,,,,,,,,,,,,,,,,,,,,,,,,,,,,,,,,,,
,,,,,,62fbdda6e4b5a034b71296f8,2024-02-08_15h03.55.213,group3.1-3.2-social-tom,2023.2.2,Win32,146.1988304,65c5074098b851296ff0b7ed,65c5416c80ce2dd1a4552242,,,,,,,,,,,,,,,,,,,,,,,,,,,,,680.685,2,audio/Narrative5Situation4.wav,681.69,,681.69,702.068,"[[46.3,1563],[43.1,1653],[43.5,1742],[50.2,1826],[54.4,1924],[54.4,2022],[54.4,2104],[54.4,2201],[54.4,2284],[54.4,2382],[54.4,2473],[54.4,2556],[54.4,2646],[54.4,2730],[54.4,2829],[54.4,2925],[54.4,3007],[54.6,3105],[65.5,3188],[70.9,3285],[70.9,3382],[70.9,3466],[70.9,3563],[70.5,3647],[69,3745],[68.4,3841],[68.4,3925],[68.2,4015],[67,4098],[66.4,4197],[66.4,4293],[66.4,4376],[66.4,4475],[66.4,4565],[66.4,4654],[66.4,4752],[66.4,4836],[66.4,4932],[66.4,5029],[66.4,5113],[64.7,5210],[60.9,5294],[59.2,5391],[59.2,5482],[59.2,5564],[59.2,5662],[59.2,5745],[59.2,5843],[59.2,5940],[59.2,6024],[59.2,6120],[59.2,6203],[59.2,6300],[59.2,6399],[59.2,6481],[59.2,6578],[59.2,6676],[59.2,6760],[59.2,6850],[59.2,6933],[59.2,7030],[59.2,7128],[59.2,7211],[59.2,7308],[59.2,7392],[58.4,7489],[51.6,7586],[49.9,7670],[49.9,7767],[49.9,7850],[50.9,7948],[53.3,8045],[59.5,8128],[76.8,8226],[77.2,8318],[71.9,8406],[61.9,8496],[51.9,8579],[48.4,8677],[43,8775],[35.8,8858],[28.5,8955],[25.3,9038],[25.3,9136],[25.3,9233],[25.3,9317],[37,9413],[59.8,9497],[63.4,9594],[76.8,9692],[83.8,9775],[84.1,9872],[84.1,9955],[84.1,10046],[84.1,10144],[84.1,10226],[84.1,10323],[84.1,10415],[84.1,10504],[84.1,10602],[84.1,10685],[84.1,10775],[84.1,10867],[84.1,10955],[84.1,11056],[84.1,11137],[84.1,11234],[84.1,11331],[84.1,11414],[84.1,11505],[84.1,11590],[84.1,11679],[84.1,11770],[84.1,11859],[84.1,11957],[84.1,12041],[84.1,12123],[84.1,12207],[84.1,12298],[84.1,12394],[84.1,12477],[84.4,12575],[88.1,12666],[90.6,12756],[91.9,12853],[91.9,12936],[91.9,13027],[91.8,13118],[91.8,13207],[91.8,13305],[91.8,13388],[91.8,13486],[91.8,13583],[91.8,13666],[91.8,13766],[91.8,13846],[91.8,13944],[91.8,14041],[91.8,14125],[91.8,14221],[91.8,14305],[91.8,14404],[91.8,14492],[91.8,14576],[91.8,14673],[91.8,14756],[91.8,14854],[91.8,14951],[91.8,15034],[91.8,15131],[91.8,15222],[91.8,15298],[91.8,15396],[91.8,15479],[91.8,15577],[91.8,15668],[91.8,15757],[91.8,15854],[91.8,15938],[91.8,16028],[91.8,16120],[91.8,16209],[91.8,16306],[91.8,16391],[91.8,16487],[91.8,16584],[91.8,16668],[91.8,16758],[91.8,16841],[91.8,16938],[91.8,17036],[91.8,17120],[91.8,17216],[91.8,17300],[91.8,17397],[91.8,17481],[91.8,17564],[91.8,17661],[91.8,17745],[91.8,17846],[91.8,17939],[91.8,18024],[91.8,18120],[91.8,18203],[91.8,18294],[91.8,18391],[91.8,18474],[91.8,18572],[91.8,18655],[91.8,18751],[91.8,18849],[91.8,18932],[91.8,19029],[91.8,19121],[91.8,19210],[91.8,19308],[92,19391],[93.6,19489],[94.2,19586],[94.2,19669],[94.2,19759],[94.2,19842],[94.2,19947],[94.2,20044],[94.2,20127],[94.2,20226],[97.4,20309]]",1,0,702.069,704.404,99.53488372,1.706,"[{""rating"":99.53488372093024,""responseTime"":1.7060000000000173}]",space,1.821,,704.404,Definitely yes,100,704.406,,,[],,0,4,4,4,1,audio/Narrative7Situation4.wav,audio/Narrative8Situation4.wav,audio/Narrative5Situation4.wav,audio/Narrative6Situation4.wav,3,3,1,2,,,,,,,,,,,,,,,,,,,,,,,,,,,,,,,,,,,,,,,
,,,,,,62fbdda6e4b5a034b71296f8,2024-02-08_15h03.55.213,group3.1-3.2-social-tom,2023.2.2,Win32,146.1988304,65c5074098b851296ff0b7ed,65c5416c80ce2dd1a4552242,,,,,,,,,,,,,,,,,,,,,,,,,,,,,704.407,2,audio/Narrative5Situation5.wav,709.412,,709.412,724.834,"[[999,1],[999,83],[999,180],[999,278],[999,361],[999,458],[999,543],[999,639],[999,736],[999,821],[999,918],[999,1019],[36.2,1097],[33.4,1194],[32.9,1280],[31.2,1375],[28.7,1473],[27.8,1558],[23.1,1653],[21.7,1736],[21.7,1841],[21.7,1938],[21.7,2029],[28.7,2126],[29.2,2225],[29.4,2307],[45.3,2404],[47,2487],[47,2586],[47,2682],[46.9,2765],[46.6,2855],[46.5,2939],[46.5,3029],[46.5,3127],[46.5,3211],[46.5,3307],[46.5,3390],[46.5,3488],[46.5,3586],[46.5,3668],[46.5,3765],[46.5,3865],[46.5,3947],[46.5,4043],[37.8,4127],[32.3,4225],[24.8,4326],[18.4,4405],[18.4,4504],[18.4,4586],[18.4,4682],[18,4780],[17.8,4863],[17.7,4964],[17.7,5044],[17.7,5141],[17.7,5238],[17.7,5322],[17.7,5422],[17.7,5516],[17.7,5600],[17.7,5697],[17.7,5780],[17.7,5881],[15.3,5975],[15.1,6058],[15.1,6156],[14.7,6238],[13.3,6336],[13,6434],[12.9,6519],[11.1,6622],[9.9,6720],[9.9,6805],[9.9,6899],[9.2,6982],[8.4,7081],[8.4,7177],[8.4,7261],[8.4,7357],[8.4,7442],[8.4,7539],[8.4,7636],[8.4,7720],[8.4,7817],[8.4,7908],[8.4,7997],[8.4,8097],[8.4,8177],[8.4,8274],[8.4,8372],[8.4,8456],[8.4,8552],[8.1,8636],[7.2,8735],[6,8831],[5.8,8914],[5.3,9011],[4.7,9095],[3.7,9192],[2.8,9290],[2.4,9372],[2.1,9471],[1.3,9562],[0.7,9650],[0.7,9749],[0.7,9831],[0.7,9929],[0.7,10028],[0.7,10110],[0.7,10206],[0.7,10290],[0.3,10387],[0.2,10485],[0.2,10567],[0.2,10665],[0.2,10769],[0.2,10846],[0.2,10943],[0.2,11026],[0.2,11124],[0.2,11221],[0.2,11304],[0.2,11403],[0.2,11485],[0.2,11582],[0.2,11679],[0.2,11762],[0.2,11860],[0.2,11944],[0.2,12041],[0.2,12139],[0.2,12221],[0.2,12318],[0.2,12410],[0.2,12500],[0.2,12596],[0.2,12680],[0.2,12778],[0.2,12875],[0.2,12958],[0.2,13055],[0.2,13139],[0.2,13236],[0.2,13333],[0.2,13418],[0.2,13514],[0.2,13597],[0.2,13694],[0.2,13794],[0.2,13875],[0.2,13972],[0.2,14064],[0.2,14153],[0.2,14245],[0.2,14327],[0.2,14424],[0.2,14521],[0.2,14605],[0.2,14702],[0.2,14785],[0.2,14882],[0.2,14981],[0.2,15063],[0.2,15161],[0.2,15245],[0.2,15341]]",1,0,724.834,729.249,0.23255814,0.891,"[{""rating"":0.23255813953488302,""responseTime"":0.8909999999999627}]",space,3.893,,729.249,Partially,50,729.253,,,[],,0,5,5,5,1,audio/Narrative7Situation5.wav,audio/Narrative8Situation5.wav,audio/Narrative5Situation5.wav,audio/Narrative6Situation5.wav,5,2,5,2,,,,,,,,,,,,,,,,,,,,,,,,,,,,,,,,,,,,,,,
,,,,,,62fbdda6e4b5a034b71296f8,2024-02-08_15h03.55.213,group3.1-3.2-social-tom,2023.2.2,Win32,146.1988304,65c5074098b851296ff0b7ed,65c5416c80ce2dd1a4552242,,,,,,,,,,,,,,,,,,,,,,,,,,,,,729.253,2,audio/Narrative5Situation6.wav,732.258,,732.258,737.921,"[[1.7,1708],[3,1805],[3,1903],[3.1,1986],[3.1,2084],[4,2632],[7.4,2716],[12.8,2812],[17.4,2896],[30.1,2995],[36.2,3091],[36.2,3174],[36.2,3271],[36.2,3355],[36.2,3452],[36.2,3549],[36.2,3634],[36.2,3723],[36.2,3807],[36.2,3903],[36.2,4001],[36.2,4084],[36.2,4183],[36.2,4274],[36.2,4362],[36.2,4452],[36.2,4536],[36.2,4634],[36.2,4725],[36.2,4814],[36.2,4911],[36.2,4995],[36.2,5092],[36.2,5188],[36.2,5272],[36.2,5370],[36.2,5453],[36.2,5550],[36.2,5647]]",1,0,737.921,741.345,47.55813953,1.796,"[{""rating"":47.55813953488372,""responseTime"":1.7959999999999354}]",space,2.913,,741.345,Definitely yes,100,746.112,99.8255814,3.153,"[{""rating"":99.82558139534883,""responseTime"":3.15300000000002}]",space,0,6,6,6,1,audio/Narrative7Situation6.wav,audio/Narrative8Situation6.wav,audio/Narrative5Situation6.wav,audio/Narrative6Situation6.wav,3,2,3,2,,,4.252,,,,,,,,,,,,,,,,,,,,,,,,,,,,,,,,,,,,
,,,,,,62fbdda6e4b5a034b71296f8,2024-02-08_15h03.55.213,group3.1-3.2-social-tom,2023.2.2,Win32,146.1988304,65c5074098b851296ff0b7ed,65c5416c80ce2dd1a4552242,,,,,,,,,,,,,,,,,,,,,,,,,,,,,746.113,2,audio/Narrative5Situation7.wav,750.114,,750.114,771.139,"[[999,1],[999,89],[999,173],[999,256],[999,341],[999,423],[999,506],[999,605],[999,701],[999,785],[999,882],[999,983],[999,1063],[999,1160],[999,1244],[999,1341],[0.2,1438],[0.3,1524],[0.3,1612],[0.3,1696],[0.3,1793],[0.3,1889],[0.3,1973],[2.7,2071],[27.3,2153],[51.5,2251],[52,2342],[51.9,2424],[45.5,2521],[39,2605],[39,2702],[39,2800],[41.5,2884],[42.8,2980],[42.8,3063],[42.8,3161],[42.8,3259],[42.8,3342],[42.8,3432],[42.6,3535],[42.5,3612],[42.5,3697],[42.5,3779],[42.5,3870],[42.5,3953],[42.5,4050],[42.5,4149],[42.5,4230],[42.5,4328],[42.5,4411],[42.5,4509],[42.5,4605],[42.5,4689],[42.5,4788],[42.5,4879],[42.5,4967],[42.5,5064],[42.5,5149],[42.5,5246],[42.5,5336],[42.5,5419],[42.5,5516],[42.5,5600],[42.5,5697],[42.5,5794],[42.5,5879],[42.5,5975],[42.5,6058],[42.5,6149],[42.5,6247],[42.5,6329],[42.5,6427],[42.5,6509],[42.5,6607],[42.5,6704],[42.5,6788],[42.5,6879],[42.5,6961],[42.5,7059],[42.5,7155],[42.5,7240],[42.5,7337],[42.5,7428],[42.5,7519],[42.5,7607],[42.5,7690],[42.5,7788],[42.5,7886],[42.5,7968],[42.5,8067],[42.5,8149],[42.5,8246],[42.5,8346],[42.5,8427],[42.5,8526],[42.5,8608],[42.5,8706],[45.8,8803],[49.7,8886],[50.8,8983],[50.8,9076],[50.3,9164],[49.1,9261],[48.9,9346],[48.9,9442],[49.4,9540],[49.5,9622],[49.7,9721],[49.7,9803],[49.7,9900],[49.7,9999],[49.7,10081],[49.7,10178],[49.7,10261],[49.7,10360],[49.7,10456],[49.7,10539],[49.7,10636],[49.7,10738],[49.7,10818],[49.7,10915],[49.7,10999],[49.7,11088],[49.7,11180],[49.7,11269],[49.7,11360],[49.7,11442],[49.7,11540],[49.7,11639],[49.7,11721],[49.7,11817],[49.7,11901],[49.7,11999],[49.7,12096],[49.7,12179],[49.7,12278],[49.7,12361],[49.7,12457],[49.7,12554],[49.7,12637],[49.7,12735],[49.7,12818],[49.7,12908],[49.7,13006],[49.7,13089],[49.8,13187],[51.8,13289],[53.5,13367],[54.8,13466],[54.9,13549],[54.9,13645],[54.9,13744],[54.9,13826],[54.9,13923],[54.9,14006],[54.9,14105],[54.9,14201],[54.9,14285],[54.9,14375],[55.1,14458],[56.7,14555],[56.8,14653],[56.8,14736],[56.8,14834],[56.8,14918],[56.8,15014],[56.8,15112],[56.8,15196],[56.8,15293],[56.8,15375],[56.8,15472],[56.8,15569],[56.8,15654],[56.8,15750],[56.8,15841],[56.8,15924],[56.8,16021],[55.5,16105],[49,16202],[46.8,16299],[45.3,16382],[43.8,16480],[43,16564],[43,16660],[42.3,16759],[37.5,16841],[36.7,16939],[36.7,17043],[34.1,17120],[32,17216],[32,17300],[32,17391],[32,17481],[32,17572],[29.5,17668],[25.3,17752],[24.1,17850],[22.4,17947],[20.6,18030],[16.8,18120],[15.1,18203],[13.1,18302],[11.2,18398],[9.2,18482],[8.5,18578],[8.5,18663],[8.5,18759],[8.5,18851],[7.4,18933],[6.7,19029],[6.7,19113],[6.7,19211],[6.7,19308],[6.7,19393],[6.7,19488],[6.7,19572],[6.7,19673],[6.4,19768],[5.2,19850],[4.7,19947],[4.7,20048],[4.7,20129],[4.7,20226],[4.4,20310],[3.8,20401],[3.6,20496],[3.6,20581],[3.6,20677],[3.6,20760],[3.6,20858],[3.6,20954]]",1,0,771.139,773.418,4.127906977,1,"[{""rating"":4.127906976744184,""responseTime"":1}]",space,1.76,,773.418,Not at all,0,773.421,,,[],,0,7,7,7,1,audio/Narrative7Situation7.wav,audio/Narrative8Situation7.wav,audio/Narrative5Situation7.wav,audio/Narrative6Situation7.wav,5,3,4,5,,,,,,,,,,,,,,,,,,,,,,,,,,,,,,,,,,,,,,,
,,,,,,62fbdda6e4b5a034b71296f8,2024-02-08_15h03.55.213,group3.1-3.2-social-tom,2023.2.2,Win32,146.1988304,65c5074098b851296ff0b7ed,65c5416c80ce2dd1a4552242,,,,,,,,,,,,,,,,,,,,,,,,,,,,,773.422,2,audio/Narrative5Situation8.wav,776.427,,776.427,785.237,"[[30.6,1179],[27.2,1278],[19.1,1730],[15.6,1812],[13.5,1909],[13.5,2008],[13.5,2091],[13.4,2187],[12.3,2279],[12.3,2361],[12.3,2458],[12.3,2543],[12.3,2639],[12.3,2740],[12.3,2819],[13.4,2917],[14,3000],[14.1,3091],[13.7,3188],[12.9,3271],[12,3369],[11.3,3451],[11.2,3549],[11.1,3646],[11.1,3730],[11.1,3819],[11.1,3903],[11.1,4000],[11.1,4098],[11.1,4182],[11.1,4279],[11.1,4362],[11.1,4468],[11.1,4557],[11.1,4640],[11.1,4737],[11.1,4830],[11.1,4918],[11.1,5014],[11.1,5098],[11.1,5197],[11.1,5294],[11.1,5376],[11.1,5475],[11.1,5557],[11.1,5655],[11.1,5751],[11.1,5835],[11.1,5918],[11.1,6002],[11.1,6092],[11.1,6189],[11.1,6273],[11.1,6370],[11.1,6453],[11.1,6552],[11.1,6649],[11.1,6731],[11.1,6822],[11.1,6905],[11.1,7002],[11.1,7100],[11.1,7183],[11.1,7280],[11.1,7365],[11.1,7461],[11.1,7557],[11.1,7643],[11.1,7739],[11.1,7831],[11.1,7919],[11.1,8016],[11.1,8100],[11.1,8197],[11.1,8298],[11.1,8377],[13.3,8476],[22.8,8559],[23.8,8658],[23.8,8754]]",1,0,785.237,788.03,16.45348837,1.498,"[{""rating"":16.453488372093023,""responseTime"":1.4979999999999336}]",space,2.263,,788.03,Partially,50,788.033,,,[],,0,8,8,8,1,audio/Narrative7Situation8.wav,audio/Narrative8Situation8.wav,audio/Narrative5Situation8.wav,audio/Narrative6Situation8.wav,2,3,3,5,,,,,,,,,,,,,,,,,,,,,,,,,,,,,,,,,,,,,,,
,,,,,,62fbdda6e4b5a034b71296f8,2024-02-08_15h03.55.213,group3.1-3.2-social-tom,2023.2.2,Win32,146.1988304,65c5074098b851296ff0b7ed,65c5416c80ce2dd1a4552242,,,,,,,,,,,,,,,,,,,,,,,,,,,,,788.033,2,audio/Narrative5Situation9.wav,791.038,,791.038,830.566,"[[16,1924],[16.5,2014],[16.6,2112],[16.6,2196],[16.6,2293],[21.2,2390],[33.8,2474],[38.8,2571],[38.8,2653],[38.8,2751],[38.8,2849],[39.5,2932],[44.4,3029],[45.6,3131],[48.5,3216],[51,3314],[51.1,3398],[51.1,3495],[51.1,3592],[51.1,3676],[51.1,3773],[51,3856],[50.2,3952],[49.9,4051],[49.9,4134],[49.9,4230],[49.9,4332],[49.9,4412],[49.9,4509],[49.9,4592],[49.9,4689],[49.9,4788],[49.9,4870],[50.2,4961],[50.2,5044],[50.2,5134],[50.2,5226],[50.2,5314],[50.2,5419],[50.2,5503],[50.2,5600],[50.2,5697],[50.2,5780],[50.2,5878],[50.2,5961],[50.3,6058],[50.3,6157],[50.3,6240],[50.3,6336],[50.3,6427],[50.3,6516],[50.3,6615],[50.3,6697],[50.3,6794],[50.3,6891],[50.3,6975],[50.3,7073],[55.4,7157],[61.6,7254],[61.8,7351],[61.7,7433],[58.1,7532],[57.6,7634],[57.6,7711],[57.6,7808],[57.6,7893],[57.4,7984],[56.3,8076],[55.9,8157],[55.9,8254],[55.9,8337],[58.4,8434],[64.9,8534],[67.2,8615],[70.1,8706],[72.7,8788],[73,8885],[73,8979],[73,9068],[73,9164],[73,9248],[73,9345],[73,9442],[73,9528],[73,9624],[73,9706],[73.1,9803],[73.4,9902],[73.7,9985],[73.8,10081],[73.8,10164],[73.8,10261],[74.6,10359],[75.8,10442],[76.2,10542],[76.4,10636],[76.4,10721],[76.4,10818],[76.4,10902],[76.4,10991],[76.4,11090],[76.4,11172],[76.4,11269],[76.4,11352],[76.4,11451],[76.4,11548],[76.4,11631],[76.4,11721],[76.4,11804],[76.4,11902],[76.4,12000],[76.4,12083],[76.4,12179],[76.4,12264],[76.4,12360],[76.4,12457],[76.4,12540],[76.4,12639],[76.4,12730],[76.4,12818],[76.4,12917],[76.4,13000],[76.4,13096],[76.4,13187],[76.4,13270],[76.4,13367],[76.4,13451],[76.4,13548],[76.4,13647],[76.4,13730],[76.4,13826],[76.4,13909],[76.4,14000],[76.4,14096],[76.4,14181],[76.4,14278],[76.4,14361],[76.4,14463],[76.4,14557],[76.4,14639],[76.4,14736],[76.4,14821],[76.4,14917],[76.4,15014],[76.4,15097],[76.4,15187],[76.4,15280],[76.4,15369],[76.4,15460],[76.4,15543],[76.4,15640],[76.4,15730],[76.4,15821],[76.4,15918],[76.4,16000],[76.4,16101],[76.4,16188],[76.4,16272],[76.4,16370],[76.4,16452],[76.4,16549],[76.4,16648],[76.4,16730],[76.4,16827],[76.4,16918],[76.4,17009],[76.4,17105],[76.4,17188],[76.4,17287],[76.4,17374],[76.4,17452],[76.4,17551],[76.4,17634],[76.4,17730],[76.4,17816],[76.4,17912],[84.2,18009],[86.2,18092],[87.7,18189],[89.8,18289],[91.1,18370],[92.6,18467],[94.4,18552],[95.2,18649],[97,18745],[98.6,18830],[98.7,18918],[98.8,19003],[99.5,19100],[100,19197],[100,19280],[100,19379],[100,19461],[100,19558],[100,19655],[100,19739],[100,19838],[100,19919],[100,20009],[100,20107],[100,20191],[100,20288],[100,20375],[100,20455],[100,20552],[100,20635],[100,20726],[100,20808],[100,20907],[100,21004],[100,21086],[100,21184],[100,21268],[100,21365],[100,21462],[100,21546],[100,21644],[100,21735],[100,21823],[100,21922],[100,22004],[100,22101],[100,22198],[100,22283],[100,22379],[100,22463],[100,22553],[100,22657],[100,22740],[100,22837],[100,22921],[100,23019],[100,23115],[100,23200],[100,23297],[100,23400],[100,23485],[100,23575],[100,23658],[100,23755],[100,23852],[100,23936],[100,24033],[100,24116],[100,24213],[100,24311],[100,24394],[100,24485],[100,24567],[100,24664],[100,24763],[100,24846],[100,24942],[100,25043],[100,25126],[100,25213],[100,25298],[100,25397],[100,25486],[100,25576],[100,25673],[100,25756],[100,25854],[100,25943],[100,26027],[100,26125],[100,26207],[100,26306],[100,26403],[100,26485],[100,26583],[100,26667],[100,26756],[100,26855],[100,26937],[100,27034],[100,27119],[100,27215],[100,27312],[100,27395],[100,27492],[100,27586],[100,27668],[100,27756],[100,27841],[100,27937],[100,28022],[100,28117],[100,28216],[100,28298],[100,28397],[100,28496],[100,28577],[100,28674],[100,28759],[100,28855],[100,28952],[100,29035],[100,29134],[100,29216],[100,29313],[100,29404],[100,29490],[100,29583],[100,29668],[100,29765],[100,29861],[100,29947],[100,30043],[100,30125],[100,30224],[100,30321],[100,30403],[100,30501],[100,30602],[100,30682],[100,30779],[100,30862],[100,30961],[100,31057],[100,31140],[100,31237],[100,31321],[100,31419],[100,31515],[100,31601],[100,31689],[100,31775],[100,31870],[100,31967],[100,32053],[100,32154],[100,32253],[100,32336],[100,32432],[100,32516],[100,32614],[100,32711],[100,32794],[100,32891],[100,32975],[100,33072],[100,33163],[100,33245],[100,33344],[100,33427],[100,33524],[100,33621],[100,33705],[100,33802],[100,33899],[100,33982],[100,34080],[100,34163],[100,34260],[100,34357],[100,34442],[100,34539],[100,34621],[100,34712],[100,34809],[100,34893],[100,34990],[100,35073],[100,35171],[100,35268],[100,35354],[100,35442],[100,35524],[100,35623],[100,35721],[100,35803],[100,35900],[100,36000],[100,36081],[100,36178],[100,36261],[100,36351],[100,36443],[100,36533],[100,36629],[100,36712],[100,36811],[100,36904],[100,36984],[100,37081],[100,37164],[100,37261],[100,37360],[100,37442],[100,37540],[100,37624],[100,37721],[100,37818],[100,37900],[100,37999],[100,38101],[100,38178],[100,38277],[100,38360],[100,38452],[100,38542],[100,38630],[100,38727],[100,38812],[100,38902],[100,39004],[100,39082],[100,39179],[100,39264],[100,39360],[100,39457]]",1,0,830.566,835.985,100,2.215,"[{""rating"":99.4767441860465,""responseTime"":1.5299999999999727},{""rating"":100,""responseTime"":2.215000000000032}]",space,4.906,,835.985,Not at all,0,835.989,,,[],,0,9,9,9,1,audio/Narrative7Situation9.wav,audio/Narrative8Situation9.wav,audio/Narrative5Situation9.wav,audio/Narrative6Situation9.wav,2,3,3,4,,,,,,,,,,,,,,,,,,,,,,,,,,,,,,,,,,,,,,,
,,,,,,62fbdda6e4b5a034b71296f8,2024-02-08_15h03.55.213,group3.1-3.2-social-tom,2023.2.2,Win32,146.1988304,65c5074098b851296ff0b7ed,65c5416c80ce2dd1a4552242,,,,,,,,,,,,,,,,,,,,,,,,,,,,,835.989,2,audio/Narrative6Situation1.wav,837.998,,837.998,864.569,"[[97.2,2788],[88.4,2877],[37.5,3058],[19.7,3156],[18.8,3240],[15.3,3336],[6.7,3420],[6.7,3516],[6.7,3615],[6.7,3697],[6.7,3794],[6.7,3878],[6.7,3975],[6.7,4073],[6.7,4156],[6.7,4253],[6.7,4351],[6.7,4434],[7.2,4531],[7.3,4615],[7.3,4712],[7.3,4809],[7.3,4894],[9.7,4990],[31.9,5073],[48.5,5170],[57.2,5269],[66,5351],[70.5,5448],[87.7,5552],[88.5,5629],[88.5,5726],[87.8,5810],[86.1,5907],[86,5995],[86,6073],[86.6,6171],[86.7,6254],[86.7,6352],[86.7,6443],[86.7,6532],[86.7,6629],[86.7,6712],[86.7,6810],[86.7,6907],[86.7,6991],[86.7,7088],[86.7,7173],[86.7,7269],[86.7,7366],[86.7,7449],[86.7,7546],[86.7,7630],[86.7,7727],[86.7,7825],[86.7,7908],[86.7,8005],[86.7,8097],[86.7,8185],[86.7,8283],[86.7,8366],[86.7,8463],[86.7,8562],[86.7,8644],[86.7,8742],[86.7,8825],[86.7,8923],[86.7,9020],[86.7,9103],[86.7,9200],[86.7,9305],[90.1,9389],[92.2,9485],[92.6,9569],[92.7,9665],[92.7,9764],[92.7,9849],[92.7,9943],[92.7,10027],[90.6,10125],[89.5,10221],[89.5,10304],[89.5,10402],[89.5,10493],[89.5,10583],[89.5,10680],[89.5,10764],[89.5,10855],[89.5,10945],[89.5,11035],[89.5,11132],[89.5,11216],[89.5,11312],[89.5,11410],[89.5,11493],[89.5,11591],[89.5,11674],[89.5,11771],[89.5,11856],[89.5,11937],[89.5,12035],[89.5,12120],[88,12216],[86.3,12313],[83.5,12397],[79.5,12495],[77.9,12577],[77.6,12674],[77.6,12771],[77.6,12855],[77.6,12952],[77.6,13035],[77.6,13132],[77.6,13230],[77.6,13313],[77.6,13403],[77.6,13507],[77.6,13584],[77.6,13682],[77.6,13765],[77.6,13865],[77.6,13961],[77.6,14043],[77.6,14140],[77.6,14223],[77.6,14322],[78.5,14418],[81.4,14502],[84.1,14601],[84.4,14682],[84.4,14780],[83.8,14877],[83.1,14961],[83,15058],[83,15149],[83,15238],[83,15336],[83,15419],[83,15515],[83,15613],[83,15697],[83,15793],[83,15877],[83,15976],[83,16065],[83,16149],[83,16250],[83,16329],[83,16427],[83,16524],[83,16607],[83,16704],[83,16788],[83,16878],[83,16976],[83,17058],[83,17156],[83,17259],[83,17337],[83,17434],[83,17517],[83,17615],[83,17707],[83,17789],[83,17885],[83,17969],[83,18065],[83,18163],[83,18246],[83,18337],[83,18420],[83,18519],[83,18615],[83,18698],[83,18795],[83,18879],[83,18976],[83,19074],[83,19156],[83,19254],[83,19337],[83,19434],[83,19532],[83,19616],[83,19712],[83,19810],[83,19894],[83,19992],[83,20074],[83,20171],[83,20269],[83,20352],[83,20449],[83,20532],[84.1,20630],[85.2,20727],[86.1,20810],[87.3,20916],[88.7,21012],[89.6,21096],[90.2,21193],[90.4,21276],[90.4,21367],[90.4,21453],[90.4,21540],[90.4,21637],[90.4,21721],[90.4,21818],[90.4,21914],[90.4,21998],[90.4,22089],[90.4,22173],[90.4,22269],[90.4,22367],[90.4,22450],[90.4,22548],[90.4,22631],[90.4,22728],[90.4,22818],[90.4,22902],[90.4,23000],[90.4,23084],[90.4,23180],[90.4,23276],[90.4,23360],[90.4,23457],[90.4,23541],[90.4,23631],[90.4,23728],[90.4,23812],[90.4,23909],[90.4,24012],[90.4,24089],[93.4,24187],[95.1,24270],[96.2,24367],[96.9,24464],[97.6,24549],[97.7,24645],[97.9,24729],[98.5,24827],[98.8,24924],[98.8,25007],[98.8,25097],[98.8,25180],[98.8,25271],[98.8,25370],[98.8,25452],[98.8,25548],[98.8,25632],[98.8,25733],[98.8,25820],[98.8,25903],[98.8,26000],[98.8,26084],[98.8,26181],[98.8,26278],[98.8,26362],[98.8,26459],[98.8,26543]]",1,0,864.57,866.814,98.77906977,0.727,"[{""rating"":98.77906976744187,""responseTime"":0.7269999999999754}]",space,1.725,,866.814,Definitely yes,100,866.817,,,[],,0,10,10,10,1,audio/Narrative8Situation1.wav,audio/Narrative7Situation1.wav,audio/Narrative6Situation1.wav,audio/Narrative5Situation1.wav,5,2,2,5,,,,,,,,,,,,,,,,,,,,,,,,,,,,,,,,,,,,,,,
,,,,,,62fbdda6e4b5a034b71296f8,2024-02-08_15h03.55.213,group3.1-3.2-social-tom,2023.2.2,Win32,146.1988304,65c5074098b851296ff0b7ed,65c5416c80ce2dd1a4552242,,,,,,,,,,,,,,,,,,,,,,,,,,,,,866.817,2,audio/Narrative6Situation2.wav,869.823,,869.823,898.317,"[[55.6,82],[55.3,178],[54,263],[50.5,360],[40.9,916],[23.3,1194],[18.7,1277],[11.3,1375],[11.2,1457],[11.2,1555],[11.2,1653],[11.2,1735],[11.2,1832],[11.2,1916],[18.9,2014],[26.6,2110],[28.1,2195],[31.7,2298],[40,2396],[39.9,2480],[39.9,2576],[39.9,2660],[39.9,2757],[39.9,2855],[39.9,2937],[39.9,3042],[39.9,3143],[39.9,3221],[39.9,3320],[40.7,3403],[46.5,3500],[47.3,3598],[47.3,3681],[53.5,3778],[58.2,3862],[58.2,3959],[58.2,4057],[58.2,4139],[59.2,4230],[82.4,4312],[89.1,4411],[89.1,4509],[89.1,4591],[89.1,4682],[89.1,4764],[88.4,4862],[88.4,4960],[88.4,5043],[88.4,5139],[88.9,5230],[91.6,5321],[91.7,5418],[95.6,5502],[98.7,5599],[98.7,5697],[100,5778],[100,5878],[100,5960],[100,6057],[100,6154],[100,6238],[100,6336],[100,6418],[100,6516],[100,6614],[100,6697],[100,6793],[100,6886],[100,6975],[100,7072],[100,7156],[100,7253],[100,7350],[100,7432],[100,7531],[100,7614],[100,7711],[100,7807],[100,7892],[100,7990],[100,8072],[100,8168],[100,8267],[100,8351],[100,8447],[100,8545],[100,8629],[100,8725],[100,8809],[100,8906],[100,9004],[100,9086],[100,9177],[100,9259],[100,9358],[100,9457],[100,9538],[100,9634],[100,9719],[100,9817],[100,9913],[100,9997],[100,10086],[100,10171],[100,10269],[100,10365],[100,10451],[100,10538],[100,10622],[100,10719],[100,10810],[100,10893],[100,10990],[100,11074],[100,11172],[100,11268],[100,11351],[100,11451],[100,11541],[100,11629],[100,11728],[100,11811],[100,11911],[100,12004],[100,12089],[100,12186],[100,12269],[100,12360],[100,12457],[100,12540],[100,12638],[100,12721],[100,12817],[100,12923],[100,13005],[100,13096],[100,13186],[100,13269],[100,13367],[100,13450],[100,13548],[100,13638],[100,13729],[100,13822],[100,13906],[100,13999],[100,14090],[100,14180],[100,14277],[100,14360],[100,14457],[100,14555],[100,14638],[100,14735],[100,14819],[100,14917],[100,14999],[100,15082],[100,15180],[100,15264],[100,15354],[100,15451],[100,15535],[100,15632],[100,15715],[100,15812],[100,15910],[100,15994],[100,16082],[100,16167],[100,16264],[100,16362],[100,16445],[100,16542],[100,16625],[100,16723],[100,16812],[100,16897],[100,16993],[100,17077],[100,17173],[100,17272],[100,17355],[100,17452],[100,17545],[100,17628],[100,17723],[100,17807],[100,17903],[100,17995],[100,18077],[100,18175],[100,18262],[100,18349],[100,18436],[100,18514],[100,18612],[100,18696],[100,18793],[100,18877],[100,18974],[100,19064],[100,19148],[100,19244],[100,19329],[100,19427],[100,19523],[100,19605],[100,19697],[100,19778],[100,19870],[100,19968],[100,20051],[100,20148],[100,20252],[100,20330],[100,20426],[100,20509],[100,20606],[100,20705],[100,20788],[100,20888],[100,20968],[100,21066],[100,21162],[100,21245],[100,21336],[100,21420],[100,21503],[100,21595],[100,21682],[100,21781],[100,21867],[100,21961],[100,22052],[100,22134],[100,22233],[100,22316],[100,22413],[100,22509],[100,22594],[100,22692],[100,22774],[100,22865],[100,22961],[100,23046],[100,23142],[100,23226],[100,23324],[100,23420],[100,23504],[100,23601],[100,23692],[100,23783],[100,23883],[100,23963],[100,24060],[100,24157],[100,24240],[100,24330],[100,24413],[100,24512],[100,24598],[100,24685],[100,24782],[100,24865],[100,24970],[100,25061],[100,25143],[100,25240],[100,25325],[100,25422],[100,25519],[100,25603],[100,25700],[100,25786],[100,25879],[100,25978],[100,26062],[100,26158],[100,26259],[100,26339],[100,26437],[100,26519],[100,26610],[100,26707],[100,26791],[100,26888],[100,26978],[100,27075],[100,27173],[100,27255],[100,27353],[100,27445],[100,27533],[100,27632],[100,27715],[100,27812],[100,27915],[100,27992],[100,28090],[100,28173],[100,28269],[100,28362],[100,28444]]",1,0,898.317,901.588,99.70930233,2.009,"[{""rating"":99.70930232558139,""responseTime"":2.0090000000000146}]",space,2.752,,901.589,Partially,50,901.592,,,[],,0,11,11,11,1,audio/Narrative8Situation2.wav,audio/Narrative7Situation2.wav,audio/Narrative6Situation2.wav,audio/Narrative5Situation2.wav,3,3,3,3,,,,,,,,,,,,,,,,,,,,,,,,,,,,,,,,,,,,,,,
,,,,,,62fbdda6e4b5a034b71296f8,2024-02-08_15h03.55.213,group3.1-3.2-social-tom,2023.2.2,Win32,146.1988304,65c5074098b851296ff0b7ed,65c5416c80ce2dd1a4552242,,,,,,,,,,,,,,,,,,,,,,,,,,,,,901.592,2,audio/Narrative6Situation3.wav,906.598,,906.598,919.202,"[[98.2,4217],[50.6,4850],[49,4947],[48.5,5030],[48,5128],[41.9,5211],[39.2,5307],[38.8,5405],[38,5489],[37.2,5579],[37.1,5664],[37.1,5760],[37.1,5858],[37.1,5941],[36.3,6037],[32.6,6138],[32.4,6218],[32.4,6315],[32.4,6399],[32.4,6496],[32.4,6583],[32.4,6670],[39.1,6767],[47.3,6850],[60.1,6947],[69.9,7045],[73,7129],[77.4,7225],[81.8,7310],[82.7,7406],[85.2,7504],[85.8,7587],[85.8,7684],[85.8,7771],[85.8,7858],[85.8,7955],[85.8,8039],[85.8,8136],[85.8,8239],[85.8,8316],[85.8,8414],[85.8,8497],[85.8,8588],[85.8,8679],[85.8,8769],[85.8,8865],[85.8,8949],[85.8,9046],[85.8,9146],[85.8,9226],[85.8,9324],[85.8,9407],[85.8,9504],[85.8,9602],[85.8,9685],[85.8,9782],[85.8,9866],[85.8,9963],[85.8,10061],[85.8,10144],[85.8,10241],[85.8,10339],[85.8,10422],[85.8,10519],[85.8,10602],[85.8,10700],[85.8,10804],[85.8,10888],[85.8,10984],[85.8,11068],[85.8,11165],[85.8,11263],[85.8,11346],[85.8,11443],[85.8,11548],[85.8,11631],[85.8,11728],[85.8,11812],[85.8,11909],[85.8,12006],[85.8,12089],[85.8,12187],[89.2,12290],[91.5,12367],[92.4,12458],[92.4,12541]]",1,0,919.202,921.81,92.44186047,0.593,"[{""rating"":92.44186046511628,""responseTime"":0.5929999999999609}]",space,2.092,,921.81,Partially,50,921.819,,,[],,0,12,12,12,1,audio/Narrative8Situation3.wav,audio/Narrative7Situation3.wav,audio/Narrative6Situation3.wav,audio/Narrative5Situation3.wav,4,8,5,3,,,,,,,,,,,,,,,,,,,,,,,,,,,,,,,,,,,,,,,
,,,,,,62fbdda6e4b5a034b71296f8,2024-02-08_15h03.55.213,group3.1-3.2-social-tom,2023.2.2,Win32,146.1988304,65c5074098b851296ff0b7ed,65c5416c80ce2dd1a4552242,,,,,,,,,,,,,,,,,,,,,,,,,,,,,921.82,2,audio/Narrative6Situation4.wav,923.841,,923.841,936.441,"[[90.8,2197],[76.2,2294],[50.5,2475],[43.7,2578],[44.2,2663],[43.8,2759],[40.5,2856],[38.6,2941],[38.5,3038],[38.5,3120],[38.5,3219],[38.5,3322],[38.5,3405],[38.5,3504],[38.5,3595],[40.5,3683],[51.5,3780],[56.5,3865],[56.6,3962],[56.6,4059],[55.2,4143],[54.8,4240],[54.8,4322],[54.8,4421],[55.7,4518],[57.4,4601],[58.1,4697],[58.1,4789],[58.1,4879],[58.1,4975],[58.1,5059],[58.1,5157],[58.1,5255],[58.1,5337],[58.1,5436],[58.1,5519],[58.1,5615],[58.1,5712],[58.1,5797],[58.1,5897],[58.1,5976],[58.1,6073],[58.1,6171],[60.6,6254],[62.6,6360],[63.6,6456],[63.6,6541],[64.2,6636],[73.7,6721],[76.9,6817],[79.5,6916],[81,6998],[81.6,7102],[82.3,7203],[84.9,7283],[87.1,7379],[88,7463],[88,7561],[88,7658],[88,7740],[88,7840],[88,7922],[88,8019],[88,8118],[88,8201],[88,8298],[88,8380],[88,8479],[88,8575],[88,8659],[88,8755],[88,8844],[88,8929],[88,9019],[88,9104],[88,9201],[88,9303],[88,9380],[88,9479],[88,9562],[88,9658],[88,9751],[88,9832],[88,9931],[88,10014],[90.4,10111],[93.4,10208],[95.1,10293],[96.5,10389],[97.1,10474],[97.4,10570],[98.3,10667],[98.5,10750],[98.7,10846],[98.8,10931],[98.8,11028],[99.2,11125],[99.5,11208],[99.5,11306],[99.5,11395],[99.5,11480],[99.5,11576],[99.5,11660],[99.5,11758],[99.5,11849],[99.5,11933],[99.5,12028],[99.5,12112],[99.5,12208],[99.5,12307],[99.5,12389],[99.5,12486],[99.5,12571]]",1,0,936.441,939.351,99.53488372,1.934,"[{""rating"":99.53488372093024,""responseTime"":1.933999999999969}]",space,2.39,,939.351,Partially,50,939.352,,,[],,0,13,13,13,1,audio/Narrative8Situation4.wav,audio/Narrative7Situation4.wav,audio/Narrative6Situation4.wav,audio/Narrative5Situation4.wav,3,3,2,1,,,,,,,,,,,,,,,,,,,,,,,,,,,,,,,,,,,,,,,
,,,,,,62fbdda6e4b5a034b71296f8,2024-02-08_15h03.55.213,group3.1-3.2-social-tom,2023.2.2,Win32,146.1988304,65c5074098b851296ff0b7ed,65c5416c80ce2dd1a4552242,,,,,,,,,,,,,,,,,,,,,,,,,,,,,939.353,2,audio/Narrative6Situation5.wav,941.359,,941.359,949.308,"[[55.3,97],[55.3,193],[55.3,278],[54.5,367],[54,451],[53.9,548],[53.9,645],[53.9,728],[52.6,826],[49.6,909],[49.4,1006],[47.6,1096],[47.2,1180],[47.2,1278],[47.2,1361],[47.2,1458],[47.2,1548],[47.2,1631],[47.2,1728],[47.2,1812],[47.2,1903],[47.2,2000],[47.2,2084],[47.2,2182],[47.2,2264],[47.2,2361],[47.2,2458],[47.2,2541],[47.2,2640],[47.2,2732],[47.2,2819],[47.2,2918],[47.2,3001],[47.2,3098],[47.2,3195],[47.2,3279],[47.2,3368],[47.2,3451],[47.2,3549],[47.2,3648],[47.2,3730],[47.2,3827],[47.2,3911],[47.2,4007],[47.2,4100],[48.8,4182],[56.1,4279],[58.5,4368],[58.6,4461],[59,4557],[59,4640],[59,4738],[59,4822],[59,4911],[59,5009],[59,5092],[58.7,5192],[58.1,5283],[58,5372],[58,5467],[58,5550],[58,5634],[58,5717],[58,5815],[58,5911],[58,5995],[58,6092],[58,6184],[58,6274],[58,6367],[58,6447],[58,6544],[58,6636],[58,6725],[58,6822],[58,6905],[58,7004],[58,7092],[58,7177],[58,7274],[58,7356],[58,7456],[58,7552],[58,7635],[58,7732],[58,7815],[58,7906]]",1,0,949.308,953.17,52.09302326,2.583,"[{""rating"":52.093023255813954,""responseTime"":2.58299999999997}]",space,3.352,,953.17,Not at all,0,953.173,,,[],,0,14,14,14,1,audio/Narrative8Situation5.wav,audio/Narrative7Situation5.wav,audio/Narrative6Situation5.wav,audio/Narrative5Situation5.wav,2,5,2,5,,,,,,,,,,,,,,,,,,,,,,,,,,,,,,,,,,,,,,,
,,,,,,62fbdda6e4b5a034b71296f8,2024-02-08_15h03.55.213,group3.1-3.2-social-tom,2023.2.2,Win32,146.1988304,65c5074098b851296ff0b7ed,65c5416c80ce2dd1a4552242,,,,,,,,,,,,,,,,,,,,,,,,,,,,,953.173,2,audio/Narrative6Situation6.wav,955.178,,955.178,966.24,"[[52.4,452],[54,548],[54,647],[54,730],[54,826],[49.4,1924],[54.8,2384],[53.7,2480],[53.2,2572],[53.9,2662],[67.2,2759],[72.4,2842],[84.4,2938],[92.9,3037],[92.9,3120],[92.9,3217],[92.9,3302],[92.9,3398],[93.1,3495],[94.9,3577],[96.2,3676],[96.2,3768],[96.2,3856],[96.9,3954],[97,4038],[96.8,4134],[94.4,4231],[93.9,4315],[93.9,4413],[93.9,4495],[93.9,4594],[93.9,4690],[93.9,4773],[93.9,4870],[93.9,4955],[93.9,5051],[93.9,5149],[93.9,5231],[93.9,5330],[93.9,5431],[93.9,5509],[93.9,5600],[93.9,5683],[93.9,5781],[93.9,5884],[93.9,5967],[93.9,6067],[93.9,6149],[93.9,6245],[93.9,6344],[93.9,6427],[93.9,6524],[93.9,6608],[93.9,6705],[93.9,6802],[93.9,6885],[93.9,6983],[93.9,7075],[93.9,7163],[93.9,7260],[93.9,7344],[93.9,7442],[93.9,7538],[93.9,7623],[93.9,7720],[93.9,7805],[93.9,7900],[94.4,7998],[95.9,8081],[97.4,8177],[97.7,8269],[97.7,8359],[97.7,8456],[97.7,8539],[97.7,8637],[97.7,8734],[97.7,8817],[97.7,8914],[97.7,8998],[97.7,9095],[97.7,9186],[97.7,9269],[97.7,9365],[97.7,9448],[97.7,9539],[97.7,9637],[97.7,9721],[97.7,9817],[97.7,9900],[97.7,9999],[97.7,10096],[97.7,10178],[97.7,10277],[97.7,10360],[97.7,10450],[97.7,10548],[97.7,10630],[97.7,10735],[97.7,10827],[97.7,10916],[97.7,11013]]",1,0,966.24,969.706,97.6744186,1.045,"[{""rating"":97.67441860465115,""responseTime"":1.044999999999959}]",space,2.952,,969.707,Not at all,0,969.708,,,[],,0,15,15,15,1,audio/Narrative8Situation6.wav,audio/Narrative7Situation6.wav,audio/Narrative6Situation6.wav,audio/Narrative5Situation6.wav,2,3,2,3,,,,,,,,,,,,,,,,,,,,,,,,,,,,,,,,,,,,,,,
,,,,,,62fbdda6e4b5a034b71296f8,2024-02-08_15h03.55.213,group3.1-3.2-social-tom,2023.2.2,Win32,146.1988304,65c5074098b851296ff0b7ed,65c5416c80ce2dd1a4552242,,,,,,,,,,,,,,,,,,,,,,,,,,,,,969.708,2,audio/Narrative6Situation7.wav,974.717,,974.717,999.556,"[[999,0],[999,89],[999,187],[999,269],[999,367],[999,465],[999,548],[999,646],[999,738],[999,826],[999,923],[999,1005],[999,1104],[999,1201],[48.9,1283],[49.7,1382],[49.7,1465],[49.7,1562],[49.7,1659],[49.8,1743],[49.8,1841],[49.8,1923],[49.8,2021],[49.8,2119],[49.8,2201],[49.8,2300],[49.8,2389],[49.8,2481],[49.8,2576],[49.8,2659],[49.8,2758],[49.8,2855],[49,2937],[43.5,3036],[40.4,3119],[32,3216],[25.2,3312],[23.4,3397],[21.8,3486],[20.3,3571],[20.3,3668],[18.3,3766],[17.7,3849],[16.8,3946],[14.7,4028],[13.9,4120],[13,4216],[12.5,4300],[12.5,4397],[12.5,4489],[12.5,4577],[12.5,4675],[12.5,4758],[12.5,4849],[12.5,4941],[12.5,5029],[12.5,5127],[12.5,5211],[12.5,5307],[12.5,5404],[12.5,5488],[12.5,5579],[12.5,5662],[12.5,5759],[12.5,5856],[12.5,5942],[12.5,6037],[12.5,6120],[12.5,6218],[12.5,6307],[12.5,6391],[12.5,6488],[12.5,6572],[12.5,6670],[13,6767],[17.3,6850],[29.5,6947],[86.6,7670],[87.9,7754],[89.6,7850],[90.1,7942],[90.1,8031],[90.1,8129],[90.4,8211],[90.5,8308],[90.5,8407],[90.5,8490],[90.5,8580],[90.5,8663],[90.5,8760],[90.5,8846],[90.5,8933],[90.5,9032],[90.5,9115],[90.5,9211],[90.5,9302],[90.5,9385],[90.5,9483],[90.5,9567],[90.5,9663],[90.5,9760],[90.5,9844],[90.5,9942],[90.5,10024],[90.5,10115],[90.5,10211],[90.5,10297],[90.5,10393],[91.9,10476],[93.5,10574],[94.1,10665],[94.1,10748],[94.9,10839],[97.6,10921],[98.3,11019],[98.8,11115],[98.9,11200],[98.9,11296],[98.9,11379],[99.7,11478],[99.9,11567],[99.9,11651],[99.9,11748],[99.9,11831],[99.9,11928],[99.9,12026],[99.9,12110],[100,12206],[100,12298],[100,12380],[100,12478],[100,12562],[100,12658],[100,12755],[100,12840],[100,12937],[100,13019],[100,13110],[100,13207],[100,13291],[100,13380],[100,13466],[100,13562],[100,13658],[100,13743],[100,13826],[100,13909],[100,14005],[100,14098],[100,14188],[100,14283],[100,14368],[100,14465],[100,14556],[100,14639],[100,14729],[100,14812],[100,14909],[100,15007],[100,15091],[100,15187],[100,15271],[100,15360],[100,15459],[100,15543],[100,15639],[100,15723],[100,15821],[100,15923],[100,16007],[100,16098],[100,16182],[100,16278],[100,16375],[100,16460],[100,16558],[100,16648],[100,16736],[100,16827],[100,16909],[100,17009],[100,17100],[100,17188],[100,17286],[100,17369],[100,17466],[100,17563],[100,17647],[100,17745],[100,17827],[100,17925],[100,18023],[100,18105],[100,18204],[100,18286],[100,18377],[100,18474],[100,18557],[100,18653],[100,18748],[100,18835],[100,18932],[100,19016],[100,19113],[100,19210],[100,19293],[100,19391],[100,19475],[100,19572],[100,19668],[100,19753],[100,19849],[100,19932],[100,20029],[100,20127],[100,20211],[100,20307],[100,20399],[100,20489],[100,20580],[100,20663],[100,20759],[100,20851],[100,20941],[100,21038],[100,21122],[100,21219],[100,21316],[100,21399],[100,21497],[100,21580],[100,21677],[100,21768],[100,21851],[100,21947],[100,22032],[100,22129],[100,22226],[100,22310],[100,22406],[100,22499],[100,22586],[100,22683],[100,22768],[100,22865],[100,22961],[100,23046],[100,23135],[100,23220],[100,23317],[100,23413],[100,23497],[100,23587],[100,23672],[100,23768],[100,23865],[100,23949],[100,24046],[100,24129],[100,24228],[100,24324],[100,24408],[100,24505],[100,24587],[100,24685],[100,24783]]",1,0,999.556,1003.628,99.18604651,3.387,"[{""rating"":99.18604651162791,""responseTime"":3.3869999999999436}]",space,3.556,,1003.628,Definitely yes,100,1003.631,,,[],,0,16,16,16,1,audio/Narrative8Situation7.wav,audio/Narrative7Situation7.wav,audio/Narrative6Situation7.wav,audio/Narrative5Situation7.wav,3,5,5,4,,,,,,,,,,,,,,,,,,,,,,,,,,,,,,,,,,,,,,,
