exp_question,consent.started,consent.stopped,consentResponse.keys,consentResponse.rt,consentResponse.duration,participantID,date,expName,psychopyVersion,OS,frameRate,STUDY_ID,SESSION_ID,opening1.started,opening1.stopped,keyEndingOpening1.keys,keyEndingOpening1.rt,keyEndingOpening1.duration,volumeAdjust.started,volumeAdjust.stopped,endingAdjust.keys,endingAdjust.rt,endingAdjust.duration,opening2.started,opening2.stopped,keyEndingOpening.keys,keyEndingOpening.rt,keyEndingOpening.duration,mouse.x,mouse.y,mouse.leftButton,mouse.midButton,mouse.rightButton,mouse.time,instructionLoop.thisRepN,instructionLoop.thisTrialN,instructionLoop.thisN,instructionLoop.thisIndex,instructionLoop.ran,readyForAudio.started,readyForAudio.stopped,fixation.started,run,audio_played,fixation.stopped,endPractice.keys,audioPre.started,audioPre.stopped,continuousResponses_audio,continuousSlider.response,continuousSlider.rt,intRating.started,intRating.stopped,intQuestionSlider.response,intQuestionSlider.rt,intQuestionSlider.history,confirmResponse.keys,confirmResponse.rt,confirmResponse.duration,catchQuestion.started,catch_label,catch_value,catchQuestion.stopped,catchQuestionSlider.response,catchQuestionSlider.rt,catchQuestionSlider.history,confirmResponse_2.keys,audioRunLoop.thisRepN,audioRunLoop.thisTrialN,audioRunLoop.thisN,audioRunLoop.thisIndex,audioRunLoop.ran,conditions1_1,conditions2_1,conditions1_2,conditions2_2,dur1_1,dur2_1,dur1_2,dur2_2,endPractice.rt,endPractice.duration,confirmResponse_2.rt,confirmResponse_2.duration,runIntervalBreak.started,runIntervalBreak.stopped,endingBreakKey.keys,endingBreakKey.rt,endingBreakKey.duration,connection.started,connection.stopped,connectionEnding.keys,connectionEnding.rt,connectionEnding.duration,readyForText.started,readyForText.stopped,textPre.started,run_dup,textPre.stopped,continuousResponses_text,textRunLoop.thisRepN,textRunLoop.thisTrialN,textRunLoop.thisN,textRunLoop.thisIndex,textRunLoop.ran,text1_1,text1_2,text2_1,text2_2,runBreakText.started,runBreakText.stopped,endingBreakKey_2.keys,endingBreakKey_2.rt,endingBreakKey_2.duration,ending.started,ending.stopped,endingEnding.keys,endingEnding.rt,endingEnding.duration
tom,0.0018,21,y,20.6961,,63052f20afc39e87110eb83e,2024-02-08_16h08.28.421,group3.1-3.2-social-tom,2023.2.2,Win32,120.4819277,65c5074098b851296ff0b7ed,65c54243ee52e7c07a887826,,,,,,,,,,,,,,,,,,,,,,,,,,,,,,,,,,,,,,,,,,,,,,,,,,,,,,,,,,,,,,,,,,,,,,,,,,,,,,,,,,,,,,,,,,,,,,,,,,,,,,,,,,
,,,,,,63052f20afc39e87110eb83e,2024-02-08_16h08.28.421,group3.1-3.2-social-tom,2023.2.2,Win32,120.4819277,65c5074098b851296ff0b7ed,65c54243ee52e7c07a887826,21.0002,34.1612,space,13.1466,,,,,,,,,,,,,,,,,,,,,,,,,,,,,,,,,,,,,,,,,,,,,,,,,,,,,,,,,,,,,,,,,,,,,,,,,,,,,,,,,,,,,,,,,,,,,,,,,,,,,,
,,,,,,63052f20afc39e87110eb83e,2024-02-08_16h08.28.421,group3.1-3.2-social-tom,2023.2.2,Win32,120.4819277,65c5074098b851296ff0b7ed,65c54243ee52e7c07a887826,,,,,,34.1612,68.5864,space,34.1149,,,,,,,,,,,,,,,,,,,,,,,,,,,,,,,,,,,,,,,,,,,,,,,,,,,,,,,,,,,,,,,,,,,,,,,,,,,,,,,,,,,,,,,,,,,,,,,,,
,,,,,,63052f20afc39e87110eb83e,2024-02-08_16h08.28.421,group3.1-3.2-social-tom,2023.2.2,Win32,120.4819277,65c5074098b851296ff0b7ed,65c54243ee52e7c07a887826,,,,,,,,,,,68.5955,138.0729,space,69.4689,,[],[],[],[],[],[],0,0,0,0,1,,,,,,,,,,,,,,,,,,,,,,,,,,,,,,,,,,,,,,,,,,,,,,,,,,,,,,,,,,,,,,,,,,,,,,,,,,,,,,,,
,,,,,,63052f20afc39e87110eb83e,2024-02-08_16h08.28.421,group3.1-3.2-social-tom,2023.2.2,Win32,120.4819277,65c5074098b851296ff0b7ed,65c54243ee52e7c07a887826,,,,,,,,,,,138.0734,213.8464,space,75.7015,,[-0.253125],[0.7527777777777778],[1],[0],[0],[10.364199999988074],1,0,1,0,1,,,,,,,,,,,,,,,,,,,,,,,,,,,,,,,,,,,,,,,,,,,,,,,,,,,,,,,,,,,,,,,,,,,,,,,,,,,,,,,,
,,,,,,63052f20afc39e87110eb83e,2024-02-08_16h08.28.421,group3.1-3.2-social-tom,2023.2.2,Win32,120.4819277,65c5074098b851296ff0b7ed,65c54243ee52e7c07a887826,,,,,,,,,,,213.8468,275.3625,space,61.4943,,[],[],[],[],[],[],2,0,2,0,1,,,,,,,,,,,,,,,,,,,,,,,,,,,,,,,,,,,,,,,,,,,,,,,,,,,,,,,,,,,,,,,,,,,,,,,,,,,,,,,,
,,,,,,63052f20afc39e87110eb83e,2024-02-08_16h08.28.421,group3.1-3.2-social-tom,2023.2.2,Win32,120.4819277,65c5074098b851296ff0b7ed,65c54243ee52e7c07a887826,,,,,,,,,,,275.3687,373.6235,space,98.2458,,[],[],[],[],[],[],3,0,3,0,1,,,,,,,,,,,,,,,,,,,,,,,,,,,,,,,,,,,,,,,,,,,,,,,,,,,,,,,,,,,,,,,,,,,,,,,,,,,,,,,,
,,,,,,63052f20afc39e87110eb83e,2024-02-08_16h08.28.421,group3.1-3.2-social-tom,2023.2.2,Win32,120.4819277,65c5074098b851296ff0b7ed,65c54243ee52e7c07a887826,,,,,,,,,,,373.6239,441.5044,space,67.8715,,[],[],[],[],[],[],4,0,4,0,1,,,,,,,,,,,,,,,,,,,,,,,,,,,,,,,,,,,,,,,,,,,,,,,,,,,,,,,,,,,,,,,,,,,,,,,,,,,,,,,,
,,,,,,63052f20afc39e87110eb83e,2024-02-08_16h08.28.421,group3.1-3.2-social-tom,2023.2.2,Win32,120.4819277,65c5074098b851296ff0b7ed,65c54243ee52e7c07a887826,,,,,,,,,,,,,,,,,,,,,,,,,,,441.5062,444.0804,444.0932,1,audio/Narrative13Situation2.wav,446.0973,,446.0974,475.8319,"[[999,0],[999,92],[999,174],[999,257],[999,342],[999,425],[999,508],[999,591],[999,674],[999,758],[999,841],[999,925],[999,1008],[999,1091],[999,1175],[999,1258],[999,1341],[999,1425],[999,1507],[999,1591],[999,1674],[999,1758],[999,1841],[999,1924],[999,2007],[999,2092],[999,2174],[999,2257],[999,2341],[999,2424],[999,2508],[999,2591],[999,2674],[999,2759],[999,2841],[999,2924],[999,3008],[999,3092],[999,3175],[999,3258],[999,3342],[999,3425],[999,3509],[999,3592],[999,3675],[999,3757],[999,3842],[999,3925],[999,4008],[999,4092],[999,4174],[999,4258],[999,4341],[999,4424],[999,4507],[999,4591],[999,4674],[999,4757],[999,4841],[999,4924],[999,5008],[999,5091],[999,5174],[999,5258],[999,5341],[999,5424],[999,5508],[999,5591],[999,5674],[999,5758],[999,5841],[999,5924],[999,6007],[999,6091],[999,6174],[999,6257],[999,6341],[999,6424],[999,6508],[999,6591],[999,6674],[999,6757],[999,6841],[999,6924],[999,7008],[999,7091],[999,7174],[999,7258],[999,7341],[999,7424],[999,7507],[999,7591],[999,7674],[999,7757],[999,7841],[999,7924],[999,8007],[999,8091],[999,8174],[999,8258],[999,8342],[999,8424],[999,8507],[999,8591],[999,8674],[999,8757],[999,8841],[999,8924],[999,9008],[999,9091],[999,9174],[999,9258],[999,9341],[999,9424],[999,9507],[999,9591],[999,9674],[999,9757],[999,9841],[999,9924],[999,10008],[999,10091],[999,10174],[999,10258],[999,10341],[999,10424],[999,10507],[999,10591],[999,10674],[999,10758],[999,10841],[999,10924],[999,11008],[999,11091],[999,11174],[999,11258],[999,11341],[999,11424],[999,11508],[999,11591],[999,11675],[999,11758],[999,11841],[999,11924],[999,12008],[999,12091],[999,12174],[999,12258],[999,12341],[999,12424],[999,12508],[999,12591],[999,12674],[999,12758],[999,12841],[999,12924],[999,13008],[999,13091],[999,13174],[999,13258],[999,13341],[999,13424],[999,13508],[999,13591],[999,13674],[999,13758],[999,13841],[999,13924],[999,14008],[999,14091],[999,14174],[999,14258],[999,14341],[999,14424],[999,14508],[999,14591],[999,14675],[999,14757],[999,14841],[999,14924],[999,15008],[999,15091],[999,15174],[999,15258],[999,15341],[999,15424],[999,15508],[999,15591],[999,15675],[999,15758],[999,15841],[999,15924],[999,16008],[999,16091],[999,16174],[999,16258],[999,16341],[999,16425],[999,16509],[999,16592],[999,16675],[999,16759],[999,16842],[999,16926],[999,17008],[64,17092],[64.3,17175],[64.5,17259],[65.5,17342],[65.7,17424],[65.7,17508],[65.8,17591],[66.1,17674],[66.4,17759],[66.4,17841],[66.4,17924],[66.6,18008],[66.6,18091],[66.6,18175],[66.6,18258],[66.6,18342],[66.6,18424],[66.6,18508],[66.6,18591],[66.6,18674],[66.6,18758],[66.6,18841],[66.6,18924],[66.6,19008],[66.6,19091],[66.6,19174],[66.6,19258],[66.6,19341],[66.6,19424],[66.6,19507],[66.6,19591],[66.6,19674],[66.6,19758],[66.6,19841],[66.6,19924],[66.6,20007],[66.6,20091],[66.6,20174],[66.6,20258],[66.6,20341],[66.6,20424],[66.6,20507],[66.6,20591],[66.6,20674],[66.6,20757],[66.6,20841],[66.6,20924],[66.6,21008],[66.6,21091],[66.6,21174],[66.6,21257],[66.6,21341],[66.6,21424],[66.6,21508],[66.6,21591],[66.6,21674],[66.6,21757],[66.6,21841],[66.6,21924],[66.6,22008],[66.6,22091],[66.6,22174],[66.6,22258],[66.6,22341],[66.6,22424],[66.6,22508],[66.6,22591],[66.6,22674],[66.6,22758],[66.6,22841],[66.6,22924],[66.6,23008],[66.6,23091],[66.6,23175],[66.6,23258],[66.6,23341],[66.6,23424],[66.6,23507],[66.6,23591],[66.6,23674],[66.6,23758],[66.6,23841],[66.6,23924],[66.6,24008],[66.6,24091],[66.6,24174],[66.6,24258],[66.6,24341],[66.6,24425],[66.6,24507],[66.6,24591],[66.6,24674],[66.6,24758],[66.6,24842],[66.6,24924],[66.6,25008],[66.6,25091],[66.6,25174],[66.6,25258],[66.6,25341],[66.6,25424],[66.6,25507],[66.6,25591],[66.6,25674],[66.6,25757],[66.6,25841],[66.6,25924],[66.6,26008],[66.6,26091],[66.6,26175],[66.6,26258],[66.6,26341],[66.6,26424],[66.6,26508],[66.6,26591],[66.6,26674],[66.6,26758],[66.6,26841],[66.6,26924],[66.6,27008],[66.6,27091],[66.6,27174],[66.6,27258],[66.6,27341],[66.6,27424],[66.6,27508],[66.6,27591],[66.6,27674],[66.6,27758],[66.6,27841],[66.6,27924],[66.6,28009],[66.6,28091],[66.6,28174],[66.6,28258],[66.6,28341],[66.6,28424],[66.6,28508],[66.6,28591],[66.6,28674],[66.6,28758],[66.6,28841],[66.6,28924],[66.6,29008],[66.6,29091],[66.6,29174],[66.6,29258],[66.6,29341],[66.6,29424],[66.6,29508],[66.5,29591],[66.5,29674]]",1,0,475.8321,508.4987,22.8125,31.756,"[{""rating"":65.9375,""responseTime"":0.4175000000000182},{""rating"":65.390625,""responseTime"":1.1521000000238928},{""rating"":50.78125,""responseTime"":6.806500000000028},{""rating"":50.78125,""responseTime"":7.3139999999999645},{""rating"":47.8125,""responseTime"":12.999100000023873},{""rating"":21.40625,""responseTime"":28.99960000002386},{""rating"":21.484375,""responseTime"":29.706000000000017},{""rating"":22.812500000000004,""responseTime"":31.755999999999972}]",space,32.1556,,508.4988,Not at all,0,508.5016,,,[],,0,0,0,0,1,audio/Narrative13Situation2.wav,audio/Narrative13Situation2.wav,audio/Narrative13Situation2.wav,audio/Narrative13Situation2.wav,2,2,2,2,,,,,,,,,,,,,,,,,,,,,,,,,,,,,,,,,,,,,,,
,,,,,,63052f20afc39e87110eb83e,2024-02-08_16h08.28.421,group3.1-3.2-social-tom,2023.2.2,Win32,120.4819277,65c5074098b851296ff0b7ed,65c54243ee52e7c07a887826,,,,,,,,,,,,,,,,,,,,,,,,,,,,,508.502,1,audio/Narrative8Situation1.wav,518.3978,space,518.3978,534.3155,"[[66.6,5000],[62.5,15500],[62,15584],[58.6,15667],[52.5,15750],[46.4,15834],[40.2,15917]]",1,0,534.3156,548.4144,32.890625,11.8099,"[{""rating"":32.890625,""responseTime"":11.809899999976096}]",space,13.5681,,548.4146,Half the time,50,548.4171,,,[],,0,1,1,1,1,audio/Narrative7Situation1.wav,audio/Narrative8Situation1.wav,audio/Narrative5Situation1.wav,audio/Narrative6Situation1.wav,2,5,5,2,9.8818,,,,,,,,,,,,,,,,,,,,,,,,,,,,,,,,,,,,,,
,,,,,,63052f20afc39e87110eb83e,2024-02-08_16h08.28.421,group3.1-3.2-social-tom,2023.2.2,Win32,120.4819277,65c5074098b851296ff0b7ed,65c54243ee52e7c07a887826,,,,,,,,,,,,,,,,,,,,,,,,,,,,,548.4172,1,audio/Narrative8Situation2.wav,551.4229,,551.4229,561.5242,"[[51.3,3256],[50.9,3334],[50.7,3416],[50.5,3499],[50.2,3584],[50,3666],[50,3749],[50,3833],[50,3916],[50.1,3999],[50.1,4083],[50.2,4167],[50.2,4249],[50.2,4333],[50.1,4417],[50,4499],[50,4583],[50,4666],[50,4750],[50,4833],[50,4916],[50,4999],[50,5084],[50,5166],[50,5250],[50,5333],[50,5416],[50,5499],[50,5583],[50,5666],[49.9,5750],[49.8,5833],[49.8,5916],[49.8,5999],[49.8,6083],[49.8,6166],[49.8,6249],[49.6,6333],[49.5,6417],[49.5,6500],[49.5,6583],[49.5,6666],[49.4,6750],[49.3,6834],[49.3,6916],[49.3,7000],[49.3,7083],[49.3,7166],[49.3,7250],[49.3,7333],[49.3,7416],[49.3,7499],[49.3,7583],[49.3,7666],[49.3,7749],[49.3,7833],[49.3,7916],[49.3,7999],[49.3,8084],[49.3,8166],[49.3,8249],[49.3,8333],[49.3,8416],[49.3,8499],[49.3,8583],[49.3,8666],[49.3,8749],[49.3,8833],[49.3,8916],[49.3,8999],[49.3,9083],[49.3,9166],[49.3,9250],[49.3,9333],[49.3,9416],[49.3,9500],[49.3,9583],[49.3,9666],[49.3,9749],[49.3,9833],[48,9917],[45.9,10001],[41.7,10084]]",1,0,561.5242,575.7737,50.234375,13.1851,"[{""rating"":50.234375,""responseTime"":13.185100000023795}]",space,13.7321,,575.7738,Not at all,0,575.7761,,,[],,0,2,2,2,1,audio/Narrative7Situation2.wav,audio/Narrative8Situation2.wav,audio/Narrative5Situation2.wav,audio/Narrative6Situation2.wav,3,3,3,3,,,,,,,,,,,,,,,,,,,,,,,,,,,,,,,,,,,,,,,
,,,,,,63052f20afc39e87110eb83e,2024-02-08_16h08.28.421,group3.1-3.2-social-tom,2023.2.2,Win32,120.4819277,65c5074098b851296ff0b7ed,65c54243ee52e7c07a887826,,,,,,,,,,,,,,,,,,,,,,,,,,,,,575.7763,1,audio/Narrative8Situation3.wav,579.7814,,579.7814,602.1409,"[[999,5],[999,84],[999,167],[49.5,250],[49.5,334],[49.5,416],[49.5,500],[49.5,583],[49.5,667],[49.5,750],[49.5,833],[49.5,919],[49.5,1000],[49.5,1083],[49.5,1168],[49.5,1250],[49.5,1333],[49.5,1416],[49.4,1499],[49.1,1584],[49,1668],[48.8,1750],[48.8,1833],[48.8,1916],[48.8,2000],[48.8,2083],[48.8,2166],[48.8,2252],[48.8,2333],[48.8,2416],[48.8,2499],[48.8,2583],[48.8,2666],[48.8,2750],[48.8,2833],[48.8,2916],[48.8,2999],[48.8,3083],[48.8,3166],[48.8,3249],[48.8,3333],[48.8,3416],[48.8,3499],[48.8,3583],[48.8,3666],[48.8,3750],[48.8,3833],[48.8,3916],[48.8,4000],[48.8,4083],[48.8,4166],[48.8,4249],[48.8,4333],[48.8,4416],[48.8,4500],[48.8,4584],[48.8,4667],[48.8,4749],[48.8,4833],[48.8,4916],[48.8,5000],[48.8,5084],[48.8,5166],[48.8,5250],[48.8,5333],[48.8,5416],[48.8,5499],[48.8,5583],[48.8,5666],[48.8,5749],[48.8,5834],[48.8,5916],[48.8,6000],[48.8,6083],[48.8,6166],[48.8,6250],[48.8,6333],[48.8,6416],[48.8,6500],[48.8,6583],[48.8,6666],[48.8,6749],[48.8,6833],[48.8,6916],[48.8,6999],[48.8,7083],[48.8,7166],[48.8,7250],[48.8,7333],[48.8,7416],[48.8,7499],[48.8,7583],[48.8,7667],[48.8,7750],[48.8,7833],[48.8,7917],[48.8,7999],[48.8,8083],[48.8,8166],[48.8,8250],[48.8,8333],[48.8,8418],[48.8,8500],[48.8,8583],[48.8,8666],[48.8,8749],[48.8,8833],[48.8,8918],[48.8,9000],[48.8,9083],[48.8,9166],[48.8,9250],[48.8,9333],[48.8,9418],[48.8,9500],[48.8,9583],[48.8,9666],[48.8,9749],[48.8,9833],[49.1,9916],[49.8,10000],[50.5,10084],[51,10167],[51.3,10250],[51.5,10333],[52.2,10419],[52.9,10500],[53.8,10584],[54.8,10668],[55.7,10751],[56.7,10834],[58,10917],[59.5,11001],[60.6,11084],[61.6,11167],[62.5,11250],[63.6,11334],[65,11417],[66.2,11500],[67.5,11584],[68.7,11667],[70,11751],[71.2,11834],[72.1,11917],[72.6,12001],[72.8,12083],[72.8,12166],[72.8,12250],[72.8,12333],[72.8,12416],[72.8,12500],[72.8,12583],[72.8,12666],[72.7,12750],[72.4,12834],[72.4,12916],[72.3,13001],[72,13083],[71.9,13166],[71.8,13250],[71.6,13334],[71.4,13416],[71.1,13501],[70.7,13584],[70.3,13666],[69.8,13751],[69.4,13833],[69.2,13916],[69.2,14000],[69.2,14083],[69.2,14166],[69.2,14250],[69.2,14333],[69.2,14416],[69.1,14500],[69.1,14583],[69.1,14666],[69.1,14750],[69.1,14833],[69.1,14916],[69.1,15000],[69.1,15083],[69.1,15166],[69.1,15250],[69.1,15333],[69.1,15416],[69.1,15500],[69.1,15583],[69.1,15667],[69.1,15750],[69.1,15833],[69.1,15916],[69.1,16000],[69.1,16083],[69.1,16166],[69.1,16250],[69.1,16333],[69.1,16416],[69.1,16500],[69.1,16584],[69.1,16666],[69.1,16750],[69.1,16833],[69.1,16916],[69.1,17000],[68.8,17084],[68.5,17166],[68.5,17250],[68.5,17333],[68.5,17416],[68.9,17500],[68.9,17583],[68.9,17666],[68.9,17750],[68.9,17833],[68.9,17916],[68.9,18000],[68.9,18083],[68.9,18166],[68.9,18250],[68.9,18333],[68.9,18416],[68.9,18500],[68.9,18583],[68.9,18667],[68.9,18750],[69,18833],[69,18916],[69,19000],[68.8,19084],[68.7,19167],[68.4,19250],[68.4,19334],[68.4,19416],[68.4,19500],[67.9,19584],[67.3,19667]]",1,0,602.141,616.2983,49.765625,10.8914,"[{""rating"":49.765625,""responseTime"":10.891399999976215}]",space,13.6371,,616.2984,All the time,100,635.6153,100,17.4359,"[{""rating"":99.921875,""responseTime"":12.872099999964234},{""rating"":100,""responseTime"":17.435899999976186}]",space,0,3,3,3,1,audio/Narrative7Situation3.wav,audio/Narrative8Situation3.wav,audio/Narrative5Situation3.wav,audio/Narrative6Situation3.wav,8,4,3,5,,,18.7985,,,,,,,,,,,,,,,,,,,,,,,,,,,,,,,,,,,,
,,,,,,63052f20afc39e87110eb83e,2024-02-08_16h08.28.421,group3.1-3.2-social-tom,2023.2.2,Win32,120.4819277,65c5074098b851296ff0b7ed,65c54243ee52e7c07a887826,,,,,,,,,,,,,,,,,,,,,,,,,,,,,635.6156,1,audio/Narrative8Situation4.wav,638.6235,,638.6235,652.7828,"[[999,0],[999,83],[999,166],[999,250],[999,333],[999,417],[999,499],[999,583],[999,666],[999,749],[999,833],[999,917],[999,1000],[999,1084],[999,1167],[999,1250],[999,1333],[999,1416],[999,1500],[999,1584],[999,1666],[999,1751],[999,1834],[999,1917],[999,2000],[999,2084],[999,2166],[999,2249],[999,2333],[999,2417],[999,2499],[999,2583],[999,2666],[999,2749],[999,2833],[999,2916],[999,3000],[999,3083],[999,3166],[999,3250],[999,3333],[999,3416],[999,3500],[999,3583],[999,3666],[999,3750],[999,3834],[999,3917],[999,4000],[999,4084],[999,4166],[999,4250],[54,4335],[53.9,4416],[51.7,4501],[51.7,4583],[51.7,4667],[52.4,4751],[52.8,4833],[52.8,4916],[52.8,5000],[52.7,5083],[52.7,5166],[52.7,5250],[52.7,5333],[52.7,5416],[52.7,5500],[52.7,5583],[52.7,5666],[52.7,5750],[52.7,5833],[52.7,5916],[52.7,6000],[52.7,6083],[52.7,6166],[52.7,6250],[52.7,6333],[52.7,6417],[52.6,6500],[52.6,6583],[52.6,6666],[52.6,6749],[52.6,6833],[52.6,6916],[52.6,6999],[52.6,7083],[52.6,7166],[52.6,7250],[52.6,7333],[52.6,7416],[52.6,7499],[52.6,7583],[52.6,7666],[52.6,7750],[52.6,7833],[52.6,7916],[52.6,8000],[52.6,8083],[52.6,8166],[52.6,8249],[52.6,8333],[52.6,8416],[52.6,8499],[52.6,8583],[52.6,8666],[52.6,8749],[52.6,8833],[52.6,8916],[52.6,9000],[52.6,9083],[52.6,9166],[52.6,9250],[52.6,9333],[52.6,9416],[52.6,9499],[52.6,9584],[52.6,9666],[52.6,9750],[52.6,9833],[52.6,9916],[52.6,10000],[52.6,10083],[52.6,10166],[52.6,10250],[52.6,10333],[52.6,10416],[52.6,10500],[52.6,10584],[52.6,10666],[52.6,10750],[52.6,10833],[52.6,10916],[52.6,11000],[52.6,11083],[52.6,11166],[52.6,11250],[52.6,11333],[52.6,11416],[52.6,11500],[52.6,11583],[52.6,11666],[52.6,11749],[52.6,11833],[52.6,11916],[52.6,12000],[52.6,12084],[52.6,12166],[52.6,12251],[52.6,12333],[52.6,12416],[52.6,12500],[52.6,12583],[52.6,12666],[52.6,12750],[52.6,12833],[52.6,12916],[52.6,13000],[52.6,13083],[52.6,13166],[52.6,13249],[52.6,13334],[52.6,13417],[52.6,13500],[52.6,13583],[52.6,13666],[52.6,13750],[52.6,13833],[52.6,13916],[52.6,14000],[52.6,14083]]",1,0,652.783,671.6663,35.78125,14.8982,"[{""rating"":35.78125,""responseTime"":14.73030000001188},{""rating"":35.78125,""responseTime"":14.898200000047723}]",space,18.3658,,671.6663,All the time,100,671.673,,,[],,0,4,4,4,1,audio/Narrative7Situation4.wav,audio/Narrative8Situation4.wav,audio/Narrative5Situation4.wav,audio/Narrative6Situation4.wav,3,3,1,2,,,,,,,,,,,,,,,,,,,,,,,,,,,,,,,,,,,,,,,
,,,,,,63052f20afc39e87110eb83e,2024-02-08_16h08.28.421,group3.1-3.2-social-tom,2023.2.2,Win32,120.4819277,65c5074098b851296ff0b7ed,65c54243ee52e7c07a887826,,,,,,,,,,,,,,,,,,,,,,,,,,,,,671.6732,1,audio/Narrative8Situation5.wav,673.6737,,673.6737,681.9072,"[[41.9,2166],[41.9,2250],[41.9,2333],[41.9,2416],[41.9,2500],[41.9,2583],[41.9,2666],[41.9,2750],[42,2833],[42.3,2917],[45.2,3001],[46.4,3084]]",1,0,681.9073,699.049,49.921875,13.8673,"[{""rating"":49.921875,""responseTime"":13.867300000011937}]",space,16.6217,,699.0491,All the time,100,699.0503,,,[],,0,5,5,5,1,audio/Narrative7Situation5.wav,audio/Narrative8Situation5.wav,audio/Narrative5Situation5.wav,audio/Narrative6Situation5.wav,5,2,5,2,,,,,,,,,,,,,,,,,,,,,,,,,,,,,,,,,,,,,,,
,,,,,,63052f20afc39e87110eb83e,2024-02-08_16h08.28.421,group3.1-3.2-social-tom,2023.2.2,Win32,120.4819277,65c5074098b851296ff0b7ed,65c54243ee52e7c07a887826,,,,,,,,,,,,,,,,,,,,,,,,,,,,,699.0505,1,audio/Narrative8Situation6.wav,701.0573,,701.0573,707.5157,"[[999,0],[999,83],[999,166],[999,249],[999,333],[999,416],[999,500],[999,583],[999,666],[999,750],[999,833],[999,916],[999,999],[999,1083],[999,1166],[999,1249],[999,1333],[999,1416],[999,1499],[999,1583],[999,1666],[999,1749],[999,1833],[999,1916],[999,2000],[999,2083],[999,2166],[999,2249],[999,2333],[999,2418],[999,2499],[999,2583],[999,2666],[999,2749],[999,2833],[999,2917],[999,3000],[999,3083],[999,3166],[999,3249],[999,3333],[999,3416],[999,3500],[999,3583],[999,3666],[999,3749],[999,3833],[999,3916],[999,4000],[999,4083],[999,4166],[999,4249],[999,4333],[999,4416],[999,4500],[999,4583],[999,4666],[999,4750],[999,4833],[999,4916],[999,5000],[999,5083],[999,5166],[999,5249],[999,5333],[999,5418],[999,5499],[999,5583],[999,5666],[999,5750],[999,5833],[999,5918],[999,5999],[999,6083],[999,6166],[999,6250],[999,6333],[999,6416]]",1,0,707.5157,729.3083,67.734375,21.3232,"[{""rating"":44.53125,""responseTime"":5.757099999964225},{""rating"":50.07812499999999,""responseTime"":9.418999999999983},{""rating"":67.734375,""responseTime"":21.323199999988105}]",space,21.2755,,729.3084,Not at all,0,729.3106,,,[],,0,6,6,6,1,audio/Narrative7Situation6.wav,audio/Narrative8Situation6.wav,audio/Narrative5Situation6.wav,audio/Narrative6Situation6.wav,3,2,3,2,,,,,,,,,,,,,,,,,,,,,,,,,,,,,,,,,,,,,,,
,,,,,,63052f20afc39e87110eb83e,2024-02-08_16h08.28.421,group3.1-3.2-social-tom,2023.2.2,Win32,120.4819277,65c5074098b851296ff0b7ed,65c54243ee52e7c07a887826,,,,,,,,,,,,,,,,,,,,,,,,,,,,,729.3108,1,audio/Narrative8Situation7.wav,732.3158,,732.3159,744.391,"[[66,5750],[66.6,5834],[67.2,5917],[67.1,6000],[66.3,6084],[65.5,6168],[65.5,6250],[65.5,6333],[65.5,6416],[65.5,6500],[66.7,6591],[68,6675],[68,6758],[68.1,6841],[68.1,6924],[68,7008],[68,7091],[67.9,7175],[67.9,7258],[67.9,7341],[68,7424],[68,7508],[68,7591],[67.8,7675],[67.6,7758],[67.6,7841],[67.6,7924],[67.6,8008],[67.6,8091],[67.6,8174],[67.6,8258],[67.6,8341],[67.6,8425],[67.6,8508],[67.6,8591],[67.6,8675],[67.6,8758],[67.6,8841],[67.6,8925],[67.6,9008],[67.6,9091],[67.6,9175],[67.6,9258],[67.6,9341],[67.6,9425],[67.6,9508],[67.3,9591],[67.3,9675],[67.3,9758],[67.3,9841],[67.3,9925],[67.3,10008],[67.2,10091],[67.1,10175],[67.1,10258],[67.1,10341],[67.1,10425],[67.1,10508],[67.1,10591],[67.1,10675],[67.1,10758],[67.1,10841],[67.1,10925],[67.1,11008],[67.1,11091],[67.1,11174],[67.1,11258],[67.1,11341],[67.1,11425],[67.1,11508],[67.1,11591],[67.1,11674],[67.1,11758],[67.1,11841],[67.1,11925],[67.1,12008]]",1,0,744.391,766.0578,61.953125,19.888,"[{""rating"":61.953125,""responseTime"":19.888000000000034}]",space,21.1477,,766.0578,Not at all,0,766.059,,,[],,0,7,7,7,1,audio/Narrative7Situation7.wav,audio/Narrative8Situation7.wav,audio/Narrative5Situation7.wav,audio/Narrative6Situation7.wav,5,3,4,5,,,,,,,,,,,,,,,,,,,,,,,,,,,,,,,,,,,,,,,
,,,,,,63052f20afc39e87110eb83e,2024-02-08_16h08.28.421,group3.1-3.2-social-tom,2023.2.2,Win32,120.4819277,65c5074098b851296ff0b7ed,65c54243ee52e7c07a887826,,,,,,,,,,,,,,,,,,,,,,,,,,,,,766.0593,1,audio/Narrative8Situation8.wav,769.0661,,769.0662,781.908,"[[61.9,1916],[61.9,1999],[61.9,2083],[61.9,2166],[61.9,2249],[61.9,2333],[61.9,2416],[61.9,2499],[62.3,2583],[63,2666],[63.1,2749],[63.4,2833],[63.4,2916],[63.4,2999],[63.4,3083],[63.4,3166],[63.4,3249],[63.4,3333],[63.4,3416],[63.4,3499],[63.4,3583],[63.4,3666],[63.4,3749],[63.4,3833],[63.4,3916],[63.4,3999],[63.4,4083],[63.4,4166],[63.4,4249],[63.4,4333],[63.4,4416],[63.4,4499],[63.4,4583],[63.4,4666],[63.4,4749],[63.4,4833],[63.4,4916],[63.4,4999],[63.4,5083],[63.4,5166],[63.4,5249],[63.4,5333],[63.4,5416],[63.4,5499],[63.4,5583],[63.4,5666],[63.4,5749],[63.4,5833],[63.4,5916],[63.4,6000],[63.4,6083],[63.4,6166],[63.4,6249],[63.4,6333],[63.4,6416],[63.4,6499],[63.4,6583],[63.4,6666],[63.4,6749],[63.4,6833],[63.4,6916],[63.4,7000],[63.4,7083],[63.4,7166],[63.4,7249],[63.4,7333],[63.4,7416],[63.4,7500],[63.4,7583],[63.4,7666],[63.4,7749],[63.4,7833],[63.4,7916],[63.4,7999],[63.4,8083],[63.4,8166],[63.4,8249],[63.4,8333],[63.4,8416],[63.4,8500],[63.4,8583],[63.4,8666],[63.4,8749],[63.4,8833],[63.4,8916],[63.4,8999],[63.4,9083],[63.4,9166],[63.4,9250],[63.4,9333],[63.4,9416],[63.4,9499],[63.4,9583],[63.4,9666],[63.4,9749],[63.4,9833],[63.4,9916],[63.4,9999],[63.4,10083],[63.4,10166],[63.7,10249],[64.2,10333],[65.2,10416],[66.7,10500],[68.6,10583],[70.9,10666],[73.3,10750],[76.4,10833],[80.4,10916],[83.6,11000],[86.3,11083],[88.2,11166],[90.1,11250],[92,11333],[93.7,11416],[94,11500],[94.9,11583],[96.2,11666],[96.6,11750],[96.6,11833],[96.6,11916],[96.6,11999],[96.6,12083],[96.6,12166],[96.6,12250],[96.6,12333],[96.6,12416],[96.6,12500],[96.6,12583],[96.6,12666],[96.6,12749],[96.6,12833]]",1,0,781.9081,795.6916,99.765625,1.9964,"[{""rating"":99.765625,""responseTime"":1.99639999997612}]",space,13.2637,,795.6916,All the time,100,795.6996,,,[],,0,8,8,8,1,audio/Narrative7Situation8.wav,audio/Narrative8Situation8.wav,audio/Narrative5Situation8.wav,audio/Narrative6Situation8.wav,2,3,3,5,,,,,,,,,,,,,,,,,,,,,,,,,,,,,,,,,,,,,,,
,,,,,,63052f20afc39e87110eb83e,2024-02-08_16h08.28.421,group3.1-3.2-social-tom,2023.2.2,Win32,120.4819277,65c5074098b851296ff0b7ed,65c54243ee52e7c07a887826,,,,,,,,,,,,,,,,,,,,,,,,,,,,,795.6998,1,audio/Narrative8Situation9.wav,798.7006,,798.7006,810.0081,"[[999,0],[999,82],[999,165],[999,249],[999,332],[999,415],[999,499],[999,582],[999,665],[999,749],[999,832],[999,916],[999,999],[999,1082],[999,1165],[999,1249],[999,1332],[999,1415],[999,1499],[999,1582],[999,1665],[999,1749],[999,1832],[999,1915],[999,1999],[999,2082],[999,2165],[999,2249],[999,2332],[999,2415],[999,2499],[999,2582],[999,2665],[999,2749],[999,2832],[999,2915],[999,3000],[999,3083],[999,3166],[999,3249],[999,3332],[999,3415],[999,3499],[999,3582],[999,3665],[999,3749],[999,3832],[999,3915],[999,3999],[999,4082],[999,4165],[999,4249],[999,4332],[999,4415],[999,4499],[999,4582],[999,4665],[999,4749],[999,4832],[999,4915],[999,4999],[999,5082],[999,5165],[999,5249],[999,5332],[999,5415],[999,5499],[999,5582],[999,5666],[999,5749],[999,5832],[999,5915],[999,6000],[999,6082],[999,6165],[999,6249],[999,6332],[999,6415],[999,6499],[999,6582],[999,6666],[999,6749],[999,6832],[999,6915],[999,6999],[999,7082],[999,7165],[999,7249],[999,7332],[999,7415],[999,7499],[999,7582],[999,7665],[999,7749],[999,7832],[999,7915],[999,7999],[999,8082],[999,8165],[999,8249],[999,8332],[999,8415],[999,8499],[999,8582],[999,8665],[999,8749],[999,8832],[999,8915],[999,8999],[999,9082],[999,9165],[999,9249],[999,9332],[999,9415],[999,9499],[999,9582],[999,9666],[999,9749],[999,9832],[999,9915],[999,9999],[999,10082],[999,10165],[999,10249],[999,10332],[999,10415],[999,10499],[999,10582],[999,10665],[999,10749],[999,10832],[999,10916],[999,10999],[999,11082],[999,11165],[999,11249]]",1,0,810.0081,849.0677,69.53125,37.0817,"[{""rating"":73.90625,""responseTime"":35.535199999988095},{""rating"":69.53125,""responseTime"":37.08169999998813}]",space,38.534,,849.0677,Half the time,50,849.0699,,,[],,0,9,9,9,1,audio/Narrative7Situation9.wav,audio/Narrative8Situation9.wav,audio/Narrative5Situation9.wav,audio/Narrative6Situation9.wav,2,3,3,4,,,,,,,,,,,,,,,,,,,,,,,,,,,,,,,,,,,,,,,
,,,,,,63052f20afc39e87110eb83e,2024-02-08_16h08.28.421,group3.1-3.2-social-tom,2023.2.2,Win32,120.4819277,65c5074098b851296ff0b7ed,65c54243ee52e7c07a887826,,,,,,,,,,,,,,,,,,,,,,,,,,,,,849.07,1,audio/Narrative7Situation1.wav,851.0751,,851.0751,906.9422,"[[72.2,919],[72.1,999],[72.1,1083],[71.7,1167],[71.6,1249],[71.6,1333],[71.6,1416],[70,1500],[12.7,9926],[6,10009],[3,10092],[3,10174],[3,10258],[3,10341],[3,10424],[3,10508],[3,10591],[3,10674],[3,10758],[3,10841],[3,10924],[3,11008],[3,11091],[3,11174],[3,11258],[3,11341],[3,11424],[3,11508],[3,11592],[3,11674],[3,11758],[3,11841],[3,11924],[3,12008],[3,12091],[3,12174],[3,12258],[3,12341],[3,12424],[3,12508],[3,12591],[3,12675],[3,12758],[3,12841],[3,12925],[3,13008],[3,13091],[3,13174],[3,13258],[3,13341],[3,13425],[3,13508],[3,13591],[3,13674],[3,13759],[3,13841],[3,13924],[3,14008],[3,14091],[3,14175],[3,14258],[3,14341],[3,14425],[3,14508],[3,14591],[3,14674],[3,14758],[3,14841],[3,14924],[3,15008],[3,15091],[3,15174],[3,15258],[3,15342],[3,15424],[3,15508],[3,15591],[3,15674],[3,15758],[3,15841],[3,15925],[3,16008],[3,16091],[3,16174],[3,16258],[3,16341],[3,16424],[3,16508],[3,16591],[3,16674],[3,16758],[3,16842],[3,16925],[3,17008],[3,17091],[3,17174],[3,17258],[3,17341],[3,17425],[3,17508],[3,17591],[3,17674],[3,17758],[3,17841],[3,17925],[3,18008],[3,18091],[3,18175],[3,18258],[3,18341],[3,18425],[3,18508],[3,18591],[3,18675],[3,18758],[3,18841],[3,18925],[3,19008],[3,19091],[3,19175],[3,19258],[3,19341],[3,19424],[3,19508],[3,19591],[3,19675],[3,19758],[3,19841],[3,19925],[3,20008],[3,20091],[3,20175],[3,20258],[3,20341],[3,20425],[3,20508],[3,20591],[3,20675],[3,20758],[3,20841],[3,20925],[3,21008],[3,21091],[3,21175],[3,21258],[3,21341],[3,21425],[3,21508],[3,21591],[3,21675],[3,21758],[3,21841],[3,21924],[3,22008],[3,22091],[3,22176],[3,22258],[3,22341],[3,22425],[3,22508],[3,22591],[3,22675],[3,22758],[3,22841],[3,22925],[3,23008],[3,23091],[3,23174],[3,23259],[3,23341],[3,23425],[3,23508],[3,23591],[3,23675],[3,23758],[3,23841],[3,23925],[3,24008],[3,24091],[3,24175],[3,24258],[3,24342],[3,24425],[3,24508],[3,24591],[3,24675],[3,24758],[3,24841],[3,24925],[3,25008],[3,25091],[3,25175],[3,25259],[3,25341],[3,25425],[3,25508],[3,25591],[3,25675],[3,25758],[3,25841],[3,25925],[3,26008],[3,26091],[3,26175],[3,26258],[3,26341],[3,26425],[3,26508],[3,26591],[3,26675],[3,26758],[3,26841],[3,26925],[3,27008],[3,27091],[3,27175],[3,27258],[3,27341],[3,27425],[3,27509],[3,27591],[3,27675],[3,27759],[3,27841],[3,27925],[3,28008],[3,28091],[3,28175],[3,28258],[3,28341],[3,28425],[3,28508],[3,28591],[3,28675],[3,28758],[3,28841],[3,28925],[3,29008],[3,29091],[3,29175],[3,29258],[3,29341],[3,29425],[3,29508],[3,29591],[3,29676],[3,29758],[3,29842],[3,29925],[3,30008],[3,30091],[3,30175],[3,30258],[3,30341],[3,30425],[3,30508],[3,30593],[3,30675],[3,30758],[3,30842],[3,30925],[3,31008],[3,31091],[3,31175],[3,31258],[3,31341],[3,31425],[3,31508],[3,31591],[3,31675],[3,31758],[3,31841],[3,31925],[3,32008],[3,32091],[3,32175],[3,32258],[3,32342],[3,32425],[3,32508],[3,32591],[3,32675],[3,32758],[3,32841],[3,32925],[3,33008],[3,33091],[3,33175],[3,33259],[3,33341],[3,33425],[3,33508],[3,33591],[3,33675],[3,33758],[3,33841],[3,33925],[3,34008],[3,34091],[3,34175],[3,34259],[3,34341],[3,34425],[3,34508],[3,34592],[3,34675],[3,34758],[3,34841],[3,34925],[3,35008],[3,35091],[3,35175],[3,35259],[3,35341],[3,35425],[3,35508],[3,35591],[3,35675],[3,35758],[3,35841],[3,35925],[3,36008],[3,36091],[3,36175],[3,36258],[3,36341],[3,36425],[3,36508],[3,36591],[3,36675],[3,36758],[3,36841],[3,36925],[3,37008],[3,37091],[3,37175],[3,37258],[3,37341],[3,37425],[3,37508],[3,37591],[3,37675],[3,37758],[3,37841],[3,37925],[3,38008],[3,38091],[3,38175],[3,38258],[3,38341],[3,38425],[3,38508],[3,38591],[3,38675],[3,38758],[3,38841],[3,38925],[3,39008],[3,39091],[3,39175],[3,39258],[3,39341],[3,39425],[3,39508],[3,39591],[3,39675],[3,39758],[3,39841],[3,39925],[3,40008],[3,40091],[3,40175],[3,40258],[3,40342],[3,40426],[3,40508],[3,40591],[3,40675],[3,40758],[3,40841],[3,40925],[3,41008],[3,41091],[3,41175],[3,41259],[3,41341],[3,41425],[3,41508],[3,41591],[3,41675],[3,41758],[3,41841],[3,41925],[3,42009],[3,42091],[3,42175],[3,42258],[3,42342],[3,42425],[3,42508],[3,42591],[3,42675],[3,42758],[3,42841],[3,42925],[3,43008],[3,43091],[3,43175],[3,43258],[3,43341],[3,43425],[3,43508],[3,43591],[3,43675],[3,43758],[3,43841],[3,43925],[3.4,44008],[3.4,44091],[3.4,44175],[3.4,44258],[3.4,44341],[3.4,44425],[3.4,44508],[3.4,44591],[3.4,44675],[3.4,44758],[3.4,44841],[3.4,44925],[3.4,45008],[3.4,45091],[3.4,45175],[3.4,45258],[3.4,45341],[3.4,45425],[3.4,45508],[3.4,45591],[3.4,45675],[3.4,45758],[3.4,45841],[3.4,45925],[3.4,46008],[3.4,46091],[3.4,46175],[3.4,46258],[3.4,46341],[3.4,46425],[3.4,46508],[3.4,46592],[3.4,46675],[3.4,46758],[3.4,46841],[3.4,46925],[3.4,47008],[3.4,47091],[3.4,47175],[3.4,47258],[3.4,47341],[3.4,47425],[3.4,47508],[3.4,47591],[3.4,47675],[3.4,47758],[3.4,47841],[3.4,47925],[3.4,48009],[3.4,48091],[3.4,48175],[3.4,48258],[3.4,48341],[5.1,48426],[12.2,48509],[21.1,48592],[33.2,48676],[44.8,48760],[57.1,48843],[67.7,48926],[76,49009],[81.4,49092],[86.8,49176],[90.9,49259],[91.4,49342],[93,49426],[93.3,49508],[93.3,49592],[93.3,49675],[93.7,49759],[95.4,49842],[96.6,49926],[97.8,50009],[99.3,50092],[100,50175],[100,50258],[100,50341],[100,50425],[100,50508],[100,50591],[100,50675],[100,50759],[100,50841],[100,50925],[100,51008],[100,51091],[100,51175],[100,51258],[100,51341],[100,51425],[100,51508],[100,51592],[100,51675],[100,51758],[100,51841],[100,51925],[100,52008],[100,52091],[100,52175],[100,52258],[100,52341],[100,52425],[100,52508],[100,52591],[100,52675],[100,52758],[100,52841],[100,52925],[100,53008],[100,53091],[100,53175],[100,53258],[100,53341],[100,53425],[100,53508],[100,53591],[100,53675],[100,53758],[100,53841],[100,53925],[100,54008],[100,54091],[100,54175],[100,54258],[100,54341],[100,54425],[100,54508],[100,54591],[100,54675],[100,54758],[100,54841],[100,54925],[100,55008],[100,55092],[100,55175],[100,55258],[100,55341],[100,55425],[100,55508],[100,55591],[100,55675],[100,55758],[100,55841]]",1,0,906.9424,955.2676,50.625,46.1818,"[{""rating"":75.546875,""responseTime"":34.948300000011955},{""rating"":50.625,""responseTime"":46.18180000001189}]",space,47.8054,,955.2676,Not at all,0,955.2697,,,[],,0,10,10,10,1,audio/Narrative8Situation1.wav,audio/Narrative7Situation1.wav,audio/Narrative6Situation1.wav,audio/Narrative5Situation1.wav,5,2,2,5,,,,,,,,,,,,,,,,,,,,,,,,,,,,,,,,,,,,,,,
,,,,,,63052f20afc39e87110eb83e,2024-02-08_16h08.28.421,group3.1-3.2-social-tom,2023.2.2,Win32,120.4819277,65c5074098b851296ff0b7ed,65c54243ee52e7c07a887826,,,,,,,,,,,,,,,,,,,,,,,,,,,,,955.2698,1,audio/Narrative7Situation2.wav,958.2758,,958.2758,965.7343,"[[999,0],[999,83],[999,166],[999,250],[999,333],[999,416],[999,500],[999,583],[999,666],[999,750],[999,833],[999,916],[999,1000],[999,1083],[999,1166],[999,1250],[999,1334],[999,1416],[999,1500],[999,1584],[999,1667],[999,1750],[999,1833],[999,1916],[999,2000],[999,2083],[999,2166],[999,2250],[999,2333],[999,2416],[999,2500],[999,2583],[999,2667],[999,2750],[999,2833],[999,2917],[999,3000],[999,3083],[999,3167],[999,3250],[999,3334],[999,3416],[999,3500],[999,3583],[999,3666],[999,3750],[999,3833],[999,3916],[999,4000],[999,4083],[999,4166],[999,4250],[999,4333],[999,4416],[999,4500],[999,4583],[999,4666],[999,4750],[999,4833],[999,4917],[999,5000],[999,5084],[999,5166],[999,5250],[999,5333],[999,5416],[999,5500],[999,5583],[999,5666],[999,5750],[999,5833],[999,5916],[999,6000],[999,6083],[999,6166],[999,6250],[999,6334],[999,6417],[999,6500],[999,6583],[999,6666],[999,6750],[999,6833],[999,6917],[999,7000],[999,7083],[999,7166],[999,7250],[999,7333],[999,7416]]",1,0,965.7344,978.8095,9.0625,12.27,"[{""rating"":9.062500000000002,""responseTime"":12.269999999999982}]",space,12.5508,,978.8096,Half the time,50,978.8117,,,[],,0,11,11,11,1,audio/Narrative8Situation2.wav,audio/Narrative7Situation2.wav,audio/Narrative6Situation2.wav,audio/Narrative5Situation2.wav,3,3,3,3,,,,,,,,,,,,,,,,,,,,,,,,,,,,,,,,,,,,,,,
,,,,,,63052f20afc39e87110eb83e,2024-02-08_16h08.28.421,group3.1-3.2-social-tom,2023.2.2,Win32,120.4819277,65c5074098b851296ff0b7ed,65c54243ee52e7c07a887826,,,,,,,,,,,,,,,,,,,,,,,,,,,,,978.812,1,audio/Narrative7Situation3.wav,986.8178,,986.8178,996.0595,"[[45.9,3084],[46.4,3167],[46.5,3250],[46.5,3333],[46.6,3417],[46.6,3500],[46.6,3583],[46.6,3666],[46.6,3749],[46.6,3833],[46.6,3916],[46.6,4000],[46.6,4083],[46.6,4167],[46.6,4250],[46.6,4333],[46.6,4416],[46.6,4499],[46.6,4583],[46.6,4666],[46.6,4749],[46.6,4833],[46.6,4916],[46.6,4999],[46.6,5083],[46.6,5167],[46.6,5249],[46.6,5333],[46.6,5416],[46.6,5500],[46.6,5583],[46.6,5667],[46.6,5750],[46.6,5833],[46.6,5916],[46.6,5999],[46.6,6083],[46.6,6166],[46.6,6249],[46.6,6333],[46.6,6416],[46.6,6499],[46.6,6583],[46.6,6666],[46.6,6749],[46.6,6833],[46.6,6916],[46.6,7000],[46.6,7083],[46.6,7167],[46.6,7249],[46.6,7333],[46.6,7416],[46.6,7499],[46.6,7583],[46.6,7667],[46.6,7749],[46.6,7833],[46.6,7916],[46.6,8000],[46.6,8083],[46.6,8166],[46.6,8250],[46.6,8333],[46.6,8416],[46.6,8500],[46.6,8584],[46.6,8666],[46.6,8749],[46.6,8833],[46.6,8916],[46.6,9000],[46.6,9083],[46.6,9166]]",1,0,996.0596,1012.4263,0,10.9819,"[{""rating"":0,""responseTime"":10.981899999976122}]",space,15.8467,,1012.4263,All the time,100,1012.4338,,,[],,0,12,12,12,1,audio/Narrative8Situation3.wav,audio/Narrative7Situation3.wav,audio/Narrative6Situation3.wav,audio/Narrative5Situation3.wav,4,8,5,3,,,,,,,,,,,,,,,,,,,,,,,,,,,,,,,,,,,,,,,
,,,,,,63052f20afc39e87110eb83e,2024-02-08_16h08.28.421,group3.1-3.2-social-tom,2023.2.2,Win32,120.4819277,65c5074098b851296ff0b7ed,65c54243ee52e7c07a887826,,,,,,,,,,,,,,,,,,,,,,,,,,,,,1012.434,1,audio/Narrative7Situation4.wav,1015.4347,,1015.4347,1027.1514,"[[55.1,4750],[55,4833],[55,4916],[55,4999],[55,5083],[55,5166],[55,5250],[55,5333],[55.2,5416],[60,5501]]",1,0,1027.1515,1050.8357,50.15625,22.9683,"[{""rating"":50.15625,""responseTime"":22.96830000001205}]",space,23.1669,,1050.8358,All the time,100,1050.8368,,,[],,0,13,13,13,1,audio/Narrative8Situation4.wav,audio/Narrative7Situation4.wav,audio/Narrative6Situation4.wav,audio/Narrative5Situation4.wav,3,3,2,1,,,,,,,,,,,,,,,,,,,,,,,,,,,,,,,,,,,,,,,
,,,,,,63052f20afc39e87110eb83e,2024-02-08_16h08.28.421,group3.1-3.2-social-tom,2023.2.2,Win32,120.4819277,65c5074098b851296ff0b7ed,65c54243ee52e7c07a887826,,,,,,,,,,,,,,,,,,,,,,,,,,,,,1050.8369,1,audio/Narrative7Situation5.wav,1055.8433,,1055.8434,1064.3184,"[[56.8,2750],[56.8,2833],[56.8,2916],[56.8,3000],[56.8,3083],[56.8,3166],[56.8,3249],[56.8,3333],[56.8,3416],[56.8,3499],[56.8,3583],[56.8,3666],[56.8,3749],[56.8,3834],[56.8,3917],[56.8,3999],[56.8,4083],[56.8,4166],[56.8,4249],[56.8,4334],[56.8,4416],[56.8,4499],[56.8,4583],[56.8,4666],[56.8,4749],[56.8,4833],[56.8,4916],[56.8,4999],[56.8,5083],[56.8,5166],[56.8,5249],[56.8,5333],[56.8,5416],[56.8,5500],[56.8,5583],[56.8,5666],[56.8,5750],[56.8,5833],[56.8,5916],[56.8,5999],[56.8,6084],[56.8,6166],[56.8,6249],[56.8,6333],[56.8,6417],[56.8,6499],[56.8,6583],[56.8,6666],[56.8,6750],[56.8,6833],[56.8,6916],[56.8,6999],[56.8,7083],[56.8,7167],[56.8,7250],[56.8,7333],[56.8,7416],[56.8,7499],[56.8,7583],[56.8,7667],[56.8,7749],[56.8,7833],[56.8,7916],[56.8,8000],[56.8,8083],[56.8,8166],[56.8,8249],[56.8,8333],[56.8,8416]]",1,0,1064.3185,1073.8111,59.6875,8.3185,"[{""rating"":73.671875,""responseTime"":6.85919999998805},{""rating"":59.68750000000001,""responseTime"":8.318500000000085}]",space,8.9696,,1073.8111,All the time,100,1073.8122,,,[],,0,14,14,14,1,audio/Narrative8Situation5.wav,audio/Narrative7Situation5.wav,audio/Narrative6Situation5.wav,audio/Narrative5Situation5.wav,2,5,2,5,,,,,,,,,,,,,,,,,,,,,,,,,,,,,,,,,,,,,,,
,,,,,,63052f20afc39e87110eb83e,2024-02-08_16h08.28.421,group3.1-3.2-social-tom,2023.2.2,Win32,120.4819277,65c5074098b851296ff0b7ed,65c54243ee52e7c07a887826,,,,,,,,,,,,,,,,,,,,,,,,,,,,,1073.8124,1,audio/Narrative7Situation6.wav,1076.8194,,1076.8194,1086.7769,"[[60.1,1083],[60.2,1166],[60.2,1249],[60.2,1332],[60.2,1415],[60.2,1499],[60.2,1582],[60.2,1665],[60.2,1749],[60.2,1832],[60.2,1915],[60.2,1999],[60.2,2082],[60.2,2165],[60.2,2249],[60.2,2332],[60.2,2416],[60.2,2499],[60.2,2582],[60.2,2666],[60.2,2749],[60.2,2832],[60.2,2915],[60.2,3000],[60.2,3082],[60.2,3165],[60.2,3249],[60.2,3332],[60.2,3415],[60.2,3499],[60.2,3582],[60.2,3665],[60.2,3749],[60.2,3832],[60.2,3915],[60.2,3999],[60.2,4082],[60.2,4165],[60.2,4249],[60.2,4332],[60.2,4415],[60.2,4499],[60.2,4582],[60.2,4665],[60.2,4749],[60.2,4832],[60.2,4915],[60.2,4999],[60.2,5082],[60.2,5165],[60.2,5249],[60.2,5332],[60.2,5415],[60.2,5499],[60.2,5582],[60.2,5665],[60.2,5749],[60.2,5832],[60.2,5915],[60.2,5999],[60.2,6082],[60.2,6165],[60.2,6249],[61.5,6333],[62.7,6416],[63.1,6499],[63.6,6583],[63.9,6666],[64.1,6749],[64.3,6832],[64.4,6915],[64.5,6999],[64.6,7082],[64.8,7166],[65.5,7250],[67.1,7333],[69.1,7416],[70.2,7500],[73.4,7583],[73.8,7665],[74.1,7749],[74.1,7833],[74.4,7915],[74.4,7999],[74.4,8082],[74.5,8165],[74.5,8249],[74.5,8332],[74.5,8415],[74.5,8499],[74.5,8582],[74.5,8665],[74.5,8749],[74.5,8832],[74.5,8915],[74.5,8999],[74.5,9082],[74.5,9165],[74.5,9249],[74.5,9332],[74.5,9415],[74.5,9499],[74.5,9582],[74.5,9665],[74.5,9749],[74.5,9832],[74.5,9915]]",1,0,1086.777,1093.036,100,5.5381,"[{""rating"":100,""responseTime"":5.53810000002386}]",space,5.7351,,1093.036,All the time,100,1093.0371,,,[],,0,15,15,15,1,audio/Narrative8Situation6.wav,audio/Narrative7Situation6.wav,audio/Narrative6Situation6.wav,audio/Narrative5Situation6.wav,2,3,2,3,,,,,,,,,,,,,,,,,,,,,,,,,,,,,,,,,,,,,,,
,,,,,,63052f20afc39e87110eb83e,2024-02-08_16h08.28.421,group3.1-3.2-social-tom,2023.2.2,Win32,120.4819277,65c5074098b851296ff0b7ed,65c54243ee52e7c07a887826,,,,,,,,,,,,,,,,,,,,,,,,,,,,,1093.0373,1,audio/Narrative7Situation7.wav,1098.0437,,1098.0437,1115.1938,"[[999,6],[999,83],[999,167],[999,251],[999,333],[999,416],[999,499],[999,583],[999,666],[999,750],[999,834],[999,917],[999,999],[999,1084],[999,1169],[999,1249],[999,1333],[999,1416],[999,1499],[999,1583],[999,1666],[999,1750],[999,1833],[999,1917],[64.3,2000],[64.3,2084],[64.3,2166],[64.3,2250],[64.3,2333],[64.3,2416],[64.3,2506],[64.4,2583],[64.6,2669],[64.8,2750],[65.3,2834],[66.3,2918],[67.6,3000],[69.1,3084],[71.6,3169],[75,3250],[76.6,3334],[77.6,3417],[78.2,3500],[78.3,3583],[78.3,3666],[78.3,3749],[78.3,3833],[78.3,3916],[78.3,3999],[78.3,4083],[78.3,4166],[78.3,4250],[78.3,4333],[78.4,4416],[78.4,4499],[78.4,4583],[78.4,4666],[78.4,4749],[78.4,4833],[78.4,4916],[78.4,4999],[78.4,5083],[78.4,5166],[78.4,5249],[78.4,5333],[78.4,5416],[78.4,5499],[78.4,5583],[78.4,5666],[78.4,5749],[78.2,5834],[78,5916],[78,5999],[78,6083],[78,6167],[78,6249],[78,6333],[78,6416],[78,6499],[78,6583],[78,6666],[78,6751],[78,6833],[78,6916],[78,6999],[78,7083],[78,7166],[78,7250],[78,7334],[78,7416],[78,7499],[78,7583],[78,7666],[78,7750],[78,7833],[78,7916],[78,8000],[78,8083],[78,8166],[78,8249],[78,8333],[78,8416],[78,8499],[78,8583],[78,8666],[78,8750],[78,8833],[78,8916],[78,9000],[80.2,9084],[82.8,9169],[83,9250],[83.8,9334],[85.7,9417],[87.7,9501],[89.8,9584],[91.3,9669],[93.2,9751],[94.8,9834],[96.3,9917],[97.3,10001],[97.5,10083],[98,10169],[98.3,10250],[98.5,10333],[98.6,10416],[98.6,10499],[98.6,10583],[98.6,10666],[98.6,10750],[98.6,10833],[98.6,10916],[98.6,10999],[98.6,11083],[98.6,11166],[98.6,11249],[98.6,11333],[98.6,11416],[98.6,11499],[98.6,11583],[98.6,11666],[98.6,11750],[98.6,11833],[98.6,11916],[98.6,11999],[98.6,12083],[98.6,12166],[98.6,12249],[98.6,12333],[98.6,12416],[98.6,12499],[98.6,12583],[98.6,12666],[98.6,12750],[98.6,12833],[98.6,12916],[98.6,12999],[98.6,13083],[98.6,13166],[98.6,13250],[98.6,13333],[98.6,13416],[98.6,13500],[98.6,13583],[98.8,13666],[98.9,13751],[99.2,13834],[99.5,13917],[99.8,14000],[100,14083],[100,14166],[100,14250],[100,14333],[100,14417],[100,14500],[100,14583],[100,14666],[100,14750],[100,14833],[100,14917],[100,15000],[100,15084],[100,15166],[100,15250],[100,15333],[100,15416],[100,15500],[100,15583],[100,15666],[100,15749],[100,15833],[100,15916],[100,15999],[100,16083],[100,16167],[100,16249],[100,16333],[100,16417],[100,16500],[100,16583],[100,16666],[100,16749],[100,16833],[100,16916],[100,16999],[100,17083]]",1,0,1115.194,1122.6784,99.609375,2.3058,"[{""rating"":99.609375,""responseTime"":2.3057999999523418}]",space,6.9624,,1122.6784,Half the time,50,1122.686,,,[],,0,16,16,16,1,audio/Narrative8Situation7.wav,audio/Narrative7Situation7.wav,audio/Narrative6Situation7.wav,audio/Narrative5Situation7.wav,3,5,5,4,,,,,,,,,,,,,,,,,,,,,,,,,,,,,,,,,,,,,,,
,,,,,,63052f20afc39e87110eb83e,2024-02-08_16h08.28.421,group3.1-3.2-social-tom,2023.2.2,Win32,120.4819277,65c5074098b851296ff0b7ed,65c54243ee52e7c07a887826,,,,,,,,,,,,,,,,,,,,,,,,,,,,,1122.6861,1,audio/Narrative7Situation8.wav,1124.6939,,1124.6939,1134.6939,"[[999,0],[999,85],[999,167],[999,250],[85.1,334],[84.8,416],[84.8,499],[84.4,583],[84,834],[83.4,917],[83.4,1000],[83.2,1084],[82.1,1500],[81.6,1584],[81.5,1666],[81.2,1750],[79.9,2084],[79.6,2167],[79.5,2250],[79.2,2334],[78.4,2667],[78.4,2749],[78.4,2834],[78.4,2916],[78.4,2999],[78.4,3083],[78.4,3166],[78.4,3249],[78.4,3334],[78.4,3416],[78.4,3499],[78.4,3583],[78.4,3667],[78.4,4000],[78.4,4083],[78,4917],[78,5000],[77.8,5084],[77.7,5167],[77.7,5250],[77.7,5333],[77.7,5416],[78.2,5500],[78.5,5584],[78.5,5667],[78.5,5751],[78.2,5834],[78.1,5917],[78,6251],[78,6333],[78,6416],[78,6499],[78,6583],[78,6666],[78,6749],[78,6833],[78,6916],[78,6999],[78,7083],[78,7166],[78,7249],[78,7333],[78,7416],[78,7500],[78,7583],[78,7667],[78,7750],[77.9,7834],[79.4,8251],[79.9,8334],[79.8,8417],[79.7,8500],[79.7,8584],[79.7,8666],[79.8,8750],[79.8,8834],[79.8,8916],[79.8,9000],[79.8,9083],[79.8,9166],[79.8,9250],[79.8,9333],[79.8,9417],[79.7,9500],[79.7,9583],[79.7,9666],[79.7,9749],[79.7,9833],[79.7,9916],[79.7,9999]]",1,0,1134.6941,1139.8697,99.609375,1.3258,"[{""rating"":99.609375,""responseTime"":1.3258000000118955}]",space,4.6648,,1139.8697,All the time,100,1139.8775,,,[],,0,17,17,17,1,audio/Narrative8Situation8.wav,audio/Narrative7Situation8.wav,audio/Narrative6Situation8.wav,audio/Narrative5Situation8.wav,3,2,5,3,,,,,,,,,,,,,,,,,,,,,,,,,,,,,,,,,,,,,,,
,,,,,,63052f20afc39e87110eb83e,2024-02-08_16h08.28.421,group3.1-3.2-social-tom,2023.2.2,Win32,120.4819277,65c5074098b851296ff0b7ed,65c54243ee52e7c07a887826,,,,,,,,,,,,,,,,,,,,,,,,,,,,,1139.8776,1,audio/Narrative7Situation9.wav,1141.8857,,1141.8857,1150.5024,"[[999,0],[999,83],[999,166],[999,249],[999,333],[999,416],[999,499],[999,583],[999,666],[999,749],[999,833],[999,916],[999,999],[999,1084],[999,1167],[999,1250],[83.8,1334]]",1,0,1150.5024,1157.3032,100,6.1949,"[{""rating"":100,""responseTime"":6.194900000035659}]",space,6.2836,,1157.3032,Half the time,50,1157.3052,,,[],,0,18,18,18,1,audio/Narrative8Situation9.wav,audio/Narrative7Situation9.wav,audio/Narrative6Situation9.wav,audio/Narrative5Situation9.wav,3,2,4,3,,,,,,,,,,,,,,,,,,,,,,,,,,,,,,,,,,,,,,,
,,,,,,63052f20afc39e87110eb83e,2024-02-08_16h08.28.421,group3.1-3.2-social-tom,2023.2.2,Win32,120.4819277,65c5074098b851296ff0b7ed,65c54243ee52e7c07a887826,,,,,,,,,,,,,,,,,,,,,,,,,,,1182.7783,1185.3526,1185.3603,2,audio/Narrative13Situation2.wav,1185.3603,,1185.3604,1215.0862,"[[999,0],[999,75],[999,159],[999,242],[999,325],[999,408],[999,492],[999,575],[999,659],[999,742],[999,829],[999,909],[999,992],[999,1077],[999,1160],[999,1243],[999,1326],[999,1409],[999,1492],[999,1575],[999,1658],[999,1742],[999,1825],[999,1908],[999,1992],[999,2075],[999,2158],[999,2242],[999,2325],[999,2408],[999,2492],[999,2581],[999,2659],[999,2742],[999,2825],[999,2908],[999,2992],[999,3075],[999,3158],[999,3242],[999,3325],[999,3408],[999,3492],[999,3575],[999,3658],[999,3742],[999,3825],[999,3908],[999,3992],[999,4075],[999,4158],[999,4242],[999,4325],[999,4408],[999,4492],[999,4575],[999,4658],[999,4742],[999,4825],[999,4908],[999,4992],[999,5075],[999,5159],[999,5242],[999,5325],[999,5408],[999,5492],[999,5575],[999,5660],[999,5742],[999,5825],[999,5908],[999,5992],[999,6075],[999,6158],[999,6242],[999,6325],[999,6408],[999,6492],[999,6575],[999,6658],[999,6742],[999,6825],[999,6909],[999,6992],[999,7075],[999,7158],[999,7242],[999,7325],[999,7408],[999,7492],[999,7575],[999,7658],[999,7742],[999,7825],[999,7908],[999,7992],[999,8075],[999,8158],[999,8242],[999,8325],[999,8408],[999,8492],[999,8575],[999,8658],[999,8742],[999,8825],[999,8908],[999,8992],[999,9075],[999,9158],[999,9242],[999,9325],[999,9408],[999,9492],[999,9575],[999,9658],[999,9742],[999,9825],[999,9908],[999,9992],[999,10075],[999,10158],[999,10242],[999,10325],[999,10408],[999,10492],[999,10575],[999,10658],[999,10742],[999,10825],[999,10908],[999,10992],[999,11075],[999,11158],[999,11242],[999,11325],[999,11408],[999,11492],[999,11575],[999,11658],[999,11742],[999,11825],[999,11908],[999,11992],[999,12075],[999,12158],[999,12242],[999,12325],[999,12409],[999,12492],[999,12575],[999,12659],[999,12742],[999,12825],[999,12908],[999,12992],[999,13075],[999,13158],[999,13242],[999,13325],[999,13409],[999,13492],[999,13575],[999,13658],[999,13742],[999,13825],[999,13908],[999,13992],[999,14075],[999,14159],[999,14242],[999,14325],[999,14409],[999,14492],[999,14575],[999,14659],[999,14742],[999,14825],[999,14908],[999,14992],[999,15075],[999,15159],[999,15242],[999,15325],[999,15408],[999,15492],[999,15575],[999,15658],[999,15742],[999,15825],[999,15908],[999,15992],[999,16075],[999,16158],[999,16242],[999,16325],[999,16408],[999,16492],[999,16575],[999,16658],[999,16742],[999,16825],[999,16909],[999,16992],[999,17075],[999,17158],[999,17242],[999,17325],[999,17409],[999,17492],[999,17575],[999,17658],[999,17742],[999,17825],[999,17908],[999,17992],[999,18075],[999,18158],[999,18242],[999,18325],[999,18409],[999,18492],[999,18575],[999,18658],[999,18742],[999,18825],[999,18908],[999,18992],[999,19075],[999,19159],[999,19242],[999,19325],[999,19409],[999,19492],[999,19575],[999,19659],[999,19742],[999,19825],[999,19908],[999,19992],[999,20075],[999,20159],[999,20242],[999,20325],[999,20408],[999,20492],[999,20575],[999,20658],[999,20742],[999,20825],[999,20909],[999,20992],[999,21075],[999,21159],[999,21242],[999,21325],[999,21409],[999,21492],[999,21575],[999,21659],[999,21742],[999,21826],[999,21909],[999,21992],[999,22075],[999,22159],[999,22242],[999,22325],[999,22409],[999,22492],[999,22575],[999,22658],[999,22742],[999,22825],[999,22909],[999,22992],[999,23075],[999,23159],[999,23242],[999,23325],[999,23408],[999,23492],[999,23575],[999,23659],[999,23742],[999,23825],[999,23909],[999,23992],[999,24075],[999,24159],[999,24242],[999,24325],[999,24409],[999,24492],[999,24575],[999,24659],[999,24742],[999,24825],[999,24909],[999,24992],[999,25075],[999,25159],[999,25242],[999,25325],[999,25409],[999,25492],[999,25575],[999,25659],[999,25742],[999,25825],[999,25909],[999,25992],[999,26075],[999,26159],[999,26242],[999,26325],[999,26409],[999,26492],[999,26575],[999,26659],[999,26742],[999,26825],[999,26909],[999,26992],[999,27075],[999,27159],[999,27242],[999,27325],[999,27409],[999,27492],[999,27575],[999,27659],[999,27742],[999,27825],[999,27909],[999,27992],[999,28075],[999,28159],[999,28242],[999,28325],[999,28409],[999,28492],[999,28575],[999,28659],[999,28742],[999,28825],[999,28909],[999,28992],[999,29075],[999,29159],[999,29242],[999,29325],[999,29409],[999,29492],[999,29575],[999,29659]]",1,0,1215.0864,1215.0875,,,[],,,,1215.0876,All the time,100,1215.0893,,,[],,0,0,0,0,1,audio/Narrative13Situation2.wav,audio/Narrative13Situation2.wav,audio/Narrative13Situation2.wav,audio/Narrative13Situation2.wav,2,2,2,2,,,,,1157.3058,1182.7781,space,24.9614,,,,,,,,,,,,,,,,,,,,,,,,,,,,,,,
,,,,,,63052f20afc39e87110eb83e,2024-02-08_16h08.28.421,group3.1-3.2-social-tom,2023.2.2,Win32,120.4819277,65c5074098b851296ff0b7ed,65c54243ee52e7c07a887826,,,,,,,,,,,,,,,,,,,,,,,,,,,,,1215.0895,2,audio/Narrative6Situation1.wav,1217.0954,,1217.0954,1243.6614,"[[999,0],[999,83],[999,166],[999,249],[999,333],[36.1,416],[30.9,500],[26.9,583],[24.3,666],[21.5,749],[20.9,832],[20.5,916],[20.2,999],[20.2,1083],[20.2,1165],[20.2,1249],[20.2,1332],[20.2,1416],[20.2,1500],[20.2,1582],[20.2,1665],[20.2,1749],[20.2,1832],[20.2,1915],[20.2,1999],[20.2,2082],[20.2,2165],[20.2,2249],[20.2,2332],[20.2,2415],[20.2,2499],[20.2,2582],[20.2,2665],[20.2,2749],[20.2,2832],[20.2,2915],[20.2,2999],[20.2,3082],[20.2,3165],[20.2,3249],[20.2,3332],[20.2,3415],[20.2,3499],[20.2,3582],[20.2,3666],[20.2,3749],[20.2,3832],[20.2,3915],[20.2,3999],[20.2,4082],[20.2,4165],[20.2,4249],[20.2,4332],[20.2,4415],[20.2,4499],[20.2,4582],[20.2,4666],[20.2,4749],[20.2,4832],[20.2,4915],[20.2,4999],[20.2,5082],[20.2,5165],[20.2,5249],[20.2,5332],[20.2,5415],[20.2,5499],[20.2,5582],[20.2,5665],[20.2,5749],[20.2,5832],[20.2,5915],[20.2,5999],[20.2,6082],[20.2,6165],[20.2,6249],[20.2,6332],[20.2,6415],[20.2,6499],[20.2,6582],[20.2,6666],[20.2,6749],[20.2,6832],[20.2,6915],[20.2,6999],[20.2,7082],[20.2,7165],[20.2,7249],[20.2,7332],[20.2,7415],[20.2,7499],[20.2,7582],[20.2,7665],[20.2,7749],[20.2,7832],[20.2,7915],[20.2,7999],[20.2,8082],[20.8,8166],[21.1,8249],[21.1,8332],[21.3,8415],[21.3,8499],[21.3,8582],[21.3,8665],[21.3,8749],[21.2,8833],[21.2,8915],[21.2,8999],[21.2,9082],[21.2,9165],[21.2,9249],[21.2,9333],[21.2,9415],[21.2,9499],[21.2,9582],[21.2,9665],[21.3,9749],[21.5,9833],[21.8,9916],[22,10000],[22.1,10082],[22.2,10166],[23.8,10250],[26.6,10333],[31.2,10416],[31.9,10499],[32.3,10583],[34.8,10667],[35.2,10749],[35.2,10832],[35.2,10915],[35.2,10999],[35.2,11082],[35.2,11165],[35.2,11249],[35.2,11333],[35.2,11415],[35.2,11499],[35.2,11582],[35.2,11665],[35.2,11749],[35.2,11832],[35.2,11915],[35.2,11999],[35.2,12082],[35.2,12165],[35.2,12249],[35.2,12332],[35.2,12415],[35.2,12499],[35.2,12582],[35.2,12665],[35.2,12749],[35.2,12832],[35.2,12916],[35.2,12999],[35.2,13082],[35.2,13165],[35.2,13249],[35.2,13332],[35.2,13415],[35.2,13499],[35.2,13582],[35.2,13665],[35.2,13749],[35.2,13832],[35.2,13915],[35.2,13999],[35.2,14082],[35.2,14165],[35.2,14249],[35.2,14332],[35.2,14415],[35.2,14499],[35.2,14582],[35.2,14665],[35.2,14749],[35.2,14832],[35.2,14915],[35.2,14999],[35.2,15082],[35.2,15165],[35.2,15249],[35.2,15332],[35.2,15415],[35.2,15499],[35.2,15582],[35.2,15665],[35.2,15749],[35.2,15832],[35.2,15915],[35.2,15999],[35.2,16082],[35.2,16165],[35.2,16249],[35.2,16332],[35.2,16415],[35.2,16499],[35.2,16582],[35.2,16665],[35.2,16749],[35.2,16832],[35.2,16915],[35.2,16999],[35.2,17082],[35.2,17165],[35.2,17249],[35.2,17332],[35.2,17415],[35.2,17499],[35.2,17583],[35.2,17666],[35.2,17749],[35.2,17832],[35.2,17915],[35.2,17999],[35.2,18082],[35.2,18165],[35.2,18249],[35.2,18332],[35.2,18415],[35.2,18499],[35.2,18582],[35.2,18665],[35.2,18749],[35.2,18832],[35.2,18915],[35.2,18999],[35.2,19082],[35.2,19165],[35.2,19249],[35.2,19332],[35.2,19415],[35.2,19499],[35.2,19582],[35.2,19665],[35.2,19749],[35.2,19832],[35.2,19915],[35.2,19999],[35.2,20083],[35.2,20165],[35.2,20249],[35.2,20332],[35.2,20415],[35.2,20499],[35.2,20582],[35.2,20665],[35.2,20749],[35.2,20832],[35.2,20915],[35.2,20999],[35.2,21082],[35.2,21165],[35.2,21249],[35.2,21332],[35.2,21415],[35.2,21499],[35.2,21582],[35.2,21665],[35.2,21749],[35.2,21832],[35.2,21915],[35.2,21999],[35.2,22082],[35.2,22165],[35.2,22249],[35.2,22332],[35.2,22415],[35.2,22499],[35.2,22582],[35.2,22665],[35.2,22749],[35.2,22833],[35.2,22915],[35.2,22999],[35.2,23082],[35.2,23165],[35.2,23249],[35.2,23332],[35.2,23415],[35.2,23499],[35.2,23582],[35.2,23665],[35.2,23749],[35.2,23832],[35.2,23915],[35.2,23999],[35.2,24082],[35.2,24165],[35.5,24250],[36,24332],[36,24415],[36,24499],[35.9,24583],[35.9,24665],[35.8,24749],[35.8,24832],[35.8,24915],[35.8,24999],[35.8,25082],[35.8,25165],[35.8,25249],[35.8,25332],[35.8,25415],[35.8,25499],[35.8,25582],[35.8,25665],[35.8,25749],[35.8,25832],[35.8,25915],[35.8,25999],[35.8,26082],[35.8,26165],[35.8,26249],[35.8,26332],[35.8,26415],[35.8,26499]]",1,0,1243.6616,1257.4031,55.390625,9.5995,"[{""rating"":50,""responseTime"":5.401799999952345},{""rating"":55.39062500000001,""responseTime"":9.599500000000035}]",space,13.2198,,1257.4032,Half the time,50,1257.4106,,,[],,0,1,1,1,1,audio/Narrative7Situation1.wav,audio/Narrative8Situation1.wav,audio/Narrative5Situation1.wav,audio/Narrative6Situation1.wav,2,5,5,2,,,,,,,,,,,,,,,,,,,,,,,,,,,,,,,,,,,,,,,
,,,,,,63052f20afc39e87110eb83e,2024-02-08_16h08.28.421,group3.1-3.2-social-tom,2023.2.2,Win32,120.4819277,65c5074098b851296ff0b7ed,65c54243ee52e7c07a887826,,,,,,,,,,,,,,,,,,,,,,,,,,,,,1257.4108,2,audio/Narrative6Situation2.wav,1260.4115,,1260.4115,1288.9045,"[[55.1,1751],[52.1,12750],[52.1,12833],[52.1,12917],[52.1,13000],[52.2,13083],[52.3,13167],[52.3,13250],[52.3,13333],[52.5,13417],[52.7,13500],[52.7,13584],[52.9,13666],[53,13750],[53,13833],[53,13916],[53.3,14000],[53.3,14083],[53.3,14166],[53.3,14250],[53.3,14333],[53.3,14416],[53.3,14500],[53.4,14585],[53.4,14666],[53.4,14750],[53.4,14833],[53.4,14916],[53.4,15000],[53.4,15083],[53.4,15166],[53.4,15250],[53.4,15333],[53.4,15416],[53.4,15500],[53.4,15583],[53.4,15666],[53.4,15750],[53.4,15833],[53.4,15916],[53.3,16001],[53.2,16083],[53.2,16166],[53.2,16250],[53,16334],[52.7,16416],[52.4,16500],[52.4,16583],[52.4,16666],[52.4,16750],[52.4,16833],[52.4,16916],[52.4,17000],[52.4,17084],[52.4,17166],[52.4,17250],[52.4,17334],[52.4,17416],[52.4,17500],[52.4,17583],[52.4,17667],[52.3,17751],[52.3,17833],[53,17917],[53.8,18001],[54.9,18084],[55.8,18167],[55.9,18250],[55.9,18333],[55.9,18416],[55.9,18500],[55.9,18583],[55.9,18666],[55.9,18750],[55.9,18833],[55.9,18916],[55.9,19000],[55.9,19083],[55.9,19166],[55.9,19250],[55.9,19333],[55.9,19416],[55.9,19500],[55.9,19585],[55.9,19666],[55.9,19750],[55.9,19833],[55.9,19916],[55.9,20000],[55.9,20083],[55.9,20166],[55.9,20250],[55.9,20333],[55.9,20416],[55.9,20500],[55.9,20584],[55.9,20666],[55.9,20750],[55.9,20833],[55.9,20916],[55.9,21000],[55.9,21084],[55.9,21166],[55.9,21250],[55.9,21333],[55.9,21417],[55.9,21500],[55.9,21583],[55.9,21666],[55.9,21750],[55.9,21833],[55.9,21916],[55.9,22000],[55.9,22083],[55.9,22166],[55.9,22250],[55.9,22333],[55.9,22416],[55.9,22500],[55.9,22583],[55.9,22666],[55.9,22750],[55.9,22833],[55.9,22916],[55.9,23000],[55.9,23083],[55.9,23166],[55.9,23250],[55.9,23333],[55.9,23416],[55.9,23500],[55.9,23583],[55.9,23666],[55.9,23750],[55.9,23833],[55.9,23916],[55.9,24000],[55.9,24083],[55.9,24166],[55.9,24250],[55.9,24333],[55.9,24416],[55.9,24500],[55.9,24583],[55.9,24666],[55.9,24750],[55.9,24833],[55.9,24916],[55.9,25000],[55.9,25083],[55.9,25166],[55.9,25250],[55.9,25333],[55.9,25416],[55.9,25500],[55.9,25583],[55.9,25666],[55.9,25750],[55.9,25833],[55.9,25916],[55.9,26000],[55.9,26083],[55.9,26166],[55.9,26250],[55.9,26333],[55.9,26416],[55.9,26500],[55.9,26583],[55.9,26666],[55.9,26750],[55.9,26833],[55.9,26916],[55.9,27000],[55.9,27083],[55.9,27166],[55.9,27250],[55.9,27334],[55.9,27416],[55.9,27500],[55.9,27583],[55.9,27666],[55.9,27750],[55.9,27833],[55.9,27917],[55.9,28000],[55.9,28083],[55.9,28166],[55.9,28250],[55.9,28333],[55.9,28416]]",1,0,1288.9046,1305.7035,58.984375,14.675,"[{""rating"":58.984375,""responseTime"":14.674999999999955}]",space,16.2807,,1305.7035,Half the time,50,1305.7045,,,[],,0,2,2,2,1,audio/Narrative7Situation2.wav,audio/Narrative8Situation2.wav,audio/Narrative5Situation2.wav,audio/Narrative6Situation2.wav,3,3,3,3,,,,,,,,,,,,,,,,,,,,,,,,,,,,,,,,,,,,,,,
,,,,,,63052f20afc39e87110eb83e,2024-02-08_16h08.28.421,group3.1-3.2-social-tom,2023.2.2,Win32,120.4819277,65c5074098b851296ff0b7ed,65c54243ee52e7c07a887826,,,,,,,,,,,,,,,,,,,,,,,,,,,,,1305.7047,2,audio/Narrative6Situation3.wav,1310.7119,,1310.712,1323.3048,"[[58.6,334],[58.6,416],[58.8,500],[58.8,583],[58.8,666],[58.9,749],[58.9,833],[58.9,917],[58.9,999],[59.1,1084],[59.1,1166],[59.1,1249],[59.1,1333],[59.1,1416],[59.1,1499],[59.1,1583],[59.1,1667],[59.1,1749],[59.1,1833],[59.1,1916],[59,2000],[58.8,2083],[58.8,2167],[58.8,2249],[58.8,2333],[58.8,2416],[58.8,2499],[58.8,2583],[58.8,2666],[58.8,2749],[58.8,2833],[58.8,2917],[58.8,2999],[58.8,3083],[58.8,3166],[58.8,3249],[58.8,3333],[58.8,3416],[58.8,3499],[58.8,3583],[58.8,3666],[58.8,3749],[58.8,3833],[58.8,3917],[58.8,3999],[58.8,4083],[58.8,4166],[58.8,4249],[58.8,4333],[58.8,4416],[58.8,4499],[58.8,4583],[58.8,4666],[58.8,4749],[58.8,4833],[58.8,4916],[58.8,4999],[58.8,5083],[58.8,5166],[58.8,5249],[58.8,5333],[58.8,5416],[58.8,5499],[58.8,5583],[58.8,5666],[58.8,5749],[58.8,5833],[58.8,5916],[58.8,5999],[58.8,6083],[58.8,6166],[58.8,6249],[58.8,6333],[58.8,6416],[58.8,6499],[58.8,6583],[58.8,6667],[58.8,6749],[58.8,6834],[58.8,6916],[58.8,6999],[58.8,7083],[58.8,7166],[58.8,7250],[58.8,7333],[58.8,7417],[58.8,7500],[58.8,7583],[58.8,7666],[58.8,7749],[58.8,7833],[58.8,7916],[58.8,7999],[58.8,8083],[58.8,8166],[58.8,8249],[58.8,8333],[58.8,8416],[58.8,8499],[58.8,8583],[58.8,8666],[58.8,8749],[58.8,8833],[58.8,8916],[58.8,9000],[58.8,9083],[58.8,9166],[58.8,9249],[58.8,9333],[58.8,9416],[58.8,9499],[58.8,9583],[58.8,9666],[58.8,9749],[58.8,9833],[58.8,9916],[58.8,9999],[58.8,10083],[58.8,10166],[58.8,10250],[58.8,10333],[58.8,10416],[58.8,10499],[58.8,10584],[58.8,10666],[58.8,10749],[58.8,10833],[58.8,10916],[58.8,10999],[58.8,11083],[58.8,11166],[58.8,11250],[58.8,11333],[58.9,11417],[60.9,11501],[61.6,11584],[62.8,11667],[63.6,11749],[63.7,11833],[63.7,11916],[63.7,12000],[63.7,12083],[64,12167],[64.6,12250],[65.2,12334],[68,12417],[69.2,12500],[69.5,12584]]",1,0,1323.3049,1332.8954,90.46875,4.3872,"[{""rating"":90.46875,""responseTime"":4.387200000047642}]",space,9.072,,1332.8954,Not at all,0,1332.9027,,,[],,0,3,3,3,1,audio/Narrative7Situation3.wav,audio/Narrative8Situation3.wav,audio/Narrative5Situation3.wav,audio/Narrative6Situation3.wav,8,4,3,5,,,,,,,,,,,,,,,,,,,,,,,,,,,,,,,,,,,,,,,
,,,,,,63052f20afc39e87110eb83e,2024-02-08_16h08.28.421,group3.1-3.2-social-tom,2023.2.2,Win32,120.4819277,65c5074098b851296ff0b7ed,65c54243ee52e7c07a887826,,,,,,,,,,,,,,,,,,,,,,,,,,,,,1332.903,2,audio/Narrative6Situation4.wav,1334.9037,,1334.9038,1347.5039,"[[75.6,500],[75.6,583],[75.6,666],[75.5,749],[75.5,833],[75.5,916],[75.5,999],[75.2,1083],[75.2,1166],[75.2,1249],[75,1333],[75,1416],[74.9,1500],[74.8,1583],[74.7,1666],[74.6,1749],[74.6,1833],[74.6,1916],[74.6,1999],[74.6,2083],[74.4,2167],[74.3,2250],[74.3,2334],[74.2,2417],[74.2,2500],[74.2,2583],[74.2,2666],[74.2,2749],[74.2,2833],[74.2,2916],[74.2,3000],[74.2,3084],[74.2,3166],[73.3,3251]]",1,0,1347.504,1362.4873,99.6875,9.6754,"[{""rating"":99.6875,""responseTime"":9.67540000003578}]",space,14.463,,1362.4873,All the time,100,1362.4951,,,[],,0,4,4,4,1,audio/Narrative7Situation4.wav,audio/Narrative8Situation4.wav,audio/Narrative5Situation4.wav,audio/Narrative6Situation4.wav,3,3,1,2,,,,,,,,,,,,,,,,,,,,,,,,,,,,,,,,,,,,,,,
,,,,,,63052f20afc39e87110eb83e,2024-02-08_16h08.28.421,group3.1-3.2-social-tom,2023.2.2,Win32,120.4819277,65c5074098b851296ff0b7ed,65c54243ee52e7c07a887826,,,,,,,,,,,,,,,,,,,,,,,,,,,,,1362.4953,2,audio/Narrative6Situation5.wav,1364.4957,,1364.4957,1372.4291,"[[999,0],[999,83],[999,166],[999,249],[999,333],[999,416],[999,499],[999,583],[999,666],[999,749],[999,833],[999,916],[999,999],[999,1083],[999,1166],[999,1249],[999,1333],[999,1416],[999,1499],[999,1583],[999,1666],[999,1750],[999,1833],[999,1916],[999,1999],[999,2083],[999,2166],[999,2250],[999,2333],[999,2416],[999,2499],[999,2583],[999,2666],[999,2749],[999,2834],[999,2917],[999,2999],[999,3083],[999,3166],[999,3250],[999,3333],[999,3416],[999,3499],[999,3583],[999,3667],[67.3,3749],[67.3,3833],[67.3,3916],[67.3,3999],[67.3,4083],[67.3,4166],[67.3,4249],[67.3,4333],[67.3,4416],[67.3,4500],[67.3,4583],[67.3,4666],[67.3,4750],[67.3,4833],[67.3,4916],[67.3,4999],[67.3,5083],[67.3,5167],[67.3,5249],[67.3,5333],[67.3,5416],[67.3,5500],[67.3,5583],[67.3,5666],[67.3,5750],[67.3,5833],[67.3,5916],[67.3,5999],[67.3,6083],[67.3,6167],[67.3,6250],[67.3,6333],[67.3,6416],[67.3,6499],[67.3,6583],[67.3,6666],[67.3,6749],[67.3,6833],[67.3,6916],[67.3,6999],[67.3,7083],[67.3,7166],[67.3,7250],[67.3,7333],[67.3,7416],[67.3,7499],[67.3,7583],[67.3,7666],[67.3,7749],[67.3,7833],[67.3,7916]]",1,0,1372.4291,1395.3386,73.90625,19.7317,"[{""rating"":75.9375,""responseTime"":16.220200000047726},{""rating"":73.90625,""responseTime"":19.731700000047567}]",space,22.3891,,1395.3387,Not at all,0,1404.0051,0,6.166,"[{""rating"":0.78125,""responseTime"":5.378299999952333},{""rating"":0,""responseTime"":6.16599999999994}]",space,0,5,5,5,1,audio/Narrative7Situation5.wav,audio/Narrative8Situation5.wav,audio/Narrative5Situation5.wav,audio/Narrative6Situation5.wav,5,2,5,2,,,8.1462,,,,,,,,,,,,,,,,,,,,,,,,,,,,,,,,,,,,
,,,,,,63052f20afc39e87110eb83e,2024-02-08_16h08.28.421,group3.1-3.2-social-tom,2023.2.2,Win32,120.4819277,65c5074098b851296ff0b7ed,65c54243ee52e7c07a887826,,,,,,,,,,,,,,,,,,,,,,,,,,,,,1404.0053,2,audio/Narrative6Situation6.wav,1406.0126,,1406.0126,1417.0711,"[[999,0],[999,83],[999,167],[999,250],[999,334],[999,416],[999,500],[999,583],[999,668],[999,750],[999,833],[999,916],[999,999],[999,1083],[999,1166],[999,1250],[999,1334],[999,1416],[999,1500],[999,1583],[999,1667],[999,1750],[999,1833],[999,1916],[999,2000],[999,2083],[999,2166],[999,2250],[999,2333],[999,2416],[999,2500],[999,2583],[999,2666],[999,2750],[999,2834],[999,2917],[999,3000],[999,3083],[999,3166],[999,3250],[999,3333],[999,3416],[999,3500],[999,3583],[999,3667],[999,3750],[999,3833],[999,3916],[999,4000],[999,4083],[999,4167],[999,4250],[999,4334],[999,4417],[999,4500],[999,4583],[999,4666],[999,4750],[999,4834],[999,4917],[999,5000],[999,5083],[999,5167],[999,5250],[999,5334],[999,5416],[999,5501],[999,5583],[999,5666],[999,5750],[999,5834],[999,5916],[999,6000],[999,6083],[999,6167],[999,6250],[999,6334],[999,6416],[999,6500],[999,6583],[999,6666],[999,6750],[999,6833],[999,6916],[999,7000],[999,7083],[999,7166],[999,7250],[999,7333],[999,7416],[999,7500],[999,7583],[999,7666],[999,7750],[999,7833],[999,7916],[999,8000],[999,8083],[999,8166],[999,8250],[999,8333],[999,8416],[999,8500],[999,8583],[999,8666],[999,8750],[999,8833],[999,8916],[999,9000],[999,9083],[999,9166],[999,9250],[999,9334],[999,9417],[999,9501],[999,9584],[87.9,9667],[89.2,9750],[89.3,9834],[89.5,9916],[90,10000],[90.5,10084],[91.2,10167],[92.4,10251],[93.3,10334],[94.1,10417],[94.8,10501],[95.4,10584],[95.6,10666],[95.7,10750],[95.7,10833],[95.7,10916],[95.9,11000]]",1,0,1417.0713,1427.3044,100,5.7014,"[{""rating"":100,""responseTime"":5.7014000000358465}]",space,9.713,,1427.3045,Half the time,50,1427.3125,,,[],,0,6,6,6,1,audio/Narrative7Situation6.wav,audio/Narrative8Situation6.wav,audio/Narrative5Situation6.wav,audio/Narrative6Situation6.wav,3,2,3,2,,,,,,,,,,,,,,,,,,,,,,,,,,,,,,,,,,,,,,,
,,,,,,63052f20afc39e87110eb83e,2024-02-08_16h08.28.421,group3.1-3.2-social-tom,2023.2.2,Win32,120.4819277,65c5074098b851296ff0b7ed,65c54243ee52e7c07a887826,,,,,,,,,,,,,,,,,,,,,,,,,,,,,1427.3127,2,audio/Narrative6Situation7.wav,1432.3128,,1432.3129,1457.1547,"[[999,5],[999,83],[999,167],[999,249],[999,333],[999,416],[999,500],[999,583],[999,666],[999,749],[999,833],[999,917],[999,999],[999,1083],[999,1166],[999,1249],[999,1333],[999,1416],[999,1499],[999,1583],[999,1666],[999,1749],[999,1834],[999,1917],[999,2001],[999,2084],[999,2166],[999,2249],[999,2333],[999,2416],[999,2499],[999,2583],[999,2666],[999,2749],[999,2833],[999,2916],[999,2999],[999,3083],[999,3166],[999,3249],[999,3333],[999,3416],[999,3499],[999,3583],[999,3666],[999,3749],[999,3833],[999,3917],[999,3999],[999,4083],[999,4166],[999,4249],[999,4333],[999,4416],[999,4499],[999,4583],[999,4666],[999,4749],[999,4833],[999,4916],[999,5000],[999,5083],[999,5166],[999,5249],[999,5333],[999,5416],[999,5499],[999,5583],[999,5666],[999,5749],[999,5833],[999,5916],[999,5999],[999,6083],[999,6166],[999,6249],[999,6333],[999,6416],[999,6500],[999,6583],[999,6666],[999,6749],[999,6833],[999,6916],[999,7000],[999,7083],[999,7166],[999,7249],[999,7333],[999,7416],[999,7500],[999,7583],[999,7666],[999,7749],[999,7833],[999,7916],[999,8000],[999,8083],[999,8166],[999,8250],[999,8333],[999,8416],[999,8499],[999,8583],[999,8666],[999,8749],[999,8833],[999,8916],[999,8999],[999,9083],[999,9166],[999,9249],[999,9333],[999,9416],[999,9499],[999,9583],[999,9666],[999,9749],[999,9833],[999,9916],[999,9999],[999,10083],[999,10166],[999,10249],[999,10333],[999,10416],[999,10499],[999,10583],[999,10666],[999,10750],[999,10833],[999,10916],[999,10999],[999,11083],[999,11166],[999,11249],[999,11333],[999,11416],[999,11500],[999,11583],[999,11666],[999,11749],[999,11833],[999,11916],[999,11999],[999,12083],[999,12166],[999,12249],[999,12333],[999,12417],[999,12500],[999,12583],[999,12666],[999,12749],[999,12833],[999,12916],[999,13000],[999,13083],[999,13166],[999,13249],[999,13333],[999,13417],[999,13499],[999,13583],[999,13666],[999,13750],[999,13833],[999,13916],[999,13999],[999,14083],[999,14166],[999,14250],[999,14333],[999,14416],[999,14500],[999,14583],[999,14666],[999,14750],[999,14833],[999,14916],[999,15000],[999,15083],[999,15166],[999,15250],[999,15333],[999,15416],[999,15500],[999,15583],[999,15666],[999,15750],[999,15833],[999,15916],[999,15999],[999,16083],[999,16166],[999,16250],[999,16333],[999,16416],[999,16500],[999,16583],[999,16666],[999,16750],[999,16833],[999,16916],[999,17000],[999,17083],[999,17166],[999,17250],[999,17333],[999,17416],[999,17500],[999,17583],[999,17666],[999,17749],[999,17833],[999,17916],[999,18000],[999,18083],[999,18166],[999,18250],[999,18333],[999,18416],[999,18500],[999,18583],[999,18666],[999,18750],[999,18833],[999,18916],[999,18999],[999,19083],[999,19166],[999,19250],[999,19333],[999,19416],[999,19500],[999,19583],[999,19666],[999,19750],[999,19833],[999,19916],[999,20000],[999,20083],[999,20166],[999,20250],[999,20333],[999,20416],[999,20500],[999,20583],[999,20666],[999,20749],[999,20833],[999,20916],[999,21000],[999,21083],[999,21166],[999,21250],[999,21333],[999,21416],[999,21500],[999,21583],[999,21666],[999,21750],[999,21833],[999,21916],[999,22000],[999,22083],[999,22166],[999,22250],[999,22333],[999,22416],[999,22500],[999,22584],[999,22666],[999,22750],[999,22833],[999,22916],[999,23000],[999,23083],[999,23166],[999,23250],[999,23333],[999,23416],[999,23500],[999,23583],[999,23666],[999,23750],[999,23833],[999,23916],[999,24000],[999,24084],[999,24166],[999,24250],[999,24333],[999,24416],[999,24500],[999,24583],[999,24666],[999,24750],[999,24833]]",1,0,1457.1548,1472.2798,14.6875,13.4593,"[{""rating"":24.6875,""responseTime"":3.0393000000119628},{""rating"":8.046874999999998,""responseTime"":9.161300000012034},{""rating"":14.687499999999998,""responseTime"":13.459300000012036}]",space,14.6026,,1472.2799,Half the time,50,1472.2811,,,[],,0,7,7,7,1,audio/Narrative7Situation7.wav,audio/Narrative8Situation7.wav,audio/Narrative5Situation7.wav,audio/Narrative6Situation7.wav,5,3,4,5,,,,,,,,,,,,,,,,,,,,,,,,,,,,,,,,,,,,,,,
,,,,,,63052f20afc39e87110eb83e,2024-02-08_16h08.28.421,group3.1-3.2-social-tom,2023.2.2,Win32,120.4819277,65c5074098b851296ff0b7ed,65c54243ee52e7c07a887826,,,,,,,,,,,,,,,,,,,,,,,,,,,,,1472.2812,2,audio/Narrative6Situation8.wav,1477.2884,,1477.2884,1484.1301,"[[999,5],[999,83],[999,166],[999,249],[999,332],[999,416],[999,499],[18.7,583],[18.5,666],[18.5,749],[18.5,832],[18.5,916],[18.4,999],[18.4,1082],[18.4,1166],[18.4,1249],[18.8,1333],[24.9,1416]]",1,0,1484.1301,1504.7884,27.65625,15.7888,"[{""rating"":27.65625,""responseTime"":15.788799999952289}]",space,20.1393,,1504.7885,Not at all,0,1504.7959,,,[],,0,8,8,8,1,audio/Narrative7Situation8.wav,audio/Narrative8Situation8.wav,audio/Narrative5Situation8.wav,audio/Narrative6Situation8.wav,2,3,3,5,,,,,,,,,,,,,,,,,,,,,,,,,,,,,,,,,,,,,,,
,,,,,,63052f20afc39e87110eb83e,2024-02-08_16h08.28.421,group3.1-3.2-social-tom,2023.2.2,Win32,120.4819277,65c5074098b851296ff0b7ed,65c54243ee52e7c07a887826,,,,,,,,,,,,,,,,,,,,,,,,,,,,,1504.796,2,audio/Narrative6Situation9.wav,1508.7967,,1508.7967,1518.7226,"[[999,5],[999,83],[999,166],[999,250],[999,333],[999,416],[999,500],[999,583],[999,667],[999,750],[999,834],[999,916],[999,1000],[999,1083],[999,1167],[999,1249],[999,1333],[999,1416],[999,1499],[999,1583],[999,1666],[999,1750],[999,1833],[999,1917],[999,2000],[999,2083],[999,2166],[999,2250],[999,2333],[999,2416],[999,2500],[999,2583],[999,2666],[999,2750],[999,2833],[999,2917],[999,3000],[999,3083],[999,3166],[999,3250],[999,3333],[999,3416],[999,3500],[999,3583],[999,3666],[999,3750],[999,3834],[999,3916],[999,4000],[999,4083],[999,4166],[999,4250],[999,4333],[999,4417],[999,4500],[999,4583],[999,4666],[999,4750],[999,4833],[999,4916],[999,5001],[999,5083],[999,5166],[999,5250],[999,5333],[999,5416],[999,5499],[999,5583],[999,5666],[999,5750],[999,5833],[999,5916],[999,6000],[999,6083],[999,6166],[999,6250],[999,6333],[999,6416],[999,6500],[999,6583],[999,6666],[999,6750],[999,6833],[999,6916],[999,7000],[999,7083],[999,7166],[999,7250],[999,7333],[999,7416],[999,7500],[999,7583],[999,7666],[999,7750],[999,7833],[999,7917],[999,8000],[999,8083],[999,8167],[999,8250],[999,8333],[999,8416],[999,8500],[999,8583],[999,8666],[999,8750],[999,8833],[999,8916],[999,9001],[999,9083],[999,9166],[999,9250],[999,9333],[999,9416],[999,9500],[999,9583],[999,9666],[999,9750],[999,9833],[999,9917]]",1,0,1518.7226,1527.8802,84.609375,7.5029,"[{""rating"":84.609375,""responseTime"":7.502900000035879}]",space,8.6403,,1527.8802,All the time,100,1527.8823,,,[],,0,9,9,9,1,audio/Narrative7Situation9.wav,audio/Narrative8Situation9.wav,audio/Narrative5Situation9.wav,audio/Narrative6Situation9.wav,2,3,3,4,,,,,,,,,,,,,,,,,,,,,,,,,,,,,,,,,,,,,,,
,,,,,,63052f20afc39e87110eb83e,2024-02-08_16h08.28.421,group3.1-3.2-social-tom,2023.2.2,Win32,120.4819277,65c5074098b851296ff0b7ed,65c54243ee52e7c07a887826,,,,,,,,,,,,,,,,,,,,,,,,,,,,,1527.8825,2,audio/Narrative5Situation1.wav,1532.8887,,1532.8887,1546.1637,"[[999,5],[999,84],[999,166],[999,249],[999,333],[999,417],[999,499],[999,584],[999,666],[999,749],[999,833],[999,916],[999,999],[999,1083],[999,1166],[999,1249],[999,1333],[999,1416],[999,1499],[999,1583],[999,1666],[999,1749],[999,1833],[999,1916],[999,1999],[999,2083],[999,2166],[999,2249],[999,2333],[999,2416],[999,2499],[999,2583],[999,2667],[999,2749],[999,2833],[999,2916],[999,2999],[999,3083],[999,3166],[999,3249],[999,3333],[999,3416],[999,3499],[999,3583],[999,3666],[999,3749],[999,3833],[999,3916],[999,3999],[999,4083],[999,4166],[999,4249],[999,4333],[999,4416],[999,4499],[999,4583],[999,4666],[999,4749],[999,4833],[999,4916],[999,5000],[999,5083],[999,5167],[999,5250],[999,5333],[999,5416],[999,5499],[999,5583],[999,5666],[999,5750],[999,5833],[999,5917],[999,6000],[999,6084],[63.3,6166],[65.5,6250]]",1,0,1546.1638,1560.0147,0,8.8827,"[{""rating"":0,""responseTime"":8.882699999988063}]",space,13.3304,,1560.0147,Half the time,50,1560.0222,,,[],,0,10,10,10,1,audio/Narrative8Situation1.wav,audio/Narrative7Situation1.wav,audio/Narrative6Situation1.wav,audio/Narrative5Situation1.wav,5,2,2,5,,,,,,,,,,,,,,,,,,,,,,,,,,,,,,,,,,,,,,,
,,,,,,63052f20afc39e87110eb83e,2024-02-08_16h08.28.421,group3.1-3.2-social-tom,2023.2.2,Win32,120.4819277,65c5074098b851296ff0b7ed,65c54243ee52e7c07a887826,,,,,,,,,,,,,,,,,,,,,,,,,,,,,1560.0224,2,audio/Narrative5Situation2.wav,1563.0305,,1563.0305,1592.4807,"[[1.5,1084],[5.6,1167],[6.8,1250]]",1,0,1592.4807,1602.5557,23.359375,6.2867,"[{""rating"":23.359375,""responseTime"":6.286699999988059}]",space,9.5652,,1602.5558,Not at all,0,1602.5633,,,[],,0,11,11,11,1,audio/Narrative8Situation2.wav,audio/Narrative7Situation2.wav,audio/Narrative6Situation2.wav,audio/Narrative5Situation2.wav,3,3,3,3,,,,,,,,,,,,,,,,,,,,,,,,,,,,,,,,,,,,,,,
,,,,,,63052f20afc39e87110eb83e,2024-02-08_16h08.28.421,group3.1-3.2-social-tom,2023.2.2,Win32,120.4819277,65c5074098b851296ff0b7ed,65c54243ee52e7c07a887826,,,,,,,,,,,,,,,,,,,,,,,,,,,,,1602.5635,2,audio/Narrative5Situation3.wav,1605.565,,1605.565,1619.4643,"[[999,0],[999,82],[999,165],[999,249],[999,332],[999,415],[999,499],[999,583],[999,665],[999,749],[999,832],[999,915],[999,999],[999,1082],[999,1166],[999,1249],[999,1333],[999,1416],[999,1499],[999,1583],[999,1665],[999,1749],[999,1832],[999,1915],[999,1999],[999,2082],[999,2165],[999,2249],[999,2332],[999,2415],[999,2499],[999,2582],[999,2665],[999,2749],[999,2832],[999,2918],[999,2999],[999,3082],[999,3165],[999,3249],[999,3333],[999,3415],[999,3499],[999,3582],[999,3665],[999,3749],[999,3832],[999,3918],[999,3999],[999,4082],[999,4165],[999,4249],[999,4332],[999,4418],[999,4499],[999,4582],[999,4665],[999,4749],[999,4832],[999,4915],[999,4999],[999,5082],[999,5166],[999,5250],[999,5332],[999,5415],[999,5499],[999,5583],[999,5665],[999,5749],[999,5832],[999,5915],[999,5999],[999,6082],[999,6166],[999,6249],[999,6332],[999,6415],[999,6500],[999,6582],[999,6665],[999,6750],[999,6833],[999,6918],[999,6999],[999,7082],[999,7165],[999,7249],[999,7333],[999,7415],[999,7500],[999,7582],[999,7665],[999,7749],[999,7833],[999,7918],[999,7999],[999,8082],[999,8166],[999,8249],[999,8332],[999,8415],[999,8499],[999,8582],[999,8665],[999,8749],[999,8832],[999,8918],[999,8999],[999,9082],[999,9165],[999,9250],[999,9332],[999,9415],[999,9499],[999,9582],[999,9665],[999,9749],[999,9832],[999,9915],[999,9999],[999,10082],[999,10165],[999,10249],[999,10332],[999,10415],[999,10499],[999,10582],[999,10665],[999,10749],[999,10832],[999,10915],[999,10999],[999,11082],[999,11165],[999,11249],[999,11332],[999,11415],[999,11499],[999,11582],[999,11665],[999,11749],[999,11832],[999,11915],[999,11999],[999,12082],[999,12165],[999,12249],[999,12332],[999,12415],[999,12499],[999,12582],[999,12665],[999,12749],[999,12832],[999,12915],[999,12999],[999,13082],[999,13165],[999,13249],[999,13332],[999,13417],[999,13499],[999,13582],[999,13665],[999,13749],[999,13832]]",1,0,1619.4643,1629.6319,24.0625,8.5561,"[{""rating"":24.062499999999996,""responseTime"":8.55610000002389}]",space,9.6479,,1629.632,Half the time,50,1629.634,,,[],,0,12,12,12,1,audio/Narrative8Situation3.wav,audio/Narrative7Situation3.wav,audio/Narrative6Situation3.wav,audio/Narrative5Situation3.wav,4,8,5,3,,,,,,,,,,,,,,,,,,,,,,,,,,,,,,,,,,,,,,,
,,,,,,63052f20afc39e87110eb83e,2024-02-08_16h08.28.421,group3.1-3.2-social-tom,2023.2.2,Win32,120.4819277,65c5074098b851296ff0b7ed,65c54243ee52e7c07a887826,,,,,,,,,,,,,,,,,,,,,,,,,,,,,1629.6342,2,audio/Narrative5Situation4.wav,1630.6392,,1630.6392,1651.0062,"[[24,1334],[23.8,1416],[23.8,1500],[23.8,1583],[23.7,1666],[23.7,1750],[23.7,1833],[23.7,1916],[23.7,2000],[23.7,2083],[23.7,2167],[23.7,2250],[23.7,2333],[23.7,2416],[23.7,2500],[23.7,2583],[23.7,2666],[23.7,2750],[23.7,2833],[23.7,2917],[23.7,3000],[23.7,3083],[23.7,3166],[23.7,3250],[23.7,3333],[23.7,3416],[23.7,3500],[23.7,3583],[23.7,3666],[23.7,3750],[23.7,3833],[23.7,3916],[23.7,4000],[23.7,4083],[23.7,4166],[23.7,4250],[23.7,4333],[23.7,4416],[23.7,4500],[23.7,4583],[23.7,4666],[23.7,4750],[23.7,4833],[23.7,4916],[23.7,5000],[23.7,5083],[23.7,5166],[23.7,5250],[23.7,5333],[23.7,5416],[23.7,5500],[23.7,5583],[23.7,5666],[23.7,5750],[23.7,5833],[23.7,5916],[23.7,6000],[23.7,6083],[23.7,6166],[23.7,6250],[23.7,6333],[23.7,6416],[23.7,6500],[23.7,6583],[23.7,6666],[23.7,6750],[23.7,6833],[23.7,6916],[23.7,7000],[23.7,7083],[23.7,7166],[23.7,7251],[23.7,7334],[23.7,7418],[23.7,7500],[23.7,7583],[23.7,7666],[23.7,7750],[23.7,7833],[23.7,7917],[23.7,8000],[23.7,8083],[23.7,8166],[23.7,8250],[23.7,8333],[23.7,8416],[23.7,8500],[23.7,8583],[23.7,8666],[23.7,8750],[23.7,8833],[23.7,8916],[23.7,9000],[23.7,9083],[23.7,9166],[23.7,9250],[23.7,9333],[23.7,9416],[23.7,9500],[23.7,9584],[23.7,9666],[23.7,9750],[23.7,9834],[23.7,9916],[23.7,10000],[23.7,10083],[23.7,10166],[23.7,10250],[23.7,10333],[23.7,10416],[23.7,10500],[23.7,10584],[23.7,10666],[23.7,10750],[23.7,10833],[23.7,10916],[23.7,11000],[23.7,11083],[23.7,11166],[23.7,11250],[23.7,11333],[23.7,11416],[23.7,11500],[23.7,11583],[23.7,11666],[23.7,11750],[23.7,11833],[23.7,11916],[23.7,12000],[23.7,12083],[23.7,12166],[23.7,12250],[23.7,12333],[23.7,12416],[23.7,12500],[23.7,12583],[23.7,12666],[23.7,12750],[23.7,12833],[23.7,12917],[23.7,13000],[23.7,13083],[23.7,13166],[23.7,13250],[23.7,13333],[23.7,13416],[23.7,13500],[23.7,13583],[23.7,13666],[23.7,13750],[23.7,13833],[23.7,13916],[23.7,14000],[23.7,14083],[23.7,14166],[23.7,14250],[23.7,14333],[23.7,14416],[23.7,14500],[23.7,14583],[23.7,14666],[23.7,14750],[23.7,14833],[23.7,14916],[23.7,15000],[23.7,15083],[23.7,15166],[23.7,15250],[23.7,15333],[23.7,15416],[23.7,15500],[23.7,15583],[23.7,15666],[23.7,15750],[23.7,15833],[23.7,15916],[23.7,16000],[23.7,16083],[23.7,16166],[23.7,16250],[23.7,16333],[23.7,16416],[23.7,16500],[23.7,16583],[23.7,16666],[23.7,16750],[23.7,16833],[23.7,16916],[23.7,17000],[23.7,17083],[23.7,17166],[23.7,17250],[23.7,17333],[23.7,17416],[23.7,17500],[23.7,17583],[23.7,17666],[23.7,17750],[23.7,17833],[23.7,17916],[23.7,18000],[23.7,18083],[23.7,18167],[23.7,18250],[23.7,18333],[23.7,18416],[23.7,18500],[23.7,18583],[23.7,18666],[23.7,18750],[23.7,18833],[23.7,18916],[23.7,19000],[23.7,19083],[23.7,19166],[23.7,19250],[23.7,19333],[23.7,19416],[23.7,19500],[23.7,19583],[23.7,19666],[23.7,19750],[23.7,19833],[23.7,19916],[23.7,20000],[23.7,20083],[23.7,20166],[23.7,20250],[23.7,20333]]",1,0,1651.0062,1662.7404,0,10.4732,"[{""rating"":0,""responseTime"":10.473199999988083}]",space,11.2097,,1662.7405,Half the time,50,1662.7415,,,[],,0,13,13,13,1,audio/Narrative8Situation4.wav,audio/Narrative7Situation4.wav,audio/Narrative6Situation4.wav,audio/Narrative5Situation4.wav,3,3,2,1,,,,,,,,,,,,,,,,,,,,,,,,,,,,,,,,,,,,,,,
,,,,,,63052f20afc39e87110eb83e,2024-02-08_16h08.28.421,group3.1-3.2-social-tom,2023.2.2,Win32,120.4819277,65c5074098b851296ff0b7ed,65c54243ee52e7c07a887826,,,,,,,,,,,,,,,,,,,,,,,,,,,,,1662.7417,2,audio/Narrative5Situation5.wav,1667.7479,,1667.748,1683.1564,"[[999,5],[999,83],[999,166],[999,249],[999,333],[999,416],[999,499],[999,583],[999,666],[999,749],[999,833],[999,916],[999,999],[999,1083],[999,1166],[999,1249],[999,1333],[999,1416],[999,1499],[999,1583],[999,1666],[999,1749],[999,1833],[999,1916],[999,1999],[999,2083],[999,2166],[999,2249],[999,2333],[999,2416],[999,2499],[999,2583],[999,2667],[999,2749],[999,2833],[999,2916],[999,2999],[999,3083],[999,3166],[999,3249],[999,3333],[999,3416],[999,3500],[999,3583],[999,3666],[999,3749],[999,3833],[999,3916],[999,3999],[999,4083],[999,4166],[999,4249],[999,4333],[999,4416],[999,4499],[999,4584],[999,4666],[999,4750],[999,4833],[999,4916],[999,4999],[999,5083],[999,5166],[999,5249],[999,5333],[999,5416],[999,5499],[999,5583],[999,5666],[999,5749],[999,5833],[999,5916],[999,5999],[999,6084],[999,6166],[999,6250],[999,6333],[999,6416],[999,6499],[999,6583],[999,6666],[999,6749],[999,6833],[999,6916],[999,6999],[999,7083],[999,7166],[999,7249],[999,7333],[999,7416],[999,7499],[999,7583],[999,7666],[999,7750],[999,7833],[999,7916],[999,7999],[999,8083],[999,8166],[999,8249],[999,8333],[999,8416],[999,8499],[999,8583],[999,8666],[999,8750],[999,8833],[999,8916],[999,8999],[999,9083],[999,9166],[999,9249],[999,9333],[999,9417],[999,9500],[999,9583],[999,9666],[999,9750],[999,9833],[999,9916],[999,9999],[999,10083],[999,10166],[999,10250],[999,10333],[999,10416],[999,10500],[999,10583],[999,10666],[999,10750],[999,10833],[999,10916],[999,11000],[999,11083],[999,11166],[999,11249],[999,11334],[999,11416],[999,11500],[999,11583],[999,11666],[999,11750],[999,11833],[999,11916],[999,12000],[999,12083],[999,12166],[999,12250],[999,12333],[999,12416],[999,12500],[999,12583],[999,12666],[999,12750],[999,12833],[999,12916],[999,13000],[999,13083],[999,13166],[999,13249],[999,13333],[999,13416],[999,13500],[999,13583],[999,13667],[999,13750],[999,13833],[999,13917],[999,13999],[999,14083],[999,14166],[999,14250],[999,14333],[999,14416],[999,14500],[999,14583],[999,14666],[999,14750],[999,14833],[999,14916],[999,15000],[999,15083],[999,15166],[999,15250],[999,15333]]",1,0,1683.1566,1709.7406,18.4375,25.2868,"[{""rating"":26.5625,""responseTime"":15.09199999999987},{""rating"":49.84375,""responseTime"":22.963999999999942},{""rating"":49.84375,""responseTime"":23.19739999997614},{""rating"":18.4375,""responseTime"":25.286800000011908}]",space,26.0669,,1709.7407,Not at all,0,1709.7427,,,[],,0,14,14,14,1,audio/Narrative8Situation5.wav,audio/Narrative7Situation5.wav,audio/Narrative6Situation5.wav,audio/Narrative5Situation5.wav,2,5,2,5,,,,,,,,,,,,,,,,,,,,,,,,,,,,,,,,,,,,,,,
,,,,,,63052f20afc39e87110eb83e,2024-02-08_16h08.28.421,group3.1-3.2-social-tom,2023.2.2,Win32,120.4819277,65c5074098b851296ff0b7ed,65c54243ee52e7c07a887826,,,,,,,,,,,,,,,,,,,,,,,,,,,,,1709.7429,2,audio/Narrative5Situation6.wav,1712.7483,,1712.7483,1718.415,[],1,0,1718.415,1732.8742,0.078125,5.111,"[{""rating"":0.07812500000000111,""responseTime"":5.111000000000104}]",space,13.9502,,1732.8743,Half the time,50,1732.8931,,,[],,0,15,15,15,1,audio/Narrative8Situation6.wav,audio/Narrative7Situation6.wav,audio/Narrative6Situation6.wav,audio/Narrative5Situation6.wav,2,3,2,3,,,,,,,,,,,,,,,,,,,,,,,,,,,,,,,,,,,,,,,
,,,,,,63052f20afc39e87110eb83e,2024-02-08_16h08.28.421,group3.1-3.2-social-tom,2023.2.2,Win32,120.4819277,65c5074098b851296ff0b7ed,65c54243ee52e7c07a887826,,,,,,,,,,,,,,,,,,,,,,,,,,,,,1732.8933,2,audio/Narrative5Situation7.wav,1736.8985,,1736.8985,1757.9238,"[[999,5],[999,83],[999,166],[999,249],[999,333],[999,416],[999,499],[999,583],[999,666],[999,750],[999,833],[999,916],[999,999],[999,1083],[999,1166],[999,1249],[999,1333],[999,1416],[999,1500],[999,1583],[999,1666],[999,1749],[999,1833],[999,1916],[999,2000],[999,2083],[999,2166],[999,2249],[999,2333],[999,2416],[999,2499],[999,2583],[999,2666],[999,2749],[999,2833],[999,2916],[999,2999],[999,3083],[999,3166],[999,3249],[999,3333],[999,3416],[999,3499],[999,3583],[999,3666],[999,3749],[999,3833],[999,3916],[999,3999],[999,4083],[999,4166],[999,4249],[999,4333],[999,4416],[999,4500],[999,4583],[999,4666],[999,4749],[999,4833],[999,4916],[999,4999],[999,5083],[999,5166],[999,5249],[999,5333],[999,5416],[999,5499],[999,5583],[999,5666],[999,5749],[999,5833],[999,5916],[999,5999],[999,6083],[999,6166],[999,6249],[999,6333],[999,6416],[999,6499],[999,6583],[999,6666],[999,6750],[999,6833],[999,6916],[999,7000],[999,7083],[999,7166],[999,7249],[999,7333],[999,7416],[999,7500],[999,7583],[999,7666],[999,7749],[999,7833],[999,7916],[999,8000],[999,8083],[999,8166],[999,8249],[999,8333],[999,8416],[999,8499],[999,8583],[999,8666],[999,8749],[999,8833],[999,8916],[999,8999],[999,9083],[999,9166],[999,9250],[999,9333],[999,9416],[999,9500],[999,9583],[999,9666],[999,9749],[999,9833],[999,9916],[999,9999],[999,10083],[999,10166],[999,10249],[999,10333],[999,10416],[999,10500],[999,10583],[999,10666],[999,10750],[999,10833],[999,10916],[999,11000],[999,11083],[999,11166],[999,11249],[999,11333],[999,11416],[999,11499],[999,11583],[999,11666],[999,11749],[999,11833],[999,11916],[999,12000],[999,12083],[999,12166],[999,12249],[999,12333],[999,12416],[999,12500],[999,12583],[999,12666],[999,12750],[999,12833],[999,12916],[999,13000],[999,13083],[999,13166],[999,13250],[999,13333],[999,13416],[999,13500],[999,13583],[999,13666],[999,13750],[999,13833],[999,13916],[999,14000],[999,14083],[999,14166],[999,14250],[999,14333],[999,14416],[999,14500],[999,14583],[999,14666],[999,14749],[999,14833],[999,14916],[999,15000],[999,15083],[999,15166],[999,15250],[999,15333],[999,15416],[999,15500],[999,15583],[999,15666],[999,15750],[999,15833],[999,15916],[999,16000],[999,16083],[999,16166],[999,16250],[999,16333],[999,16416],[999,16500],[999,16583],[999,16666],[999,16750],[999,16833],[999,16916],[999,16999],[999,17083],[999,17166],[999,17249],[999,17333],[999,17416],[999,17500],[999,17583],[999,17666],[999,17750],[999,17833],[999,17916],[999,18000],[999,18083],[999,18166],[999,18250],[999,18333],[999,18416],[999,18500],[999,18583],[999,18666],[999,18750],[999,18833],[999,18916],[999,19000],[999,19083],[999,19166],[999,19250],[999,19333],[999,19416],[999,19500],[999,19583],[999,19666],[999,19750],[999,19833],[999,19916],[999,20000],[999,20083],[999,20166],[999,20250],[999,20333],[999,20416],[999,20500],[999,20583],[999,20666],[999,20750],[999,20833],[999,20922],[999,21000]]",1,0,1757.9239,1767.9487,0,7.8753,"[{""rating"":0.78125,""responseTime"":6.835200000047735},{""rating"":0,""responseTime"":7.8753000000119755}]",space,9.5019,,1767.9488,Half the time,50,1767.9498,,,[],,0,16,16,16,1,audio/Narrative8Situation7.wav,audio/Narrative7Situation7.wav,audio/Narrative6Situation7.wav,audio/Narrative5Situation7.wav,3,5,5,4,,,,,,,,,,,,,,,,,,,,,,,,,,,,,,,,,,,,,,,
,,,,,,63052f20afc39e87110eb83e,2024-02-08_16h08.28.421,group3.1-3.2-social-tom,2023.2.2,Win32,120.4819277,65c5074098b851296ff0b7ed,65c54243ee52e7c07a887826,,,,,,,,,,,,,,,,,,,,,,,,,,,,,1767.9501,2,audio/Narrative5Situation8.wav,1770.957,,1770.957,1779.7656,"[[999,5],[999,83],[999,166],[999,250],[999,333],[999,416],[999,500],[999,583],[999,666],[999,750],[999,833],[999,916],[999,1000],[999,1083],[999,1166],[999,1250],[999,1333],[999,1416],[999,1500],[999,1583],[999,1666],[999,1749],[999,1833],[999,1916],[999,2000],[999,2083],[999,2166],[999,2249],[999,2333],[999,2416],[999,2500],[999,2583],[999,2667],[999,2750],[999,2833],[999,2916],[999,3000],[999,3083],[999,3166],[999,3250],[999,3333],[999,3416],[999,3500],[999,3583],[999,3666],[999,3750],[999,3833],[999,3916],[999,4000],[999,4083],[999,4166],[999,4250],[999,4333],[999,4416],[999,4500],[999,4583],[999,4666],[999,4750],[999,4833],[999,4916],[999,4999],[999,5083],[999,5166],[999,5250],[999,5333],[999,5417],[999,5500],[999,5583],[999,5666],[999,5750],[999,5833],[999,5916],[999,6000],[999,6083],[999,6166],[999,6250],[999,6333],[999,6416],[999,6500],[999,6583],[999,6666],[999,6750],[999,6833],[999,6916],[999,7000],[999,7083],[999,7166],[999,7250],[999,7333],[999,7416],[999,7500],[999,7583],[999,7666],[999,7750],[999,7833],[999,7916],[999,8000],[999,8083],[999,8166],[999,8250],[999,8333],[999,8416],[999,8500],[999,8583],[999,8666],[999,8750]]",1,0,1779.7656,1789.5996,0.078125,8.3518,"[{""rating"":0.07812500000000111,""responseTime"":8.351800000011963}]",space,9.3087,,1789.5996,All the time,100,1789.6017,,,[],,0,17,17,17,1,audio/Narrative8Situation8.wav,audio/Narrative7Situation8.wav,audio/Narrative6Situation8.wav,audio/Narrative5Situation8.wav,3,2,5,3,,,,,,,,,,,,,,,,,,,,,,,,,,,,,,,,,,,,,,,
,,,,,,63052f20afc39e87110eb83e,2024-02-08_16h08.28.421,group3.1-3.2-social-tom,2023.2.2,Win32,120.4819277,65c5074098b851296ff0b7ed,65c54243ee52e7c07a887826,,,,,,,,,,,,,,,,,,,,,,,,,,,,,1789.6019,2,audio/Narrative5Situation9.wav,1792.6072,,1792.6072,1832.1325,"[[999,0],[999,84],[999,166],[999,251],[999,333],[999,416],[999,499],[999,583],[999,666],[999,750],[999,833],[999,916],[999,1000],[999,1084],[999,1166],[999,1250],[999,1333],[999,1416],[999,1500],[999,1583],[999,1666],[999,1749],[999,1833],[999,1916],[999,2000],[999,2084],[999,2166],[999,2250],[999,2333],[999,2416],[999,2499],[999,2584],[999,2666],[999,2750],[999,2833],[999,2916],[999,2999],[999,3084],[999,3166],[999,3250],[999,3333],[999,3416],[999,3500],[999,3583],[999,3666],[999,3750],[999,3833],[999,3916],[999,4000],[999,4083],[999,4166],[999,4250],[999,4333],[999,4416],[999,4500],[999,4584],[999,4666],[999,4749],[999,4834],[999,4916],[999,5000],[999,5083],[999,5166],[999,5250],[999,5333],[999,5416],[999,5500],[999,5584],[999,5666],[999,5750],[999,5833],[999,5916],[999,6000],[999,6084],[999,6166],[999,6250],[999,6333],[999,6416],[999,6500],[999,6584],[999,6666],[999,6750],[999,6833],[999,6916],[999,7000],[999,7083],[999,7166],[999,7250],[999,7333],[999,7416],[999,7500],[999,7584],[999,7666],[999,7749],[999,7833],[999,7916],[999,8000],[999,8084],[999,8166],[999,8250],[999,8333],[999,8416],[999,8500],[999,8584],[999,8666],[999,8750],[999,8833],[999,8916],[999,9000],[999,9084],[999,9166],[999,9250],[999,9333],[999,9416],[999,9500],[999,9584],[999,9666],[999,9750],[999,9833],[999,9917],[999,10000],[999,10084],[999,10167],[999,10250],[999,10333],[999,10416],[999,10500],[999,10584],[999,10666],[999,10750],[999,10833],[999,10916],[999,11000],[999,11084],[999,11166],[999,11250],[999,11333],[999,11416],[999,11500],[999,11584],[999,11666],[999,11750],[999,11833],[999,11916],[999,12000],[999,12085],[999,12166],[999,12250],[999,12333],[999,12416],[999,12500],[999,12584],[999,12666],[999,12750],[999,12833],[999,12916],[999,13000],[999,13084],[999,13166],[999,13250],[999,13333],[999,13416],[999,13500],[999,13583],[999,13666],[999,13750],[999,13833],[999,13916],[999,14000],[999,14085],[999,14166],[999,14250],[999,14333],[999,14416],[999,14500],[999,14584],[999,14666],[999,14750],[999,14833],[999,14916],[999,15000],[999,15084],[999,15166],[999,15250],[999,15333],[999,15416],[999,15500],[999,15585],[999,15666],[999,15750],[999,15833],[999,15916],[999,16000],[999,16085],[999,16166],[999,16250],[999,16333],[999,16416],[999,16500],[999,16583],[999,16667],[999,16750],[999,16833],[999,16916],[999,17000],[999,17084],[999,17166],[999,17250],[999,17333],[999,17416],[999,17500],[999,17584],[999,17666],[999,17750],[999,17833],[999,17916],[999,18000],[999,18083],[999,18166],[999,18250],[999,18333],[999,18416],[999,18500],[999,18585],[999,18666],[999,18750],[999,18833],[999,18916],[999,19000],[999,19084],[999,19166],[999,19250],[999,19333],[999,19416],[999,19500],[999,19584],[999,19666],[999,19750],[999,19833],[999,19916],[999,20000],[999,20085],[999,20166],[999,20250],[999,20333],[999,20416],[999,20500],[999,20585],[999,20666],[999,20750],[999,20833],[999,20916],[999,21000],[999,21083],[999,21166],[999,21250],[999,21333],[999,21416],[999,21500],[999,21584],[999,21666],[999,21750],[999,21833],[999,21916],[999,22000],[999,22085],[999,22166],[999,22250],[999,22333],[999,22416],[999,22500],[999,22584],[999,22666],[999,22750],[999,22833],[999,22916],[999,23000],[999,23084],[999,23166],[999,23250],[999,23333],[999,23416],[999,23500],[999,23584],[999,23666],[999,23750],[999,23833],[999,23916],[999,24000],[999,24084],[999,24166],[999,24250],[999,24333],[999,24416],[999,24500],[999,24585],[999,24666],[999,24750],[999,24833],[999,24916],[999,25000],[999,25084],[999,25166],[999,25250],[999,25333],[999,25416],[999,25500],[999,25583],[999,25666],[999,25750],[999,25833],[999,25916],[999,26000],[999,26083],[999,26166],[999,26251],[999,26333],[999,26416],[999,26500],[999,26584],[999,26666],[999,26750],[999,26833],[999,26916],[999,27000],[999,27085],[999,27166],[999,27250],[999,27334],[999,27417],[999,27500],[999,27584],[999,27666],[999,27750],[999,27833],[999,27916],[999,28000],[999,28083],[999,28166],[999,28250],[999,28333],[999,28416],[999,28500],[999,28583],[999,28666],[999,28750],[999,28833],[999,28916],[999,29000],[999,29083],[999,29166],[999,29250],[999,29333],[999,29416],[999,29500],[999,29584],[999,29666],[999,29750],[999,29833],[999,29916],[999,30000],[999,30084],[999,30166],[999,30250],[999,30333],[999,30416],[999,30500],[999,30583],[999,30666],[999,30750],[999,30833],[999,30916],[999,31000],[999,31084],[999,31167],[999,31250],[999,31333],[999,31416],[999,31500],[999,31584],[999,31666],[999,31750],[999,31833],[999,31916],[999,32000],[999,32084],[999,32166],[999,32250],[999,32333],[999,32416],[999,32500],[999,32584],[999,32666],[999,32750],[999,32833],[999,32916],[999,33000],[999,33085],[999,33166],[999,33250],[999,33333],[999,33416],[999,33500],[999,33584],[999,33666],[999,33750],[999,33833],[999,33916],[999,34000],[999,34085],[999,34166],[999,34250],[999,34333],[999,34416],[999,34500],[999,34583],[999,34666],[999,34750],[999,34833],[999,34916],[999,35000],[999,35084],[999,35166],[999,35250],[999,35333],[999,35416],[999,35500],[999,35583],[999,35666],[999,35750],[999,35833],[999,35916],[999,36000],[999,36083],[999,36166],[999,36250],[999,36333],[999,36416],[999,36500],[999,36583],[999,36666],[999,36750],[999,36833],[999,36916],[999,37000],[999,37085],[999,37166],[999,37250],[999,37333],[999,37416],[999,37500],[999,37584],[999,37666],[999,37750],[999,37833],[999,37916],[999,38000],[999,38084],[999,38166],[999,38250],[999,38334],[999,38416],[999,38500],[999,38585],[999,38666],[999,38750],[999,38833],[999,38916],[999,39000],[999,39085],[999,39166],[999,39250],[999,39334],[999,39416],[999,39500]]",1,0,1832.1326,1848.9243,31.09375,14.6744,"[{""rating"":31.093749999999996,""responseTime"":14.674400000035575}]",space,16.2795,,1848.9244,Not at all,0,1848.9265,,,[],,0,18,18,18,1,audio/Narrative8Situation9.wav,audio/Narrative7Situation9.wav,audio/Narrative6Situation9.wav,audio/Narrative5Situation9.wav,3,2,4,3,,,,,,,,,,,,,,,,,,,,,,,,,,,,,,,,,,,,,,,
,,,,,,63052f20afc39e87110eb83e,2024-02-08_16h08.28.421,group3.1-3.2-social-tom,2023.2.2,Win32,120.4819277,65c5074098b851296ff0b7ed,65c54243ee52e7c07a887826,,,,,,,,,,,,,,,,,,,,,,,,,,,,,,,,,,,,,,,,,,,,,,,,,,,,,,,,,,,,,,,,,,,,,,,,1848.9265,1892.7831,space,43.3485,,1892.7835,1924.0921,space,30.9976,,,,,,,,,,,,,,,,,,,,,,,,,,
