exp_question,consent.started,consent.stopped,consentResponse.keys,consentResponse.rt,consentResponse.duration,participantID,date,expName,psychopyVersion,OS,frameRate,STUDY_ID,SESSION_ID,opening1.started,opening1.stopped,keyEndingOpening1.keys,keyEndingOpening1.rt,keyEndingOpening1.duration,volumeAdjust.started,volumeAdjust.stopped,endingAdjust.keys,endingAdjust.rt,endingAdjust.duration,opening2.started,opening2.stopped,keyEndingOpening.keys,keyEndingOpening.rt,keyEndingOpening.duration,mouse.x,mouse.y,mouse.leftButton,mouse.midButton,mouse.rightButton,mouse.time,instructionLoop.thisRepN,instructionLoop.thisTrialN,instructionLoop.thisN,instructionLoop.thisIndex,instructionLoop.ran,readyForAudio.started,readyForAudio.stopped,fixation.started,run,audio_played,fixation.stopped,endPractice.keys,audioPre.started,audioPre.stopped,continuousResponses_audio,continuousSlider.response,continuousSlider.rt,intRating.started,intRating.stopped,intQuestionSlider.response,intQuestionSlider.rt,intQuestionSlider.history,confirmResponse.keys,confirmResponse.rt,confirmResponse.duration,catchQuestion.started,catch_label,catch_value,catchQuestion.stopped,catchQuestionSlider.response,catchQuestionSlider.rt,catchQuestionSlider.history,confirmResponse_2.keys,audioRunLoop.thisRepN,audioRunLoop.thisTrialN,audioRunLoop.thisN,audioRunLoop.thisIndex,audioRunLoop.ran,conditions1_1,conditions2_1,conditions1_2,conditions2_2,dur1_1,dur2_1,dur1_2,dur2_2,endPractice.rt,endPractice.duration,confirmResponse_2.rt,confirmResponse_2.duration,runIntervalBreak.started,runIntervalBreak.stopped,endingBreakKey.keys,endingBreakKey.rt,endingBreakKey.duration,connection.started,connection.stopped,connectionEnding.keys,connectionEnding.rt,connectionEnding.duration,readyForText.started,readyForText.stopped,textPre.started,run_dup,textPre.stopped,continuousResponses_text,textRunLoop.thisRepN,textRunLoop.thisTrialN,textRunLoop.thisN,textRunLoop.thisIndex,textRunLoop.ran,text1_1,text1_2,text2_1,text2_2,runBreakText.started,runBreakText.stopped,endingBreakKey_2.keys,endingBreakKey_2.rt,endingBreakKey_2.duration,ending.started,ending.stopped,endingEnding.keys,endingEnding.rt,endingEnding.duration
tom,0.0002,7.0341,y,6.7278,,631664e2a5d07c0ad889cf91,2024-02-08_16h02.23.311,group3.1-3.2-social-tom,2023.2.2,Win32,238.0952381,65c5074098b851296ff0b7ed,65c54149837205634a0f292a,,,,,,,,,,,,,,,,,,,,,,,,,,,,,,,,,,,,,,,,,,,,,,,,,,,,,,,,,,,,,,,,,,,,,,,,,,,,,,,,,,,,,,,,,,,,,,,,,,,,,,,,,,
,,,,,,631664e2a5d07c0ad889cf91,2024-02-08_16h02.23.311,group3.1-3.2-social-tom,2023.2.2,Win32,238.0952381,65c5074098b851296ff0b7ed,65c54149837205634a0f292a,7.0344,9.5576,space,2.5079,,,,,,,,,,,,,,,,,,,,,,,,,,,,,,,,,,,,,,,,,,,,,,,,,,,,,,,,,,,,,,,,,,,,,,,,,,,,,,,,,,,,,,,,,,,,,,,,,,,,,,
,,,,,,631664e2a5d07c0ad889cf91,2024-02-08_16h02.23.311,group3.1-3.2-social-tom,2023.2.2,Win32,238.0952381,65c5074098b851296ff0b7ed,65c54149837205634a0f292a,,,,,,9.5576,23.4754,space,13.6136,,,,,,,,,,,,,,,,,,,,,,,,,,,,,,,,,,,,,,,,,,,,,,,,,,,,,,,,,,,,,,,,,,,,,,,,,,,,,,,,,,,,,,,,,,,,,,,,,
,,,,,,631664e2a5d07c0ad889cf91,2024-02-08_16h02.23.311,group3.1-3.2-social-tom,2023.2.2,Win32,238.0952381,65c5074098b851296ff0b7ed,65c54149837205634a0f292a,,,,,,,,,,,23.4794,40.0877,space,16.602,,"[0.11041666666666666,-0.004166666666666667]","[0.562962962962963,0.022222222222222223]","[1,1]","[0,0]","[0,0]","[4.7084000000953665,14.465800000190733]",0,0,0,0,1,,,,,,,,,,,,,,,,,,,,,,,,,,,,,,,,,,,,,,,,,,,,,,,,,,,,,,,,,,,,,,,,,,,,,,,,,,,,,,,,
,,,,,,631664e2a5d07c0ad889cf91,2024-02-08_16h02.23.311,group3.1-3.2-social-tom,2023.2.2,Win32,238.0952381,65c5074098b851296ff0b7ed,65c54149837205634a0f292a,,,,,,,,,,,40.088,57.6386,space,17.4938,,[],[],[],[],[],[],1,0,1,0,1,,,,,,,,,,,,,,,,,,,,,,,,,,,,,,,,,,,,,,,,,,,,,,,,,,,,,,,,,,,,,,,,,,,,,,,,,,,,,,,,
,,,,,,631664e2a5d07c0ad889cf91,2024-02-08_16h02.23.311,group3.1-3.2-social-tom,2023.2.2,Win32,238.0952381,65c5074098b851296ff0b7ed,65c54149837205634a0f292a,,,,,,,,,,,57.6445,66.7475,space,9.0758,,[],[],[],[],[],[],2,0,2,0,1,,,,,,,,,,,,,,,,,,,,,,,,,,,,,,,,,,,,,,,,,,,,,,,,,,,,,,,,,,,,,,,,,,,,,,,,,,,,,,,,
,,,,,,631664e2a5d07c0ad889cf91,2024-02-08_16h02.23.311,group3.1-3.2-social-tom,2023.2.2,Win32,238.0952381,65c5074098b851296ff0b7ed,65c54149837205634a0f292a,,,,,,,,,,,66.7556,96.9145,space,30.15,,"[0.04895833333333333,0.16458333333333333]","[0.22037037037037038,-0.06296296296296296]","[1,1]","[0,0]","[0,0]","[22.009,27.864799999952325]",3,0,3,0,1,,,,,,,,,,,,,,,,,,,,,,,,,,,,,,,,,,,,,,,,,,,,,,,,,,,,,,,,,,,,,,,,,,,,,,,,,,,,,,,,
,,,,,,631664e2a5d07c0ad889cf91,2024-02-08_16h02.23.311,group3.1-3.2-social-tom,2023.2.2,Win32,238.0952381,65c5074098b851296ff0b7ed,65c54149837205634a0f292a,,,,,,,,,,,96.9208,104.4845,space,7.556,,[],[],[],[],[],[],4,0,4,0,1,,,,,,,,,,,,,,,,,,,,,,,,,,,,,,,,,,,,,,,,,,,,,,,,,,,,,,,,,,,,,,,,,,,,,,,,,,,,,,,,
,,,,,,631664e2a5d07c0ad889cf91,2024-02-08_16h02.23.311,group3.1-3.2-social-tom,2023.2.2,Win32,238.0952381,65c5074098b851296ff0b7ed,65c54149837205634a0f292a,,,,,,,,,,,,,,,,,,,,,,,,,,,104.4913,107.0712,107.0931,1,audio/Narrative13Situation2.wav,109.0935,,109.0936,138.8149,"[[999,0],[999,103],[999,187],[999,270],[999,353],[999,437],[999,520],[34.2,604],[36.6,688],[39.8,771],[47.8,1188],[45.8,1271],[45.4,1355],[45.4,1438],[45.4,1521],[45.4,1605],[45.6,1688],[46.4,1772],[46.8,1855],[47.4,1938],[48.3,2022],[50,2105],[50.1,2189],[50.1,2272],[50.1,2355],[50.1,2439],[50.3,2522],[50.5,2606],[50.5,2689],[50.7,2773],[50.7,2856],[50.7,2939],[50.7,3023],[50.7,3106],[50.7,3190],[50.7,3273],[50.7,3356],[50.7,3440],[50.7,3523],[50.7,3607],[50.7,3690],[50.7,3773],[50.7,3857],[50.6,3940],[50.4,4024],[50.3,4107],[50.3,4191],[50.3,4274],[50.3,4357],[50.3,4441],[50.3,4524],[50.3,4608],[50.3,4691],[50.3,4774],[50.3,4858],[50.3,4941],[50.3,5025],[50.3,5108],[50.3,5192],[50.3,5275],[50.3,5358],[50.3,5442],[50.7,5525],[50.9,5609],[51.6,5692],[52,5775],[52.2,5859],[52.2,5942],[52.2,6026],[52.2,6109],[52.2,6193],[52.2,6276],[52.2,6359],[52.2,6443],[52.5,6526],[52.7,6610],[53,6693],[53,6777],[53.5,6860],[53.6,6943],[53.8,7027],[54,7110],[54.4,7194],[57.8,7277],[58.8,7360],[58.8,7444],[58.8,7527],[58.8,7611],[61.1,7695],[67.9,7778],[67.9,7861],[67.9,7944],[67.9,8028],[67.9,8111],[67.9,8195],[67.9,8278],[67.9,8362],[67.9,8445],[67.9,8528],[67.9,8612],[67.9,8695],[70.7,8779],[74.8,8862],[74.8,8945],[74.8,9029],[74.8,9112],[74.8,9196],[74.8,9279],[74.8,9362],[74.8,9446],[74.8,9529],[74.8,9613],[74.8,9696],[74.8,9780],[74.8,9863],[74.8,9946],[74.8,10030],[74.8,10113],[76.3,10197],[76.8,10280],[76.9,10363],[77.4,10447],[78.5,10531],[79,10614],[79.2,10697],[79.6,10780],[80,10864],[80.2,10947],[80.2,11031],[80.2,11114],[80.2,11197],[79.2,11281],[78.1,11364],[77.8,11456],[77.7,11540],[77.5,11623],[77.3,11707],[77.1,11790],[76.8,11874],[76.7,11957],[76.6,12040],[76.6,12124],[76.6,12207],[76.6,12290],[76.6,12374],[76.6,12457],[76.6,12541],[76.6,12624],[76.6,12708],[76.6,12791],[76.6,12875],[76.6,12958],[76.6,13041],[76.6,13124],[76.6,13208],[76.6,13291],[76.6,13375],[76.6,13458],[76.6,13541],[76.6,13625],[76.6,13708],[76.1,13792],[75.2,13875],[75,13959],[74.9,14042],[74.7,14126],[74.6,14209],[74.1,14292],[72.7,14376],[72.6,14459],[72.5,14543],[72.2,14626],[71.5,14710],[70.9,14793],[70.9,14876],[70.9,14959],[70.9,15043],[70.9,15126],[70.9,15210],[70.9,15293],[70.9,15377],[70.9,15460],[70.9,15543],[70.9,15627],[71.3,15710],[71.5,15794],[71.5,15877],[71.5,15961],[71.5,16044],[71.5,16128],[71.6,16211],[71.7,16294],[71.8,16378],[71.9,16461],[71.9,16545],[72,16628],[72,16711],[72,16795],[72,16878],[72,16962],[72,17045],[72,17129],[72,17212],[72,17295],[72,17379],[72,17462],[72,17546],[72,17629],[72,17712],[72,17796],[72,17879],[72,17963],[72,18046],[72,18130],[72,18213],[72,18296],[72,18380],[72,18463],[72,18547],[72,18630],[72,18713],[72,18797],[72,18880],[72,18964],[72,19047],[72,19130],[72,19214],[72,19297],[72,19381],[71.1,19464],[66.6,19547],[65.4,19631],[62.7,19715],[57.7,19798],[54,19881],[49.7,19966],[48.8,20048],[48.8,20131],[48.8,20215],[49.4,20298],[49.9,20382],[49.9,20465],[49.9,20548],[49.9,20632],[49.9,20715],[49.9,20799],[49.9,20882],[49.9,20966],[49.9,21049],[49.9,21132],[49.9,21216],[47.1,21299],[44.7,21383],[39.2,21466],[33.4,21550],[30.8,21633],[30.6,21716],[30.3,21800],[29,21883],[28.6,21966],[28.1,22050],[27.8,22134],[27.8,22217],[27.8,22300],[27.8,22384],[27.8,22467],[27.8,22550],[33.1,22634],[38.3,22718],[44.6,22801],[46,22884],[46,22968],[46.4,23051],[48.4,23135],[50,23218],[50.3,23301],[50.3,23385],[50.3,23468],[50.2,23551],[50.1,23635],[50,23718],[49.7,23802],[49.3,23885],[49.3,23969],[49.3,24052],[59.1,24136],[61.7,24219],[63.4,24302],[68.3,24386],[71.1,24469],[71.7,24553],[71.9,24636],[72,24719],[73.2,24803],[74.1,24886],[74.1,24970],[74.1,25053],[74.1,25136],[74.5,25220],[75.1,25303],[75.8,25387],[76.8,25470],[77.3,25553],[77.4,25637],[77.5,25720],[77.5,25804],[77.5,25887],[77.6,25970],[79.4,26054],[79.4,26137],[79.4,26221],[79.4,26304],[79.4,26387],[79.4,26471],[79.4,26554],[79.4,26638],[80.2,26721],[81.6,26805],[81.6,26888],[81.7,26972],[82.8,27055],[82.9,27138],[82.9,27222],[82.9,27305],[82.9,27388],[82.9,27472],[82.9,27555],[82.9,27639],[82.9,27722],[82.9,27806],[82.9,27889],[82.9,27973],[82.9,28056],[82.9,28139],[82.9,28223],[82.9,28306],[82.9,28390],[82.9,28473],[82.3,28556],[81.9,28640],[81.5,28723],[79.4,28807],[76.8,28890],[76.4,28973],[75,29057],[74.8,29140],[74.7,29224],[74.7,29307],[74.7,29391],[74.7,29474],[74.7,29557],[74.7,29641]]",1,0,138.8151,157.1454,55.625,16.9517,"[{""rating"":26.5625,""responseTime"":11.629799999952297},{""rating"":55.625,""responseTime"":16.95170000004768}]",space,17.8181,,157.1455,Half the time,50,157.1484,,,[],,0,0,0,0,1,audio/Narrative13Situation2.wav,audio/Narrative13Situation2.wav,audio/Narrative13Situation2.wav,audio/Narrative13Situation2.wav,2,2,2,2,,,,,,,,,,,,,,,,,,,,,,,,,,,,,,,,,,,,,,,
,,,,,,631664e2a5d07c0ad889cf91,2024-02-08_16h02.23.311,group3.1-3.2-social-tom,2023.2.2,Win32,238.0952381,65c5074098b851296ff0b7ed,65c54149837205634a0f292a,,,,,,,,,,,,,,,,,,,,,,,,,,,,,157.1485,1,audio/Narrative8Situation1.wav,158.5504,space,158.5505,174.4495,"[[59.7,1668],[59.8,1751],[59.8,1835],[59.8,1918],[59.2,2002],[56.5,2085],[54.7,2168],[53.3,2252],[52.5,2335],[50.8,2419],[50.2,2502],[50.2,2585],[50.2,2669],[50.2,2752],[50.2,2835],[50.2,2919],[50.2,3002],[50.2,3086],[50.2,3169],[46.9,3253],[46.1,3336],[46.1,3419],[46.1,3503],[46.3,3586],[49.2,3670],[51.1,3753],[51.6,3836],[51.6,3920],[51.5,4004],[50.4,4087],[50.1,4170],[50.1,4254],[50.1,4337],[50.1,4420],[50.1,4504],[50.1,4587],[48.4,4671],[46.9,4754],[45.9,4837],[44.9,4921],[40.6,5004],[39.4,5088],[37.9,5171],[34.6,5255],[31.8,5338],[30.6,5422],[27.8,5505],[25.2,5588],[24.2,5672],[24.1,5755],[24.1,5838],[24.1,5922],[24.1,6005],[24.1,6089],[26.8,6172],[29.6,6256],[29.6,6339],[29.7,6422],[37.3,6506],[44.3,6589],[49.7,6673],[57.8,6756],[59,6839],[60.5,6923],[62,7006],[62.6,7090],[63,7173],[63.3,7257],[63.5,7340],[63.5,7423],[63.5,7507],[63.5,7590],[65,7674],[65.6,7757],[65.6,7840],[65.6,7924],[65.6,8007],[65.6,8091],[65.6,8174],[65.6,8258],[65.6,8341],[65.6,8424],[65.6,8508],[64.5,8591],[62.9,8675],[62.3,8758],[61.9,8841],[61.1,8925],[60.5,9008],[60.1,9092],[57.9,9175],[54.5,9259],[53,9342],[52.8,9425],[52.1,9509],[51.8,9592],[51.6,9676],[51.4,9759],[51,9842],[50.8,9926],[50.5,10009],[50,10093],[49.6,10176],[49.5,10260],[49.2,10344],[49.1,10426],[49.1,10510],[49.1,10593],[49.1,10676],[48.8,10760],[48,10843],[47.8,10927],[47.8,11010],[51,11094],[63.4,11177],[70.7,11261],[73.1,11344],[76,11427],[79.4,11511],[81.3,11594],[81.3,11677],[81.3,11761],[81.3,11844],[81.3,11928],[81.3,12011],[81.3,12095],[81.3,12178],[80.9,12261],[80.3,12345],[80,12428],[79.8,12512],[79.7,12595],[79.5,12678],[79.5,12762],[79.5,12845],[79.5,12929],[79.5,13012],[79.5,13096],[79.5,13179],[79.6,13263],[80.7,13346],[81,13429],[81.4,13513],[81.7,13596],[82,13680],[82.6,13763],[83,13846],[83,13930],[83,14013],[83,14097],[83,14180],[83,14263],[83,14347],[83,14430],[83,14514],[83,14597],[83,14681],[83,14764],[83,14847],[83,14931],[82.9,15014],[80.8,15098],[78.1,15181],[76.8,15264],[76.6,15356],[76.6,15439],[76.6,15523],[76.6,15606],[76.6,15690],[76.6,15773],[76.6,15857]]",1,0,174.4496,188.3298,88.64583333,12.0461,"[{""rating"":88.64583333333333,""responseTime"":12.046100000143042}]",space,13.3717,,188.3298,All the time,100,188.3318,,,[],,0,1,1,1,1,audio/Narrative7Situation1.wav,audio/Narrative8Situation1.wav,audio/Narrative5Situation1.wav,audio/Narrative6Situation1.wav,2,5,5,2,1.3933,,,,,,,,,,,,,,,,,,,,,,,,,,,,,,,,,,,,,,
,,,,,,631664e2a5d07c0ad889cf91,2024-02-08_16h02.23.311,group3.1-3.2-social-tom,2023.2.2,Win32,238.0952381,65c5074098b851296ff0b7ed,65c54149837205634a0f292a,,,,,,,,,,,,,,,,,,,,,,,,,,,,,188.3319,1,audio/Narrative8Situation2.wav,191.3327,,191.3327,201.4219,"[[999,6],[999,87],[999,171],[999,254],[999,337],[999,421],[999,504],[999,588],[999,671],[999,755],[999,838],[999,921],[999,1005],[999,1088],[999,1172],[999,1255],[58.1,1338],[56.4,1422],[56,1505],[55.9,1588],[54.8,1672],[52.9,1756],[50.1,1839],[49.6,1922],[49.6,2006],[49.6,2089],[49.6,2172],[49.6,2256],[49.6,2339],[49.6,2423],[49.6,2506],[49.6,2590],[49.6,2673],[49.6,2756],[49.6,2840],[50.7,2923],[51.6,3007],[52,3090],[52.2,3173],[52.6,3257],[53,3340],[53.2,3424],[53.2,3507],[53.2,3590],[52.8,3674],[50.4,3758],[49.1,3841],[49,3924],[49,4008],[49,4091],[49.1,4174],[49.7,4258],[49.8,4341],[49.8,4425],[49.8,4508],[49.8,4591],[49.8,4675],[49.8,4758],[49.8,4842],[49.8,4925],[49.8,5009],[49.8,5092],[49.8,5175],[49.8,5259],[49.8,5342],[49.8,5426],[49.8,5509],[49.8,5592],[49.8,5676],[49.8,5759],[49.8,5843],[49.8,5926],[49.8,6010],[49.8,6093],[49.8,6176],[49.8,6260],[49.8,6343],[49.8,6427],[49.8,6510],[49.8,6593],[49.8,6677],[49.8,6760],[49.8,6844],[49.8,6927],[50.8,7011],[51.7,7094],[52.4,7177],[53.4,7261],[55.6,7344],[56.4,7428],[58.8,7512],[60.6,7594],[60.6,7678],[60.6,7761],[60.7,7845],[62.7,7928],[63.1,8012],[63.5,8095],[65.4,8179],[66.7,8262],[66.7,8345],[66.8,8429],[69,8512],[69.4,8595],[70,8679],[72,8763],[73,8846],[74.4,8929],[77.2,9013],[79.8,9096],[80.3,9180],[81.7,9263],[83.3,9346],[86.4,9430],[86.8,9513],[86.8,9596],[86.8,9680],[86.8,9763],[86.8,9847],[86.1,9930],[85.6,10014]]",1,0,201.422,210.5894,90.20833333,8.5016,"[{""rating"":77.60416666666667,""responseTime"":4.1059000000953745},{""rating"":90.20833333333333,""responseTime"":8.501600000143043}]",space,8.6596,,210.5894,Not at all,0,210.5923,,,[],,0,2,2,2,1,audio/Narrative7Situation2.wav,audio/Narrative8Situation2.wav,audio/Narrative5Situation2.wav,audio/Narrative6Situation2.wav,3,3,3,3,,,,,,,,,,,,,,,,,,,,,,,,,,,,,,,,,,,,,,,
,,,,,,631664e2a5d07c0ad889cf91,2024-02-08_16h02.23.311,group3.1-3.2-social-tom,2023.2.2,Win32,238.0952381,65c5074098b851296ff0b7ed,65c54149837205634a0f292a,,,,,,,,,,,,,,,,,,,,,,,,,,,,,210.5924,1,audio/Narrative8Situation3.wav,214.5932,,214.5932,236.9489,"[[999,6],[999,87],[999,170],[999,254],[999,337],[999,421],[999,504],[999,588],[999,671],[999,755],[999,838],[999,921],[999,1005],[999,1088],[999,1171],[999,1255],[999,1338],[999,1422],[999,1505],[999,1589],[999,1672],[999,1755],[999,1839],[999,1922],[999,2006],[999,2089],[999,2173],[999,2256],[999,2339],[999,2423],[999,2507],[999,2590],[999,2673],[999,2757],[999,2840],[999,2923],[999,3007],[999,3090],[67.1,3174],[56.6,3424],[55.7,3507],[51.8,3591],[49.6,3674],[49.6,3757],[49.6,3841],[49,3924],[48.9,4008],[48.9,4091],[48.9,4175],[49.2,4259],[49.2,4341],[49.4,4425],[49.6,4508],[49.6,4592],[49.6,4675],[49.6,4758],[49.8,4842],[51.8,4925],[52.1,5009],[52.1,5092],[52.1,5175],[52.1,5259],[52.1,5342],[52.5,5426],[52.5,5509],[52.5,5593],[52.5,5676],[52.5,5759],[52.5,5843],[52.5,5926],[53.6,6010],[60.5,6844],[60.6,6927],[61.5,7010],[61.5,7094],[62,7177],[62.8,7261],[64.6,7344],[67.3,7428],[67.5,7511],[67.5,7594],[67.5,7678],[67.5,7761],[67.5,7845],[67.5,7928],[67.5,8012],[67.5,8095],[65.9,8179],[62.4,8262],[62.3,8346],[62,8429],[61.5,8512],[60.7,8596],[60.2,8679],[59.7,8762],[59.7,8846],[59.7,8929],[59.7,9013],[59.7,9096],[59.7,9179],[59.7,9263],[59.7,9346],[59.7,9430],[59.7,9513],[59.7,9597],[59.7,9680],[59.8,9763],[65.3,9847],[66.4,9930],[71,10014],[72.9,10097],[75,10181],[78.2,10264],[83,10347],[84.1,10431],[87.5,10514],[90,10597],[90,10681],[90,10764],[90,10848],[90,10931],[90,11015],[89.3,11098],[88.6,11182],[88.4,11265],[88.4,11348],[88.4,11432],[88.4,11515],[88.4,11598],[88.4,11682],[88.4,11765],[88.4,11849],[88.4,11932],[88.4,12015],[88.4,12099],[88.4,12182],[88.4,12266],[88.4,12349],[88.4,12433],[88.4,12516],[88.4,12599],[88.4,12683],[88.4,12766],[88.4,12850],[88.4,12933],[88.4,13016],[88.4,13100],[87.9,13184],[85.2,13267],[84.4,13350],[84.3,13434],[84,13517],[83.9,13601],[83.4,13684],[82.9,13767],[82.4,13851],[82.2,13934],[81.8,14018],[81,14101],[80.7,14184],[80.6,14268],[80.1,14351],[79.9,14435],[79.8,14518],[79.5,14601],[79.3,14685],[79.2,14768],[79.2,14852],[79.2,14935],[79.2,15019],[79.5,15102],[80.3,15186],[81.4,15269],[82.8,15353],[85.9,15436],[92.4,15519],[94.4,15603],[94.5,15686],[95.3,15769],[95.9,15853],[95.9,15936],[95.9,16020],[95.9,16103],[95.9,16186],[95.9,16270],[96.1,16353],[96.3,16437],[96.4,16520],[96.4,16603],[96.4,16687],[96.6,16770],[96.8,16854],[96.9,16937],[96.9,17020],[96.9,17104],[96.9,17187],[96.9,17271],[96.9,17354],[96.9,17437],[96.6,17521],[93.6,17604],[92.6,17688],[92.6,17771],[92.6,17855],[92.6,17938],[92.6,18021],[92.6,18105],[92.6,18188],[92.6,18272],[92.6,18355],[92.6,18438],[92.6,18522],[92.6,18606],[92.6,18689],[92.6,18772],[92.6,18856],[92.6,18939],[92.6,19022],[92.6,19106],[92.6,19189],[92.6,19273],[92.6,19356],[90.4,19440],[89,19523],[87.2,19606],[86.8,19690],[86.8,19773],[86.8,19857],[86.8,19940],[86.8,20024],[86.8,20107],[86.8,20190],[86.8,20274],[86.8,20357],[86.8,20441],[86.8,20524],[86.8,20607],[86.8,20691],[86.8,20774],[86.8,20858],[86.8,20941],[86.8,21025],[87.6,21108],[88.4,21191],[90.1,21275],[93,21359],[96.7,21442],[100,21525],[100,21608],[100,21692],[100,21775],[100,21859],[100,21942],[100,22025],[100,22109],[100,22192],[100,22276]]",1,0,236.9491,242.8211,100,3.5897,"[{""rating"":100,""responseTime"":3.589700000047685}]",space,5.365,,242.8212,Not at all,0,242.8224,,,[],,0,3,3,3,1,audio/Narrative7Situation3.wav,audio/Narrative8Situation3.wav,audio/Narrative5Situation3.wav,audio/Narrative6Situation3.wav,8,4,3,5,,,,,,,,,,,,,,,,,,,,,,,,,,,,,,,,,,,,,,,
,,,,,,631664e2a5d07c0ad889cf91,2024-02-08_16h02.23.311,group3.1-3.2-social-tom,2023.2.2,Win32,238.0952381,65c5074098b851296ff0b7ed,65c54149837205634a0f292a,,,,,,,,,,,,,,,,,,,,,,,,,,,,,242.8226,1,audio/Narrative8Situation4.wav,245.8242,,245.8242,259.9715,"[[999,0],[999,83],[999,166],[999,250],[999,333],[999,416],[999,500],[999,583],[999,667],[999,750],[999,834],[999,917],[999,1001],[999,1084],[999,1167],[999,1251],[999,1334],[999,1418],[67.4,1501],[67.2,1584],[67.1,1668],[67.1,1751],[67.1,1835],[67.1,1918],[67.1,2001],[67.1,2085],[67.1,2168],[67.1,2252],[67.1,2335],[67.1,2418],[67.1,2502],[67.1,2585],[67.1,2669],[67.1,2752],[67.1,2835],[67.1,2919],[67.1,3002],[67.1,3086],[67.1,3169],[67.1,3252],[67.1,3336],[67.1,3419],[67.1,3503],[67.1,3586],[67.1,3670],[67.1,3753],[67.1,3836],[67.1,3920],[67.1,4003],[67.1,4087],[67.1,4170],[67.1,4254],[67.1,4337],[67.1,4420],[67.1,4504],[67.1,4587],[67.1,4670],[67.9,4754],[68.8,4838],[69.4,4921],[70.3,5004],[71.3,5088],[73.3,5171],[74.4,5255],[76.6,5338],[76.6,5421],[77.2,5505],[77.5,5588],[77.5,5672],[77.5,5755],[77.5,5838],[77.5,5922],[77.5,6005],[77.5,6089],[77.5,6172],[78.1,6256],[78,6339],[77.9,6422],[77.7,6506],[77.3,6589],[76.9,6673],[76.4,6756],[75.6,6840],[74.9,6923],[74.6,7006],[74.6,7090],[74.6,7173],[74.6,7257],[74.6,7340],[74.6,7423],[72.6,7507],[64.9,7590],[64.9,7674],[64.9,7757],[64.9,7840],[64.9,7924],[65.6,8007],[66.1,8091],[66.1,8174],[66.1,8257],[66.8,8341],[67.9,8425],[67.9,8508],[67.9,8591],[67.9,8675],[67.9,8758],[67.9,8841],[67.9,8925],[67.9,9008],[67.9,9092],[67.9,9175],[67.9,9259],[67.9,9342],[73,9425],[81.1,9509],[81.1,9592],[81.1,9676],[81.1,9759],[81.1,9842],[81.1,9926],[81.1,10009],[81.1,10093],[81.1,10176],[81.1,10259],[81.1,10343],[81.1,10426],[82.4,10510],[83.8,10593],[83.8,10677],[83.8,10760],[83.8,10843],[83.8,10927],[83.8,11010],[83.8,11094],[83.8,11177],[83.8,11260],[83.8,11344],[83.8,11427],[83.8,11511],[83.8,11594],[83.8,11677],[83.8,11761],[83.8,11844],[83.8,11928],[83.8,12011],[83.8,12095],[83.8,12178],[83.8,12261],[83.8,12345],[83.8,12428],[83.6,12512],[83.6,12595],[83.5,12679],[83.5,12762],[83.5,12845],[83.5,12929],[83.5,13012],[83.5,13096],[83.5,13179],[83.5,13263],[83.5,13346],[83.5,13429],[83.5,13513],[83.5,13596],[83.5,13680],[83.5,13763],[83.5,13846],[83.5,13930],[83.5,14013],[83.5,14097]]",1,0,259.9716,266.6488,80.3125,5.5992,"[{""rating"":94.0625,""responseTime"":2.4658999998569016},{""rating"":80.3125,""responseTime"":5.486200000047631},{""rating"":80.3125,""responseTime"":5.599200000047631}]",space,6.1693,,266.6489,Not at all,0,266.6498,,,[],,0,4,4,4,1,audio/Narrative7Situation4.wav,audio/Narrative8Situation4.wav,audio/Narrative5Situation4.wav,audio/Narrative6Situation4.wav,3,3,1,2,,,,,,,,,,,,,,,,,,,,,,,,,,,,,,,,,,,,,,,
,,,,,,631664e2a5d07c0ad889cf91,2024-02-08_16h02.23.311,group3.1-3.2-social-tom,2023.2.2,Win32,238.0952381,65c5074098b851296ff0b7ed,65c54149837205634a0f292a,,,,,,,,,,,,,,,,,,,,,,,,,,,,,266.65,1,audio/Narrative8Situation5.wav,268.651,,268.651,276.876,"[[999,0],[999,84],[53.3,166],[56.8,250],[57.9,333],[57.9,416],[57.9,500],[57.9,583],[57.4,667],[56,750],[55.7,833],[55.7,917],[55.7,1000],[55.7,1084],[55.7,1167],[55.1,1251],[54.6,1334],[50.4,2585],[50.4,2668],[50.3,2752],[50.2,2835],[50.2,2919],[50.2,3002],[54.5,3086],[55.1,3169],[56.1,3253],[57.2,3336],[58.9,3419],[62.7,3503],[62.7,3586],[62.7,3669],[62.1,3753],[56.4,3836],[55.5,3920],[55.5,4003],[55.5,4087],[55.5,4170],[55.5,4253],[55.5,4337],[55.5,4420],[55.5,4504],[55.5,4587],[57.3,4671],[59.5,4754],[60.6,4837],[61.8,4921],[62.7,5004],[63,5088],[63,5171],[64.1,5255],[65.3,5338],[66,5422],[66.3,5505],[66.3,5588],[66.3,5671],[66.4,5755],[66.4,5838],[66.4,5922],[66.4,6005],[66.4,6088],[66.4,6172],[66,6255],[64.2,6339],[61.7,6423],[60.7,6506],[59.1,6589],[55.9,6673],[54.8,6756],[49.9,6840],[46.5,6923],[44.7,7006],[44.6,7090],[44.6,7173],[44.6,7256],[44.6,7340],[44.6,7423],[44.6,7507],[44.6,7590],[44.6,7674],[44.6,7757],[44.6,7840],[37.5,7925],[35.3,8007],[35.2,8091],[42,8174]]",1,0,276.8762,284.7166,77.39583333,7.2885,"[{""rating"":61.979166666666664,""responseTime"":4.3356000001430175},{""rating"":77.39583333333333,""responseTime"":7.288499999999999}]",space,7.3299,,284.7167,All the time,100,284.7184,,,[],,0,5,5,5,1,audio/Narrative7Situation5.wav,audio/Narrative8Situation5.wav,audio/Narrative5Situation5.wav,audio/Narrative6Situation5.wav,5,2,5,2,,,,,,,,,,,,,,,,,,,,,,,,,,,,,,,,,,,,,,,
,,,,,,631664e2a5d07c0ad889cf91,2024-02-08_16h02.23.311,group3.1-3.2-social-tom,2023.2.2,Win32,238.0952381,65c5074098b851296ff0b7ed,65c54149837205634a0f292a,,,,,,,,,,,,,,,,,,,,,,,,,,,,,284.7186,1,audio/Narrative8Situation6.wav,286.7188,,286.7189,293.1665,"[[999,0],[999,83],[999,166],[999,249],[999,333],[999,416],[999,500],[999,583],[999,667],[999,750],[999,833],[999,917],[999,1000],[999,1083],[999,1167],[999,1250],[999,1334],[71,1418],[70.3,1501],[70.3,1584],[70.3,1667],[70.3,1751],[65.2,1835],[54.4,1918],[53.4,2001],[53.4,2084],[52.7,2168],[52.2,2251],[51,2335],[50.6,2418],[50.1,2502],[50.1,2585],[50.1,2668],[50.1,2752],[50.1,2835],[50.1,2919],[50.1,3002],[50.1,3085],[50.1,3169],[50.1,3252],[50.1,3336],[50.1,3419],[50.1,3502],[50.1,3586],[50.1,3669],[50.1,3753],[50.1,3836],[50.1,3920],[50.1,4003],[50.1,4086],[50.1,4170],[50.1,4253],[50.3,4337],[50.9,4420],[51.4,4504],[51.9,4587],[52.4,4670],[52.8,4754],[52.9,4837],[52.9,4920],[52.9,5004],[52.9,5088],[52.9,5171],[53.9,5255],[54.1,5338],[54.2,5421],[54.2,5504],[54.2,5588],[54.4,5672],[54.5,5755],[54.7,5838],[55,5922],[55.4,6005],[56.6,6089],[57.6,6172],[58.4,6255],[59.3,6339],[59.4,6422]]",1,0,293.1667,307.9144,63.33333333,13.0846,"[{""rating"":63.33333333333333,""responseTime"":7.43140000009538},{""rating"":63.33333333333333,""responseTime"":13.084600000143098}]",space,14.2421,,307.9144,All the time,100,307.9155,,,[],,0,6,6,6,1,audio/Narrative7Situation6.wav,audio/Narrative8Situation6.wav,audio/Narrative5Situation6.wav,audio/Narrative6Situation6.wav,3,2,3,2,,,,,,,,,,,,,,,,,,,,,,,,,,,,,,,,,,,,,,,
,,,,,,631664e2a5d07c0ad889cf91,2024-02-08_16h02.23.311,group3.1-3.2-social-tom,2023.2.2,Win32,238.0952381,65c5074098b851296ff0b7ed,65c54149837205634a0f292a,,,,,,,,,,,,,,,,,,,,,,,,,,,,,307.9157,1,audio/Narrative8Situation7.wav,310.9174,,310.9174,322.9752,"[[999,5],[999,87],[999,170],[999,254],[999,337],[999,421],[999,504],[999,588],[999,671],[999,755],[999,838],[999,921],[999,1005],[999,1088],[999,1171],[999,1255],[999,1338],[999,1422],[999,1505],[999,1588],[999,1672],[999,1755],[999,1839],[999,1922],[999,2006],[999,2089],[999,2173],[999,2256],[999,2339],[999,2423],[999,2506],[999,2589],[999,2673],[999,2756],[999,2840],[999,2923],[54,3007],[47.9,3090],[47.3,3173],[47.3,3257],[49.2,3340],[50.6,3424],[50.6,3507],[50.6,3591],[49.1,3674],[45.7,3758],[42.8,3841],[42.2,3924],[41.7,4007],[40.2,4091],[39.2,4174],[39.2,4258],[39.2,4341],[35.5,4425],[32.8,4508],[32.7,4591],[32.7,4675],[32.7,4758],[32.7,4842],[31.5,4925],[30.9,5009],[30.7,5092],[30.2,5175],[29.7,5259],[29.6,5342],[29.3,5426],[28.2,5509],[26.9,5592],[25.9,5676],[25.8,5759],[25.6,5843],[25.6,5926],[25.5,6010],[25.3,6093],[24.7,6176],[24.5,6260],[24.1,6343],[23.8,6427],[23.5,6510],[22.6,6594],[21.5,6677],[21.4,6760],[21.4,6844],[21.4,6927],[21.4,7010],[21.4,7094],[18.3,7178],[17.6,7261],[17.6,7344],[17.5,7427],[12.8,7511],[12.8,7594],[12.8,7678],[12.8,7761],[12.8,7845],[12.8,7928],[12.8,8012],[12.8,8095],[12.7,8179],[9.7,8262],[9.7,8345],[9.5,8429],[9.3,8512],[9.2,8595],[9.2,8679],[9.2,8762],[9.2,8846],[9.2,8929],[9.2,9013],[9.2,9096],[9.2,9179],[9.2,9263],[10.4,9346],[11.6,9430],[12,9513],[12.4,9596],[13.6,9680],[13.9,9763],[13.9,9847],[13.9,9930],[13.9,10013],[19.7,10097],[26.8,10181],[37.6,10264],[44.5,10347],[50.4,10431],[56.5,10514],[60.8,10597],[60.8,10681],[60.8,10764],[63.4,10848],[67.4,10931],[67.6,11014],[67.6,11098],[67.6,11181],[67.6,11265],[67.6,11348],[67.6,11432],[67.6,11515],[67.6,11598],[67.6,11682],[71.8,11765],[75.1,11848],[75.1,11932],[75.1,12015]]",1,0,322.9754,333.8277,49.375,7.9963,"[{""rating"":28.541666666666664,""responseTime"":5.9535000000000196},{""rating"":49.375,""responseTime"":7.996299999952328}]",space,10.3478,,333.8278,Not at all,0,333.8293,,,[],,0,7,7,7,1,audio/Narrative7Situation7.wav,audio/Narrative8Situation7.wav,audio/Narrative5Situation7.wav,audio/Narrative6Situation7.wav,5,3,4,5,,,,,,,,,,,,,,,,,,,,,,,,,,,,,,,,,,,,,,,
,,,,,,631664e2a5d07c0ad889cf91,2024-02-08_16h02.23.311,group3.1-3.2-social-tom,2023.2.2,Win32,238.0952381,65c5074098b851296ff0b7ed,65c54149837205634a0f292a,,,,,,,,,,,,,,,,,,,,,,,,,,,,,333.8295,1,audio/Narrative8Situation8.wav,336.8305,,336.8305,349.6559,"[[57.1,1422],[56.3,1505],[56.1,1589],[55.1,1672],[53.2,1755],[50.9,1839],[49.5,1922],[49.5,2006],[49.5,2089],[49.6,2173],[49.8,2256],[49.8,2339],[49.8,2423],[49.8,2506],[49.8,2589],[49.8,2673],[49.8,2756],[49.8,2840],[49.8,2923],[49.8,3007],[49.8,3090],[49.8,3173],[49.8,3257],[49.8,3340],[49.8,3424],[49.8,3507],[49.8,3591],[49.8,3674],[49.8,3757],[51.1,3841],[52.4,3924],[52.6,4007],[52.6,4091],[52.6,4174],[53.3,4258],[54.9,4341],[56.8,4425],[59.9,4508],[62.6,4592],[64.6,4675],[66.3,4759],[67.2,4842],[68.6,4925],[70.6,5009],[72.9,5092],[74.6,5175],[75.1,5259],[75.1,5342],[75.1,5426],[75.1,5509],[75.1,5593],[75.1,5676],[75.1,5759],[75.1,5843],[75.1,5926],[75.1,6009],[76.7,6093],[76.9,6176],[79,6260],[79.2,6343],[79.2,6427],[79.2,6510],[79.2,6593],[79.2,6677],[79.2,6760],[79.1,6844],[78.9,6927],[78.4,7011],[77.6,7094],[75.7,7178],[71,7261],[66.7,7344],[65.4,7428],[65.4,7511],[61.1,7595],[50.7,7678],[50.7,7761],[50.7,7845],[50.7,7928],[49.2,8012],[49.2,8095],[49.2,8178],[49.2,8262],[49.2,8345],[49.2,8429],[49.2,8512],[49.2,8595],[49.2,8679],[49.2,8762],[49.2,8846],[49.2,8929],[49.2,9013],[49.2,9096],[49.2,9179],[49.2,9263],[49.2,9346],[49.2,9430],[49.2,9513],[49.2,9596],[49.2,9680],[49.2,9763],[49.2,9847],[49.3,9930],[51.4,10014],[56.9,10097],[59.3,10180],[61.1,10264],[62.3,10347],[62.3,10431],[62.3,10514],[62.3,10597],[62.3,10681],[62.3,10764],[62.3,10848],[62.3,10931],[62.3,11014],[62.3,11098],[62.3,11181],[62.3,11265],[62.2,11348],[61.8,11432],[61.6,11515],[61.6,11598],[61.6,11682],[62.2,11765],[68.1,11849],[73.4,11932],[75.6,12016],[76.8,12099],[76.8,12182],[76.8,12266],[76.8,12349],[76.8,12432],[76.9,12516],[79.6,12600],[82.5,12683],[90.1,12767]]",1,0,349.6559,355.7659,82.70833333,3.3019,"[{""rating"":82.70833333333334,""responseTime"":3.3019000000953156}]",space,5.6014,,355.7659,Not at all,0,373.2039,0,12.3467,"[{""rating"":0.1041666666666663,""responseTime"":10.065700000047684},{""rating"":0,""responseTime"":12.34670000004769}]",space,0,8,8,8,1,audio/Narrative7Situation8.wav,audio/Narrative8Situation8.wav,audio/Narrative5Situation8.wav,audio/Narrative6Situation8.wav,2,3,3,5,,,16.9295,,,,,,,,,,,,,,,,,,,,,,,,,,,,,,,,,,,,
,,,,,,631664e2a5d07c0ad889cf91,2024-02-08_16h02.23.311,group3.1-3.2-social-tom,2023.2.2,Win32,238.0952381,65c5074098b851296ff0b7ed,65c54149837205634a0f292a,,,,,,,,,,,,,,,,,,,,,,,,,,,,,373.2094,1,audio/Narrative8Situation9.wav,376.211,,376.2111,387.5013,"[[999,5],[999,87],[999,170],[999,254],[999,337],[999,421],[999,504],[999,587],[999,671],[999,754],[999,838],[999,921],[999,1005],[999,1088],[999,1171],[999,1255],[999,1338],[999,1422],[999,1505],[999,1588],[999,1672],[999,1755],[999,1839],[999,1922],[999,2006],[999,2089],[999,2172],[999,2256],[999,2339],[999,2423],[999,2506],[999,2589],[999,2673],[999,2756],[999,2840],[999,2923],[999,3007],[999,3090],[999,3173],[999,3257],[999,3340],[46.1,3424],[45.9,3507],[45.9,3590],[45.9,3674],[42.1,3757],[38.3,3841],[38.3,3924],[36.1,4008],[35.5,4091],[35.2,4175],[32.5,4258],[30.7,4341],[29.7,4425],[29.6,4508],[29.6,4591],[33.9,4675],[35.3,4758],[38.2,4842],[49.5,4925],[54.2,5008],[54.2,5092],[54.2,5175],[54.2,5259],[54.2,5342],[55.1,5426],[55.6,5509],[56.4,5593],[57.2,5676],[59.4,5759],[61.7,5843],[63.3,5926],[63.4,6009],[63.4,6093],[63.4,6176],[63.5,6260],[64.6,6343],[65.2,6427],[65.8,6510],[66.7,6593],[67.1,6677],[67.5,6761],[67.9,6844],[69.1,6927],[70.2,7011],[70.4,7094],[70.7,7177],[73,7261],[73.1,7344],[73.1,7427],[73.1,7511],[73.1,7594],[73.1,7678],[75.3,7761],[77.6,7845],[78.3,7928],[78.4,8011],[79.9,8095],[85.4,8178],[85.4,8262],[85.4,8345],[88.1,8429],[90.3,8512],[90.3,8595],[90.3,8679],[90.4,8762],[90.4,8846],[91.7,8929],[93.4,9012],[93.5,9096],[93.5,9179],[93.5,9263],[93.5,9346],[93.5,9430],[93.5,9513],[91.8,9596],[88.5,9680],[87.5,9763],[87.5,9846],[87.5,9930],[87.5,10013],[86.1,10097],[82.1,10180],[81.7,10264],[81.7,10347],[81.7,10430],[81.7,10514],[81.7,10597],[81.7,10681],[82.5,10764],[83,10848],[83,10931],[83,11014],[83,11098],[83,11181],[83,11265]]",1,0,387.5014,390.4168,75.72916667,1.3864,"[{""rating"":75.72916666666667,""responseTime"":1.3864000000953638}]",space,2.4091,,390.4169,Half the time,50,390.4191,,,[],,0,9,9,9,1,audio/Narrative7Situation9.wav,audio/Narrative8Situation9.wav,audio/Narrative5Situation9.wav,audio/Narrative6Situation9.wav,2,3,3,4,,,,,,,,,,,,,,,,,,,,,,,,,,,,,,,,,,,,,,,
,,,,,,631664e2a5d07c0ad889cf91,2024-02-08_16h02.23.311,group3.1-3.2-social-tom,2023.2.2,Win32,238.0952381,65c5074098b851296ff0b7ed,65c54149837205634a0f292a,,,,,,,,,,,,,,,,,,,,,,,,,,,,,390.4193,1,audio/Narrative7Situation1.wav,392.4229,,392.4229,448.2826,"[[999,0],[999,83],[999,166],[999,250],[999,333],[999,416],[999,500],[999,583],[999,667],[999,750],[999,834],[999,917],[999,1000],[999,1084],[999,1167],[999,1251],[999,1334],[999,1418],[999,1501],[999,1584],[48.8,1668],[48.4,1751],[48.3,1835],[44.8,1918],[43.5,2001],[43.5,2085],[45.4,2168],[49.5,2252],[49.9,2335],[50.2,2418],[50.2,2502],[50.2,2585],[50,2669],[50,2752],[46.1,2836],[34.6,2919],[29,3003],[26.3,3086],[22.5,3169],[19.4,3253],[19.3,3336],[19.3,3420],[17.8,3503],[15.7,3586],[14.5,3670],[13.9,3753],[10.3,3837],[9.7,3920],[9.7,4003],[9.7,4087],[9.7,4170],[9.7,4254],[9.7,4337],[10,4421],[10.4,4504],[10.5,4587],[10.6,4671],[10.6,4754],[10.6,4838],[10.7,4921],[12.9,5005],[14.1,5088],[14.2,5171],[14.8,5254],[14.9,5338],[14.9,5421],[14.9,5505],[15.3,5588],[15.7,5672],[17.6,5755],[19.5,5839],[19.8,5922],[19.8,6005],[19.8,6089],[19.8,6172],[19.8,6256],[19.8,6339],[20,6423],[20.5,6506],[21,6589],[21.3,6673],[21.6,6756],[22.1,6840],[22.7,6923],[23.2,7006],[23.4,7090],[23.5,7173],[24,7257],[24.2,7340],[24.4,7423],[24.4,7507],[24.6,7591],[24.9,7674],[25.5,7757],[26.3,7841],[26.7,7924],[27,8007],[27.2,8091],[27.4,8174],[27.7,8257],[28.8,8341],[29.2,8424],[29.3,8508],[29.6,8591],[30,8675],[30.2,8758],[30.3,8841],[30.4,8925],[31.6,9008],[32.6,9092],[34.5,9175],[36.1,9259],[38.3,9342],[39.4,9425],[39.5,9509],[39.5,9592],[39.5,9676],[39.5,9759],[39.5,9843],[38.6,9926],[36.5,10009],[34.4,10093],[33,10176],[32.7,10260],[32.1,10343],[31.4,10427],[30.7,10510],[30.5,10593],[30,10677],[29.3,10760],[28.5,10844],[28,10927],[27,11010],[25.5,11094],[24.9,11177],[24.6,11261],[24.1,11344],[23.2,11427],[22.9,11511],[22.9,11594],[22.8,11678],[22.8,11761],[22.8,11844],[22.6,11928],[21.4,12011],[21.4,12095],[21.4,12178],[21.4,12262],[21.4,12345],[21.4,12428],[21.4,12512],[21.4,12595],[21.8,12679],[22.1,12762],[22.4,12845],[22.4,12929],[22.4,13012],[22.4,13096],[22.4,13179],[22.4,13263],[22.4,13346],[22.4,13429],[22.4,13513],[22.4,13596],[22.4,13680],[22.4,13763],[22.4,13846],[22.4,13930],[22.4,14013],[22.4,14097],[23.1,14180],[24.7,14264],[26,14347],[26.1,14430],[26.1,14514],[26.1,14597],[26.1,14681],[27.2,14764],[29.4,14848],[31.1,14931],[33.1,15014],[38.4,15098],[41,15181],[41.3,15264],[41.3,15348],[41.3,15431],[41.3,15515],[45.8,15598],[48.2,15682],[48.2,15765],[48.2,15848],[48.2,15932],[48.2,16015],[48.2,16099],[48.8,16182],[49.3,16265],[49.6,16349],[49.8,16432],[49.9,16516],[50.1,16599],[50.3,16682],[50.3,16766],[50.3,16849],[50.9,16933],[54.8,17016],[55.3,17100],[55.5,17183],[55.5,17267],[55.5,17354],[55.5,17437],[55.5,17521],[55.5,17604],[55.5,17688],[55.5,17771],[55.5,17855],[57,17938],[62.9,18021],[63.1,18105],[63.1,18188],[63.1,18272],[63.1,18355],[63.1,18438],[63.1,18522],[63.1,18605],[63.1,18689],[63.1,18772],[63.1,18855],[63.1,18939],[63.1,19022],[63.1,19106],[63.1,19189],[63.1,19273],[63.1,19356],[63.1,19439],[63.1,19523],[63.1,19606],[63,19690],[62.9,19773],[62.9,19856],[62.9,19940],[62.9,20023],[62.9,20107],[62.9,20190],[62.9,20274],[62.9,20357],[62.9,20440],[62.9,20524],[62.9,20607],[62.9,20691],[62.9,20774],[62.9,20858],[62.9,20941],[62.9,21024],[62.9,21108],[62.9,21191],[62.9,21275],[62.9,21358],[62.9,21441],[62.9,21525],[62.9,21608],[62.9,21692],[62.9,21775],[62.9,21858],[62.9,21942],[62.9,22025],[62.9,22109],[62.9,22192],[62.9,22276],[62.9,22359],[62.9,22442],[62.9,22526],[62.9,22609],[62.9,22693],[62.9,22776],[62.9,22860],[62.9,22943],[62.9,23026],[62.9,23110],[62.9,23193],[62.9,23276],[62.9,23360],[62.9,23443],[62.9,23527],[62.9,23610],[62.9,23694],[62.9,23777],[62.9,23860],[62.9,23944],[62.9,24027],[62.9,24111],[62.9,24194],[62.9,24278],[62.9,24361],[62.9,24444],[62.9,24528],[62.9,24611],[62.9,24695],[62.9,24778],[62.9,24861],[62.9,24945],[62.9,25028],[62.9,25112],[62.3,25195],[61,25279],[59.7,25362],[57.9,25446],[57.1,25529],[56.3,25612],[54.7,25696],[52.1,25779],[51.7,25862],[51.7,25946],[51.7,26029],[51.7,26113],[51.6,26196],[51.1,26279],[50.8,26363],[50.6,26446],[50.4,26530],[50,26613],[50,26697],[50,26780],[50,26863],[50,26947],[50,27030],[50,27114],[50,27197],[50,27281],[50,27364],[50,27449],[50,27531],[50.2,27615],[50.5,27698],[50.6,27781],[50.6,27865],[50.6,27948],[50.6,28032],[50.6,28115],[50.6,28198],[50.2,28282],[50.2,28365],[50.2,28448],[50.2,28532],[50.2,28616],[50.2,28699],[50.2,28782],[50.3,28865],[50.3,28956],[50.3,29037],[50.3,29120],[50.3,29204],[50.3,29287],[50.3,29370],[50.3,29454],[50.3,29537],[50.3,29620],[50.3,29704],[53.3,29788],[58.8,29871],[62.5,29954],[62.9,30038],[62.9,30121],[62.9,30204],[62.9,30288],[62.9,30372],[62.9,30455],[62.9,30538],[62.9,30621],[62.9,30705],[62.9,30788],[62.9,30872],[62.9,30955],[62.9,31039],[62.9,31122],[62.9,31205],[62.9,31289],[62.9,31372],[62.9,31456],[62.9,31539],[62.9,31622],[62.9,31706],[62.9,31790],[62.9,31873],[62.9,31956],[62.9,32040],[62.9,32123],[62.9,32206],[62.9,32290],[62.9,32373],[62.9,32456],[62.9,32540],[62.9,32623],[62.9,32707],[62.9,32790],[62.9,32873],[62.9,32957],[62.9,33040],[62.9,33124],[62.9,33207],[62.9,33291],[62.9,33374],[62.9,33457],[62.9,33541],[63.2,33624],[64.9,33708],[69.5,33791],[69.7,33875],[69.8,33958],[70.2,34041],[71.9,34125],[73.1,34208],[74.3,34292],[74.7,34375],[74.7,34459],[74.7,34542],[74.7,34625],[74.7,34709],[74.7,34792],[74.7,34875],[74.7,34959],[74.7,35042],[74.7,35126],[74.7,35209],[74.7,35293],[74.7,35376],[74.7,35459],[74.2,35543],[72.5,35627],[69.3,35710],[66.9,35793],[65.1,35877],[64.4,35960],[60.4,36043],[54.7,36127],[53,36210],[53,36294],[52.4,36377],[51.5,36461],[51.1,36544],[50.6,36627],[50.5,36711],[50.4,36794],[50.4,36877],[50.4,36961],[50.4,37044],[50.3,37128],[50.3,37211],[50.2,37295],[50.2,37378],[50.2,37462],[50.2,37545],[50.2,37628],[50.2,37712],[50.2,37795],[50.2,37879],[50.2,37962],[50.2,38045],[50.2,38129],[50.2,38212],[50.2,38296],[50.2,38379],[50.2,38462],[50.2,38546],[50.2,38629],[50.2,38713],[50.2,38796],[50.2,38879],[50.2,38963],[50.2,39046],[50.2,39130],[50.2,39213],[50.2,39296],[50.2,39380],[50.2,39463],[50.2,39547],[50.2,39630],[50.2,39714],[50.2,39797],[50.2,39880],[50.2,39964],[50.2,40047],[50.2,40131],[50.2,40214],[50.2,40298],[50.2,40381],[50.2,40464],[50.2,40548],[50.2,40631],[50.2,40715],[50.2,40798],[50.2,40882],[50.2,40965],[50.2,41048],[50.2,41132],[50.2,41215],[50.2,41298],[50.2,41382],[50.2,41465],[50.2,41549],[50.2,41632],[50.2,41716],[50.2,41799],[50.2,41882],[50.2,41966],[50.2,42049],[50.2,42133],[50.2,42216],[50.2,42300],[50.2,42383],[50.2,42466],[50.2,42550],[50.2,42633],[50.2,42717],[50.2,42800],[50.2,42883],[50.2,42967],[50.2,43050],[50.2,43134],[50.2,43217],[50.2,43301],[50.2,43384],[50.2,43467],[50.2,43551],[50.2,43634],[50.2,43718],[50.2,43801],[50.2,43884],[50.2,43968],[50.2,44051],[50.2,44135],[50.2,44218],[50.2,44301],[50.2,44385],[50.2,44468],[50.2,44552],[50.2,44635],[50.2,44719],[50.2,44802],[50.2,44885],[50.2,44969],[50.2,45052],[50.2,45136],[50.2,45219],[50.2,45303],[50.2,45386],[50.2,45469],[50.2,45553],[50.2,45636],[50.2,45720],[50.2,45803],[50.2,45886],[50.2,45970],[50.2,46053],[50.2,46137],[50.2,46220],[50.2,46304],[50.2,46387],[50.2,46470],[50.2,46554],[50.2,46637],[50.2,46720],[50.2,46804],[50.2,46887],[50.2,46971],[50.2,47054],[50.2,47138],[50.2,47221],[50.2,47304],[50.2,47388],[50.2,47471],[50.2,47555],[50.2,47638],[50.2,47722],[50.2,47805],[50.2,47888],[50.2,47972],[50.2,48055],[50.2,48139],[50.2,48222],[50.2,48305],[50.2,48389],[50.2,48473],[50.2,48556],[50.2,48639],[50.2,48723],[50.2,48806],[50.2,48889],[50.2,48973],[50.2,49056],[50.2,49140],[50.2,49223],[50.2,49306],[50.2,49390],[50.2,49473],[50.2,49557],[50.2,49640],[50.2,49723],[50.2,49807],[50.2,49890],[50.2,49974],[50.2,50057],[50.2,50141],[50.2,50224],[50.2,50307],[50.2,50391],[50.2,50474],[50.2,50558],[50.2,50641],[50.2,50725],[50.2,50808],[50.2,50891],[50.2,50975],[50.2,51058],[50.2,51141],[50.2,51225],[50.2,51308],[50.2,51392],[50.2,51475],[50.2,51559],[50.2,51642],[50.2,51726],[50.2,51809],[50.2,51892],[50.2,51976],[50.2,52059],[50.2,52143],[50.2,52226],[50.2,52309],[50.2,52393],[50.2,52476],[50.2,52560],[50.2,52643],[50.2,52726],[50.2,52810],[50.2,52893],[50.2,52977],[50.2,53060],[50.2,53144],[50.2,53227],[50.2,53310],[50.2,53394],[50.2,53477],[50.2,53561],[50.2,53644],[50.2,53728],[50.2,53811],[50.2,53894],[50.2,53978],[50.2,54061],[50.2,54145],[50.2,54228],[50.2,54311],[50.2,54395],[50.2,54478],[50.2,54562],[50.2,54645],[50.2,54728],[50.2,54812],[50.2,54895],[50.2,54979],[50.2,55062],[50.2,55146],[50.2,55229],[50.2,55312],[50.2,55396],[50.2,55479],[50.2,55563],[50.2,55646],[52.7,55730],[61,55813]]",1,0,448.2827,454.2005,50.41666667,4.1019,"[{""rating"":62.083333333333336,""responseTime"":3.134999999999991},{""rating"":50.416666666666664,""responseTime"":4.101899999856926}]",space,5.412,,454.2006,All the time,100,454.2022,,,[],,0,10,10,10,1,audio/Narrative8Situation1.wav,audio/Narrative7Situation1.wav,audio/Narrative6Situation1.wav,audio/Narrative5Situation1.wav,5,2,2,5,,,,,,,,,,,,,,,,,,,,,,,,,,,,,,,,,,,,,,,
,,,,,,631664e2a5d07c0ad889cf91,2024-02-08_16h02.23.311,group3.1-3.2-social-tom,2023.2.2,Win32,238.0952381,65c5074098b851296ff0b7ed,65c54149837205634a0f292a,,,,,,,,,,,,,,,,,,,,,,,,,,,,,454.2023,1,audio/Narrative7Situation2.wav,457.2036,,457.2037,464.6529,"[[999,0],[999,83],[999,166],[999,250],[999,333],[999,416],[999,500],[999,583],[999,667],[999,750],[999,834],[999,917],[999,1000],[999,1084],[999,1167],[999,1251],[999,1334],[999,1418],[999,1501],[999,1584],[999,1668],[999,1751],[999,1834],[999,1918],[999,2001],[999,2085],[999,2168],[999,2252],[999,2335],[999,2418],[999,2502],[999,2585],[999,2669],[999,2752],[999,2836],[999,2920],[999,3002],[999,3086],[999,3169],[999,3253],[999,3336],[999,3420],[999,3503],[999,3586],[999,3670],[999,3753],[999,3837],[999,3920],[999,4003],[999,4087],[999,4170],[999,4254],[999,4337],[999,4420],[999,4504],[41.9,5255],[43.9,5338],[44.1,5421],[44.7,5505],[46.8,5588],[47.2,5672],[47.2,5755],[47.2,5839],[47.2,5922],[47.2,6005],[47.2,6089],[47.2,6172],[47.9,6256],[48.9,6339],[49.6,6422],[49.8,6506],[49.8,6589],[49.8,6673],[49.8,6756],[49.8,6839],[49.8,6923],[49.8,7006],[49.8,7090],[49.9,7173],[51.8,7257],[58.5,7340],[63.2,7423]]",1,0,464.653,471.0004,66.97916667,3.207,"[{""rating"":66.97916666666667,""responseTime"":3.2069999999999936}]",space,5.8417,,471.0005,Not at all,0,471.0074,,,[],,0,11,11,11,1,audio/Narrative8Situation2.wav,audio/Narrative7Situation2.wav,audio/Narrative6Situation2.wav,audio/Narrative5Situation2.wav,3,3,3,3,,,,,,,,,,,,,,,,,,,,,,,,,,,,,,,,,,,,,,,
,,,,,,631664e2a5d07c0ad889cf91,2024-02-08_16h02.23.311,group3.1-3.2-social-tom,2023.2.2,Win32,238.0952381,65c5074098b851296ff0b7ed,65c54149837205634a0f292a,,,,,,,,,,,,,,,,,,,,,,,,,,,,,471.0076,1,audio/Narrative7Situation3.wav,479.0084,,479.0085,488.2344,"[[999,6],[999,87],[999,170],[999,254],[999,337],[999,420],[999,504],[999,587],[999,671],[59.1,755],[55.8,838],[52.5,921],[51.8,1004],[51.8,1088],[51.8,1171],[51.8,1255],[50.2,1338],[49.5,1422],[49.4,1505],[49.3,1588],[49,1672],[48.2,1755],[47.6,1839],[47.4,1922],[46.7,2006],[46,2089],[44.9,2173],[43.5,2256],[42.9,2339],[42.7,2422],[42.7,2506],[42.8,2589],[46,2673],[46.7,2756],[47.1,2840],[47.2,2923],[45.8,3007],[31.8,3090],[24.9,3174],[24.1,3257],[22.4,3340],[19.4,3424],[17.9,3507],[16.9,3591],[15.6,3674],[15,3757],[14.6,3841],[14.1,3924],[13.3,4007],[12.9,4091],[12.1,4174],[11.6,4258],[11.3,4341],[10.5,4425],[9.6,4508],[9.5,4591],[9.5,4675],[9.8,4758],[10,4842],[10.4,4925],[10.7,5008],[10.9,5092],[11.3,5175],[11.4,5259],[11.6,5342],[11.9,5425],[12.8,5509],[14.1,5592],[14.8,5676],[15.7,5759],[16,5843],[16.7,5926],[17.2,6010],[19.8,6093],[19.9,6177],[19.9,6260],[20,6343],[22.4,6427],[23.6,6510],[23.6,6593],[25.2,6677],[25.7,6760],[25.9,6844],[27.4,6927],[27.8,7011],[27.9,7094],[31,7177],[32.9,7261],[32.9,7344],[32.9,7427],[32.9,7511],[32.9,7594],[32.9,7678],[32.9,7761],[33,7845],[34.7,7928],[37.3,8012],[37.7,8095],[39,8178],[40.7,8262],[40.8,8345],[40.9,8428],[40.9,8512],[44,8596],[47.3,8679],[50,8762],[55.8,8846],[59.3,8929],[59.4,9012],[59.4,9096],[59.4,9179]]",1,0,488.2346,493.3351,30.83333333,4.0971,"[{""rating"":30.833333333333336,""responseTime"":4.09710000014303}]",space,4.5929,,493.3351,Not at all,0,493.3365,,,[],,0,12,12,12,1,audio/Narrative8Situation3.wav,audio/Narrative7Situation3.wav,audio/Narrative6Situation3.wav,audio/Narrative5Situation3.wav,4,8,5,3,,,,,,,,,,,,,,,,,,,,,,,,,,,,,,,,,,,,,,,
,,,,,,631664e2a5d07c0ad889cf91,2024-02-08_16h02.23.311,group3.1-3.2-social-tom,2023.2.2,Win32,238.0952381,65c5074098b851296ff0b7ed,65c54149837205634a0f292a,,,,,,,,,,,,,,,,,,,,,,,,,,,,,493.3367,1,audio/Narrative7Situation4.wav,496.3378,,496.3379,508.0372,"[[999,5],[999,87],[999,171],[999,254],[999,338],[999,421],[999,504],[999,588],[999,671],[999,754],[999,838],[999,921],[999,1005],[999,1088],[999,1171],[999,1255],[999,1338],[999,1422],[999,1505],[999,1589],[999,1672],[999,1756],[999,1839],[999,1923],[999,2006],[999,2089],[999,2172],[999,2256],[999,2339],[999,2423],[999,2506],[999,2590],[999,2673],[999,2756],[999,2840],[34,2923],[28.5,3007],[24.4,3090],[17.9,3174],[17.2,3257],[15.3,3340],[12.8,3424],[11.8,3507],[10,3591],[8.4,3674],[8.1,3757],[7.2,3841],[7.2,3924],[6.6,4008],[5.6,4091],[5.5,4175],[5.5,4258],[6.6,4341],[8.6,4425],[10.3,4508],[12,4592],[12.5,4675],[14.3,4758],[14.5,4842],[14.6,4925],[15.7,5009],[16.1,5092],[16.8,5175],[17.3,5259],[17.8,5342],[18,5426],[18.1,5509],[18.1,5593],[18.1,5676],[18.1,5759],[18.1,5843],[18.1,5926],[18.1,6010],[18.1,6093],[18.1,6176],[18.1,6260],[18.1,6343],[18.1,6427],[18.1,6510],[19,6594],[22.1,6677],[24.6,6761],[27.3,6844],[27.8,6927],[27.8,7011],[27.8,7094],[27.8,7177],[29.4,7261],[33.2,7344],[34.7,7428],[37.7,7511],[39.1,7595],[43,7678],[46.4,7762],[47.1,7845],[51.9,7928],[54.4,8012],[54.6,8095],[57.2,8179],[59.8,8262],[59.8,8345],[59.8,8429],[59.8,8512],[59.8,8596],[59.8,8679],[59.8,8762],[61.5,8846],[62.5,8930],[64.3,9013],[64.4,9096],[64.4,9180],[64.4,9263],[64.4,9346],[64.4,9430],[65.2,9513],[66.5,9596],[66.8,9680],[66.9,9763],[67,9847],[67.6,9930],[68.1,10014],[68.6,10097],[68.9,10180],[69.2,10264],[69.6,10347],[70.1,10431],[70.4,10514],[70.7,10598],[71.9,10681],[72.7,10764],[72.9,10848],[73.2,10931],[73.3,11015],[73.3,11098],[73.3,11181],[73.2,11265],[72.9,11348],[72.6,11432],[72.3,11515],[72,11599],[72,11682]]",1,0,508.0373,511.7827,65.52083333,2.0279,"[{""rating"":65.52083333333334,""responseTime"":2.0279000000954284}]",space,3.2383,,511.7827,Half the time,50,511.7847,,,[],,0,13,13,13,1,audio/Narrative8Situation4.wav,audio/Narrative7Situation4.wav,audio/Narrative6Situation4.wav,audio/Narrative5Situation4.wav,3,3,2,1,,,,,,,,,,,,,,,,,,,,,,,,,,,,,,,,,,,,,,,
,,,,,,631664e2a5d07c0ad889cf91,2024-02-08_16h02.23.311,group3.1-3.2-social-tom,2023.2.2,Win32,238.0952381,65c5074098b851296ff0b7ed,65c54149837205634a0f292a,,,,,,,,,,,,,,,,,,,,,,,,,,,,,511.7849,1,audio/Narrative7Situation5.wav,516.7875,,516.7875,525.2459,"[[19.1,3845],[17.3,3928],[17.2,4012],[15.4,4096],[11.7,4179],[9.6,4262],[9,4345],[8.9,4429],[8.9,4512],[8.9,4596],[8.9,4679],[9.2,4763],[10.8,4846],[12.7,4929],[14.2,5013],[14.8,5096],[15.4,5179],[16.4,5263],[17.9,5346],[18.9,5430],[20,5513],[23.9,5596],[24,5680],[24,5763],[24,5847],[24,5930],[28.8,6014],[32.1,6097],[32.1,6180],[32.1,6264],[32.1,6347],[31.4,6431],[27.4,6514],[25.7,6598],[25.2,6681],[25,6764],[24.9,6848],[24.9,6931],[24.9,7014],[24.9,7098],[24.9,7181],[24.9,7265],[24.9,7348],[24.9,7432],[27.7,7515],[33.3,7599],[41.1,7682],[48.8,7766],[52.5,7849],[52.6,7932],[52.6,8015],[52.7,8099],[52.7,8182],[52,8266],[49.8,8350],[46.9,8433]]",1,0,525.246,531.506,37.5,5.8733,"[{""rating"":24.270833333333336,""responseTime"":1.0102000000476892},{""rating"":37.5,""responseTime"":5.8733000001907385}]",space,5.7536,,531.5061,All the time,100,531.5075,,,[],,0,14,14,14,1,audio/Narrative8Situation5.wav,audio/Narrative7Situation5.wav,audio/Narrative6Situation5.wav,audio/Narrative5Situation5.wav,2,5,2,5,,,,,,,,,,,,,,,,,,,,,,,,,,,,,,,,,,,,,,,
,,,,,,631664e2a5d07c0ad889cf91,2024-02-08_16h02.23.311,group3.1-3.2-social-tom,2023.2.2,Win32,238.0952381,65c5074098b851296ff0b7ed,65c54149837205634a0f292a,,,,,,,,,,,,,,,,,,,,,,,,,,,,,531.5077,1,audio/Narrative7Situation6.wav,534.509,,534.509,544.4565,"[[999,5],[999,87],[999,171],[999,254],[999,337],[999,421],[999,504],[999,588],[54.9,671],[50.2,754],[50.2,838],[50.1,921],[45,1005],[34.1,1088],[27.4,1172],[27.2,1255],[23.9,1339],[23.2,1422],[22.4,1505],[15.5,1589],[11.6,1672],[11.6,1755],[11.6,1839],[23.3,1922],[31.9,2006],[31.9,2089],[31.9,2173],[33.5,2256],[35.1,2340],[36.6,2423],[38.2,2506],[40,2590],[41.6,2673],[45.4,2757],[47.9,2840],[48.8,2923],[50.7,3007],[51.3,3090],[52.4,3173],[55.4,3257],[57,3340],[57.1,3424],[57.9,3508],[62.9,3591],[64.2,3674],[64.2,3757],[65.7,3841],[70.5,3924],[70.9,4008],[70.9,4091],[70.9,4175],[70.9,4258],[70.8,4341],[67.1,4425],[62.2,4509],[58,4592],[54.1,4675],[54,4758],[54,4842],[54,4925],[57.6,5009],[60.9,5092],[60.9,5176],[63.6,5259],[64.8,5342],[64.8,5426],[64.8,5509],[64.8,5593],[64.8,5676],[65.2,5759],[65.8,5843],[66.3,5926],[69.3,6010],[72.2,6093],[73.1,6177],[75.6,6260],[76.8,6343],[76.9,6427],[77.4,6510],[78.9,6594],[79,6677],[79,6760],[79,6844],[79,6927],[79.2,7010],[79.4,7094],[79.5,7177],[79.8,7261],[80.3,7344],[80.9,7428],[80.9,7511],[81,7595],[81,7678],[81,7761],[81,7845],[81,7928],[81,8012],[80.9,8095],[80.9,8178],[80.9,8262],[80.9,8345],[80.9,8428],[80.9,8512],[80.6,8596],[80.4,8679],[80.2,8762],[79.8,8846],[79.5,8930],[79.4,9013],[79.1,9096],[79,9179],[79,9263],[79,9346],[79,9430],[79,9513],[79,9597],[79,9680],[79,9763],[79,9847],[79,9930]]",1,0,544.4565,548.3977,80.52083333,1.9949,"[{""rating"":80.52083333333333,""responseTime"":1.994900000095413}]",space,3.4337,,548.3978,All the time,100,548.3989,,,[],,0,15,15,15,1,audio/Narrative8Situation6.wav,audio/Narrative7Situation6.wav,audio/Narrative6Situation6.wav,audio/Narrative5Situation6.wav,2,3,2,3,,,,,,,,,,,,,,,,,,,,,,,,,,,,,,,,,,,,,,,
,,,,,,631664e2a5d07c0ad889cf91,2024-02-08_16h02.23.311,group3.1-3.2-social-tom,2023.2.2,Win32,238.0952381,65c5074098b851296ff0b7ed,65c54149837205634a0f292a,,,,,,,,,,,,,,,,,,,,,,,,,,,,,548.399,1,audio/Narrative7Situation7.wav,553.4028,,553.4028,570.5488,"[[999,5],[999,87],[999,170],[999,254],[999,337],[999,421],[999,504],[999,587],[999,671],[69,755],[34.9,1172],[33.4,1255],[33.3,1338],[33.3,1422],[32.7,1505],[30.4,1588],[30.4,1672],[30.4,1755],[30.3,1839],[28.2,1922],[26.7,2006],[25.9,2089],[23.9,2173],[22.1,2256],[21.3,2339],[21,2423],[19.8,2506],[19.5,2590],[19.3,2673],[19.1,2756],[19.1,2840],[19.1,2923],[19.1,3006],[20.5,3090],[23.8,3173],[25.4,3257],[26.3,3340],[29.1,3424],[31.9,3507],[33.5,3590],[33.5,3674],[33.6,3757],[34.9,3841],[36,3924],[36.4,4007],[36.5,4091],[36.6,4174],[37.9,4258],[39.4,4341],[40.6,4425],[41.8,4508],[42.4,4591],[42.5,4675],[44,4758],[45.3,4842],[45.5,4925],[45.5,5008],[45.7,5092],[46.1,5175],[46.4,5259],[46.4,5342],[46.4,5426],[46.6,5509],[46.9,5592],[46.9,5676],[46.9,5759],[47.1,5843],[47.3,5926],[47.5,6009],[47.6,6093],[47.6,6176],[46.8,6260],[46.7,6343],[46.5,6426],[46.3,6510],[46,6593],[45.9,6677],[45.9,6760],[45.9,6843],[50.9,6927],[51.6,7010],[51.6,7094],[51.7,7177],[52.7,7261],[53.6,7344],[53.8,7428],[54.5,7511],[55.4,7594],[55.8,7678],[55.8,7761],[55.9,7845],[55.9,7928],[55.9,8011],[56.6,8095],[57.6,8178],[58.2,8262],[59.7,8345],[61.1,8429],[61.1,8512],[61.1,8595],[61.1,8679],[62.6,8762],[63.8,8846],[64.2,8929],[64.6,9012],[64.7,9096],[65.4,9179],[67.1,9263],[67.3,9346],[67.3,9429],[66,9513],[65.4,9596],[65.2,9680],[64.8,9763],[64.2,9847],[63.8,9930],[63,10014],[62.3,10097],[61.7,10180],[61.5,10264],[61.5,10347],[63.1,10431],[63.9,10514],[64.3,10597],[64.6,10681],[65,10764],[67.1,10848],[68.1,10931],[69.9,11014],[70.3,11098],[70.3,11181],[70.5,11265],[71.6,11348],[72.2,11431],[72.3,11515],[72.6,11598],[73.1,11682],[73.6,11765],[74,11849],[74.3,11932],[74.5,12016],[74.6,12099],[74.6,12182],[74.6,12266],[74.6,12349],[74.6,12432],[74.6,12516],[74.6,12599],[74.6,12683],[74.6,12766],[74.6,12850],[74.6,12933],[74.1,13016],[73.8,13100],[73.5,13183],[73.2,13267],[72.9,13350],[72.7,13433],[72.5,13517],[72.1,13600],[71.6,13684],[71.1,13767],[70.8,13851],[70.4,13934],[69.8,14017],[69.5,14101],[69.3,14184],[69.2,14268],[69.2,14351],[69.2,14434],[69.2,14518],[69.2,14601],[69.2,14685],[69.2,14768],[69.2,14852],[69.2,14935],[69.2,15018],[69.2,15102],[69.2,15185],[69.2,15269],[69.4,15352],[70.7,15436],[72,15519],[72.8,15603],[73.5,15686],[74.9,15769],[75.9,15853],[76.4,15936],[76.4,16019],[76.4,16103],[76.4,16186],[75.5,16269],[74.4,16353],[73.8,16436],[73,16520],[72.9,16603],[72.9,16687],[72.9,16770],[72.9,16854],[72.9,16937],[72.9,17020],[72.9,17104]]",1,0,570.549,581.5888,65.625,10.3343,"[{""rating"":72.08333333333333,""responseTime"":1.9454000000953329},{""rating"":73.125,""responseTime"":5.631400000095368},{""rating"":65.625,""responseTime"":10.334299999952236}]",space,10.5308,,581.5889,Half the time,50,581.5906,,,[],,0,16,16,16,1,audio/Narrative8Situation7.wav,audio/Narrative7Situation7.wav,audio/Narrative6Situation7.wav,audio/Narrative5Situation7.wav,3,5,5,4,,,,,,,,,,,,,,,,,,,,,,,,,,,,,,,,,,,,,,,
,,,,,,631664e2a5d07c0ad889cf91,2024-02-08_16h02.23.311,group3.1-3.2-social-tom,2023.2.2,Win32,238.0952381,65c5074098b851296ff0b7ed,65c54149837205634a0f292a,,,,,,,,,,,,,,,,,,,,,,,,,,,,,581.5907,1,audio/Narrative7Situation8.wav,583.5907,,583.5907,593.584,"[[67.8,667],[57.4,751],[56.8,834],[56.7,917],[50.8,1001],[46.6,1084],[46.5,1167],[44.2,1251],[38,1334],[37.6,1418],[37.6,1501],[37.6,1584],[37.6,1668],[37.6,1751],[43.2,1835],[53.4,1918],[53.9,2002],[54.1,2085],[52.3,2169],[50.9,2252],[50.9,2335],[50.9,2418],[50.9,2502],[50.5,2585],[50.4,2669],[50.4,2752],[50.4,2836],[50.4,2919],[50.4,3003],[50.4,3086],[50.4,3169],[50.4,3253],[50.4,3336],[50.4,3420],[50.4,3503],[50.4,3586],[50.4,3670],[50.4,3753],[50.4,3837],[50.4,3920],[50.4,4003],[50.4,4087],[50.4,4170],[50,4254],[49.8,4337],[49.7,4421],[49.7,4504],[49.7,4587],[49.7,4671],[49.7,4754],[49.7,4837],[49.7,4921],[49.7,5004],[49.7,5088],[49.7,5171],[49.7,5255],[49.7,5338],[49.7,5422],[49.7,5505],[49.7,5588],[49.3,5672],[49,5755],[49,5839],[49,5922],[48.9,6006],[48.9,6089],[48.5,6172],[48.3,6256],[48.1,6339],[47.7,6423],[47.3,6506],[46.4,6590],[45.7,6673],[45.3,6756],[44.7,6840],[42.5,6923],[40.1,7006],[40.1,7090],[40.1,7173],[40.1,7257],[40.1,7340],[40.1,7424],[40.1,7507],[40.1,7590],[40.1,7674],[40.1,7757],[40.1,7841],[40.1,7924],[40.1,8007],[40.1,8091],[42.7,8174],[49.5,8258],[49.9,8341],[50.1,8425],[51.8,8508],[54.1,8592],[57.3,8675],[59,8759],[60.6,8842],[61.4,8925],[61.6,9008],[62.3,9092],[62.6,9175],[63.2,9259],[63.9,9343],[63.9,9426],[65.4,9509],[66.1,9593],[66.8,9676],[66.8,9759],[66.8,9843],[66.8,9926]]",1,0,593.5841,597.9467,50.72916667,2.2663,"[{""rating"":50.72916666666667,""responseTime"":2.2662999999523663}]",space,3.8547,,597.9468,All the time,100,597.9485,,,[],,0,17,17,17,1,audio/Narrative8Situation8.wav,audio/Narrative7Situation8.wav,audio/Narrative6Situation8.wav,audio/Narrative5Situation8.wav,3,2,5,3,,,,,,,,,,,,,,,,,,,,,,,,,,,,,,,,,,,,,,,
,,,,,,631664e2a5d07c0ad889cf91,2024-02-08_16h02.23.311,group3.1-3.2-social-tom,2023.2.2,Win32,238.0952381,65c5074098b851296ff0b7ed,65c54149837205634a0f292a,,,,,,,,,,,,,,,,,,,,,,,,,,,,,597.9487,1,audio/Narrative7Situation9.wav,599.949,,599.9491,608.5573,"[[999,0],[999,82],[999,166],[999,249],[999,333],[35.7,416],[34.5,500],[34.5,583],[34.5,667],[34.5,750],[31.3,833],[28.5,917],[28.5,1000],[28.5,1083],[28.5,1167],[28.5,1250],[28.5,1334],[28.5,1417],[28.5,1500],[28.5,1584],[28.5,1667],[28.5,1751],[28.5,1834],[28.5,1918],[28.5,2001],[29.7,2085],[31.8,2168],[32,2251],[32,2335],[32.1,2418],[31.9,2501],[31.8,2585],[31.8,2668],[31.8,2752],[31.8,2835],[31.8,2919],[35.8,3002],[36.7,3085],[36.7,3169],[36.7,3252],[36.7,3336],[36.7,3419],[36.7,3503],[36.7,3586],[36.7,3669],[36,3753],[35.4,3836],[35.3,3919],[35.3,4003],[35.3,4086],[35,4170],[35,4253],[35,4337],[35.1,4420],[35.2,4503],[35.2,4587],[35.3,4670],[35.4,4754],[35.4,4837],[38,4921],[39.2,5004],[39.2,5087],[39.2,5171],[42.1,5254],[42.4,5338],[42.5,5421],[43.9,5504],[44.3,5588],[44.5,5671],[45,5755],[45.4,5838],[45.8,5922],[46.5,6005],[46.9,6088],[47.2,6172],[47.5,6255],[47.8,6339],[48.1,6422],[48.4,6505],[48.8,6589],[49.1,6672],[49.1,6756],[49.1,6839],[49.7,6922],[49.7,7006],[49.7,7089],[51,7173],[51.5,7256],[51.5,7340],[51.5,7423],[51.5,7506],[52.1,7590],[52.8,7673],[53.4,7757],[54.2,7840],[54.8,7924],[59.3,8007],[67.1,8091],[67.8,8174],[67.8,8257],[67.8,8341],[67.8,8424],[67.8,8507],[67.8,8591]]",1,0,608.5574,614.5254,88.33333333,5.7362,"[{""rating"":76.5625,""responseTime"":1.4380999999046935},{""rating"":80,""responseTime"":2.9592000000477583},{""rating"":86.66666666666667,""responseTime"":5.179200000047672},{""rating"":88.33333333333333,""responseTime"":5.736200000047688}]",space,5.4622,,614.5255,All the time,100,614.5264,,,[],,0,18,18,18,1,audio/Narrative8Situation9.wav,audio/Narrative7Situation9.wav,audio/Narrative6Situation9.wav,audio/Narrative5Situation9.wav,3,2,4,3,,,,,,,,,,,,,,,,,,,,,,,,,,,,,,,,,,,,,,,
,,,,,,631664e2a5d07c0ad889cf91,2024-02-08_16h02.23.311,group3.1-3.2-social-tom,2023.2.2,Win32,238.0952381,65c5074098b851296ff0b7ed,65c54149837205634a0f292a,,,,,,,,,,,,,,,,,,,,,,,,,,,656.75,659.3243,659.3347,2,audio/Narrative13Situation2.wav,659.3347,,659.3347,689.0581,"[[999,0],[999,85],[999,168],[999,252],[999,335],[999,418],[999,502],[999,586],[999,669],[999,752],[999,836],[34.1,919],[33.2,1002],[30.5,1086],[29,1169],[28.9,1252],[27.6,1336],[25.6,1419],[24.9,1503],[24.9,1586],[25,1670],[30,1753],[38.5,1837],[39.8,1920],[39.8,2003],[39.8,2087],[39.7,2170],[39.4,2254],[39.4,2337],[39.2,2420],[39.1,2504],[39.1,2587],[39.1,2670],[38.9,2754],[38.6,2838],[38.5,2921],[38.5,3004],[37.6,3088],[35.6,3171],[35.2,3254],[42,3338],[55.9,3422],[56.8,3505],[56.8,3588],[56.8,3672],[56.9,3755],[56.9,3838],[56.4,3922],[56.4,4005],[56.3,4089],[56.5,4172],[56.6,4255],[56.6,4339],[58.5,4422],[58.8,4506],[58.8,4589],[59,4673],[59.5,4756],[60,4839],[60.5,4923],[60.6,5006],[60.7,5089],[61,5173],[61.7,5256],[61.8,5340],[61.9,5423],[62,5507],[62.1,5590],[62.5,5673],[62.7,5757],[62.9,5840],[63.2,5924],[63.5,6007],[63.8,6091],[64,6174],[64,6257],[64.2,6341],[64.2,6424],[64.5,6508],[65.2,6591],[65.8,6675],[65.8,6758],[65.8,6841],[65.8,6925],[65.8,7008],[65.8,7091],[65.8,7175],[65.8,7258],[68.2,7342],[69.5,7425],[69.5,7509],[71.5,7592],[71.8,7675],[71.8,7759],[71.8,7842],[71.8,7926],[71.8,8009],[71.8,8093],[71.8,8176],[71.8,8259],[71.8,8343],[71.8,8426],[71.8,8509],[71.8,8593],[71.8,8676],[74.6,8760],[74.6,8843],[74.6,8927],[74.6,9010],[76.5,9093],[76.8,9177],[76.9,9260],[78,9344],[78,9427],[78,9511],[78.1,9594],[79.4,9678],[79.6,9761],[80.2,9844],[81.7,9928],[81.8,10011],[81.8,10094],[81.8,10178],[81.8,10261],[81.8,10345],[81.8,10428],[81.8,10511],[81.8,10595],[81.8,10678],[81.8,10762],[81.8,10845],[81.8,10928],[81.8,11012],[81.8,11096],[81.8,11179],[81.8,11262],[81.8,11346],[81.8,11429],[81.8,11513],[81.8,11596],[81.8,11679],[81.8,11763],[81.9,11846],[83.4,11930],[84.1,12013],[84.7,12097],[85.5,12180],[85.6,12263],[85.6,12347],[85.6,12430],[85.6,12514],[85.6,12597],[85.6,12680],[85.6,12764],[85.6,12847],[85.6,12931],[85.6,13014],[85.6,13097],[85.6,13181],[85.6,13264],[85.3,13348],[85.1,13431],[84.9,13515],[84.7,13598],[84.5,13682],[84.3,13765],[84.1,13849],[83.6,13932],[83.2,14015],[83,14098],[83,14182],[83,14265],[82.8,14349],[82.8,14432],[82.6,14516],[82.4,14599],[82.1,14683],[82,14766],[81.9,14849],[81.8,14933],[81.7,15016],[81.6,15099],[81.3,15183],[81.1,15266],[80.9,15350],[80.8,15433],[80.7,15516],[80.6,15600],[80.6,15683],[80.5,15767],[80.5,15850],[79.8,15934],[78.2,16017],[78.2,16100],[78.2,16184],[78.2,16267],[78.2,16351],[77.1,16434],[76.9,16518],[76.9,16601],[76.9,16684],[76.9,16768],[76.9,16851],[76.7,16934],[76.4,17018],[76,17101],[75.9,17185],[75.7,17268],[75.7,17352],[75.7,17436],[75.7,17518],[75.6,17602],[75.4,17685],[75.3,17769],[75.2,17852],[75.2,17935],[75.2,18019],[75.2,18102],[75.2,18186],[75.1,18269],[75,18353],[75,18436],[74.9,18519],[74.9,18603],[74.9,18687],[74.9,18770],[74.9,18853],[74.9,18937],[74.9,19020],[74.9,19103],[74.9,19187],[74.9,19270],[74.9,19354],[74.9,19437],[74.9,19521],[74.9,19604],[74.9,19687],[74.9,19771],[74.9,19854],[73,19938],[72.9,20021],[72.9,20104],[72.9,20188],[72.9,20271],[72.9,20355],[72.9,20438],[72.9,20521],[72.9,20605],[72.9,20688],[72.9,20772],[70.6,20855],[70.6,20938],[70.6,21022],[70.6,21105],[70.6,21189],[70.6,21272],[70.6,21356],[70.6,21439],[70.6,21522],[67.7,21606],[66.7,21689],[64.2,21773],[60.3,21856],[57.6,21940],[54.3,22023],[52.7,22106],[50.8,22190],[49.9,22273],[49.5,22357],[49.1,22440],[45.7,22524],[44.2,22607],[43.4,22690],[43,22774],[41.7,22857],[41.1,22940],[39.8,23024],[39.2,23107],[38.4,23191],[37.9,23274],[36.9,23358],[36.7,23441],[36.7,23524],[41.4,23608],[41.6,23691],[42.3,23775],[44.6,23858],[46.6,23942],[47.7,24025],[47.9,24108],[48.6,24192],[49,24275],[49.1,24358],[49.1,24442],[49.3,24525],[49.3,24609],[49.3,24692],[49.3,24776],[49.3,24859],[49.3,24942],[49.3,25026],[49.3,25109],[49.3,25193],[49.3,25276],[49.3,25360],[49.3,25443],[49.3,25526],[49.3,25610],[49.3,25693],[49.3,25777],[49.3,25860],[49.3,25943],[49.3,26027],[50.3,26110],[51.7,26194],[51.7,26277],[51.7,26360],[53.3,26444],[53.6,26527],[54.4,26611],[55,26694],[56,26778],[56.9,26861],[57.5,26944],[58.5,27028],[59.2,27111],[60.1,27195],[60.2,27278],[61.7,27361],[62,27445],[62.9,27528],[63.1,27612],[64.1,27696],[64.5,27779],[66.1,27862],[67.2,27946],[68.4,28029],[69.4,28112],[69.6,28196],[69.9,28279],[71.4,28363],[71.6,28446],[73.2,28529],[73.2,28613],[73.4,28696],[74,28780],[74.5,28863],[74.5,28946],[74.6,29030],[74.6,29113],[74.6,29197],[74.6,29280],[74.6,29364],[74.6,29451],[74.6,29535],[66.9,29620],[65.3,29702]]",1,0,689.0585,689.0596,,,[],,,,689.0597,Not at all,0,689.0608,,,[],,0,0,0,0,1,audio/Narrative13Situation2.wav,audio/Narrative13Situation2.wav,audio/Narrative13Situation2.wav,audio/Narrative13Situation2.wav,2,2,2,2,,,,,614.5269,656.7431,space,41.7112,,,,,,,,,,,,,,,,,,,,,,,,,,,,,,,
,,,,,,631664e2a5d07c0ad889cf91,2024-02-08_16h02.23.311,group3.1-3.2-social-tom,2023.2.2,Win32,238.0952381,65c5074098b851296ff0b7ed,65c54149837205634a0f292a,,,,,,,,,,,,,,,,,,,,,,,,,,,,,689.061,2,audio/Narrative6Situation1.wav,691.0646,,691.0646,717.6191,"[[63,1000],[62,1083],[60.6,1166],[60.6,1250],[60.5,1333],[57.7,1417],[55,1500],[54.6,1584],[52.6,1667],[51.3,1750],[50.8,1834],[50.6,1917],[50.4,2000],[50.4,2084],[50.2,2168],[50,2251],[50,2335],[50,2418],[50,2501],[49.9,2584],[49.7,2668],[47.2,2751],[45.4,2835],[41.8,2918],[37.7,3002],[34.6,3085],[33.8,3168],[32.6,3252],[30.9,3335],[29.5,3419],[29.2,3502],[28.9,3586],[26.6,3669],[25.7,3752],[24.2,3836],[22.9,3919],[21.3,4002],[21,4086],[19.2,4169],[18.9,4253],[18.9,4336],[18.9,4419],[18.9,4503],[18.9,4586],[18.9,4670],[19.3,4754],[21.7,4837],[22.2,4920],[22.8,5004],[23,5087],[24,5171],[25.1,5254],[25.1,5337],[25.1,5420],[25.1,5504],[25.1,5587],[25.2,5671],[25.2,5754],[26.7,5837],[26.8,5921],[26.8,6004],[26.9,6088],[27.1,6171],[28.2,6255],[28.4,6338],[30,6421],[30.2,6505],[30.2,6588],[30.4,6672],[31.7,6755],[31.8,6839],[31.8,6922],[31.9,7005],[31.9,7089],[33.1,7172],[33.5,7256],[35,7339],[35.2,7422],[37,7506],[37.1,7589],[37.1,7674],[37.1,7756],[37.1,7840],[37.1,7923],[37.1,8006],[37.1,8090],[37.1,8173],[37.1,8257],[37.1,8340],[37.1,8423],[37.1,8507],[37.1,8590],[32.5,8674],[31.6,8757],[31.6,8841],[31.6,8924],[31.6,9007],[31.6,9091],[31.6,9174],[31.6,9258],[36.5,9341],[36.6,9424],[36.7,9508],[36.7,9591],[35.3,9675],[32.1,9758],[32.1,9841],[42.1,9925],[56.8,10009],[59,10092],[62.7,10175],[65.6,10259],[69.1,10342],[69.5,10425],[69.5,10509],[69.5,10592],[69.5,10676],[69.5,10759],[65.9,10843],[65.3,10926],[65.3,11009],[65.3,11093],[65.3,11176],[65.7,11259],[68.4,11343],[69.6,11426],[70,11510],[71.8,11593],[71.9,11677],[72.1,11760],[72.1,11844],[72.6,11927],[72.8,12010],[73.1,12094],[73.3,12177],[73.3,12261],[73.4,12344],[75,12427],[75.2,12511],[76.1,12594],[76.3,12678],[76.4,12761],[76.4,12844],[77.3,12928],[78.6,13011],[78.6,13095],[78.6,13178],[77.3,13262],[72.5,13345],[71.4,13428],[69.3,13512],[66,13596],[65.7,13679],[65.6,13762],[65.5,13846],[65.5,13929],[65.5,14012],[65.5,14096],[65.5,14179],[65.5,14263],[65.5,14346],[65.5,14429],[65.5,14513],[65.5,14596],[65.5,14680],[65.5,14763],[65.5,14846],[65.5,14930],[68.9,15013],[68.9,15097],[68.9,15180],[68.9,15263],[69,15347],[69.5,15430],[69.7,15514],[69.7,15597],[69.7,15681],[71.8,15764],[71.8,15847],[71.8,15931],[71.8,16014],[74.2,16098],[74.2,16181],[74.2,16264],[74.2,16348],[74.2,16431],[74.2,16515],[74.2,16598],[74.5,16682],[77.9,16765],[80.2,16849],[81.1,16932],[81.3,17015],[83.9,17099],[84.3,17182],[85.1,17266],[88.5,17349],[89,17432],[89,17516],[89,17599],[89,17683],[89,17766],[89,17849],[89,17933],[89,18017],[88.9,18100],[86.8,18183],[86.8,18267],[86.8,18350],[83.9,18433],[83.5,18517],[83.2,18600],[80.5,18684],[80.5,18767],[80.5,18851],[80.4,18934],[78.5,19018],[77.3,19101],[77.3,19184],[76.5,19268],[76,19351],[76,19434],[75.9,19518],[75.9,19601],[74,19685],[74,19768],[74,19852],[74,19935],[74,20018],[73.9,20102],[69.7,20185],[67.9,20268],[67.4,20352],[66.3,20435],[64.7,20520],[63.9,20602],[62.8,20686],[60.7,20769],[56.4,20853],[51.3,20936],[42.2,21020],[40,21103],[39.8,21186],[32.8,21270],[31.6,21353],[31.4,21436],[29.7,21520],[28.9,21603],[28.9,21687],[35.2,21770],[52.4,21854],[56.3,21937],[62.8,22021],[63.5,22104],[63.5,22187],[63.5,22270],[65.7,22354],[65.8,22437],[65.8,22521],[65.8,22604],[63.9,22688],[61.5,22771],[61.4,22854],[61.4,22938],[61,23021],[60,23105],[60,23188],[60,23271],[60,23355],[60.6,23439],[64.7,23522],[65,23605],[65,23688],[65,23772],[65.1,23856],[69.1,23939],[69.4,24022],[69.4,24105],[69.4,24189],[72.4,24273],[73.1,24356],[73.3,24440],[74.5,24523],[74.6,24606],[75.7,24690],[76.5,24773],[76.7,24857],[77.8,24940],[77.8,25023],[77.8,25106],[77.8,25190],[77.8,25274],[77.8,25357],[77.8,25440],[77.8,25524],[77.8,25607],[77.8,25690],[77.8,25774],[79.4,25857],[79.5,25941],[79.5,26024],[79.5,26108],[79.5,26191],[79.5,26274],[79.4,26358],[79.2,26441],[79.2,26525]]",1,0,717.6193,722.92,76.77083333,3.1844,"[{""rating"":76.77083333333333,""responseTime"":3.1844000000953656}]",space,4.7921,,722.9201,All the time,100,722.9217,,,[],,0,1,1,1,1,audio/Narrative7Situation1.wav,audio/Narrative8Situation1.wav,audio/Narrative5Situation1.wav,audio/Narrative6Situation1.wav,2,5,5,2,,,,,,,,,,,,,,,,,,,,,,,,,,,,,,,,,,,,,,,
,,,,,,631664e2a5d07c0ad889cf91,2024-02-08_16h02.23.311,group3.1-3.2-social-tom,2023.2.2,Win32,238.0952381,65c5074098b851296ff0b7ed,65c54149837205634a0f292a,,,,,,,,,,,,,,,,,,,,,,,,,,,,,722.9219,2,audio/Narrative6Situation2.wav,725.923,,725.923,754.3973,"[[999,0],[999,83],[999,166],[999,250],[999,333],[999,416],[999,500],[999,583],[999,667],[999,750],[999,834],[999,917],[999,1001],[999,1084],[28.9,1168],[25.1,1251],[22.1,1334],[18.5,1418],[17.9,1501],[17.9,1584],[17.9,1668],[17.9,1751],[17.9,1835],[17.9,1918],[19,2002],[19.2,2085],[19.2,2168],[19.2,2252],[19.2,2335],[19.2,2418],[19.2,2502],[19.2,2585],[19.8,2669],[19.9,2752],[20.6,2836],[25,2919],[35.9,3004],[44.2,3086],[48.9,3169],[54.7,3253],[54.9,3336],[54.9,3420],[54.9,3503],[54.9,3586],[54.9,3670],[54.9,3753],[54.9,3837],[54.9,3920],[54.9,4003],[54.9,4087],[54.9,4170],[54.9,4254],[54.9,4337],[54.9,4420],[46.8,4504],[35.8,4588],[31.8,4671],[25.6,4754],[20.9,4838],[20.8,4921],[20.8,5004],[20.8,5088],[20.8,5171],[20.8,5255],[20.8,5338],[20.8,5421],[20.8,5505],[20.8,5588],[20.8,5672],[20.5,5755],[18.6,5839],[18.2,5922],[17.7,6006],[16.9,6089],[16.5,6172],[16.5,6256],[18.9,6339],[23.5,6423],[24.2,6506],[24.3,6589],[24.4,6673],[24.6,6756],[24.6,6840],[24.6,6923],[24.6,7006],[28.6,7090],[46,7173],[47.6,7257],[47.6,7340],[47.9,7423],[49.7,7507],[55.7,7590],[56.6,7674],[56.6,7757],[56.8,7841],[58.4,7924],[62,8007],[62.5,8091],[63.5,8174],[64.3,8258],[64.4,8341],[64.4,8424],[69.6,8508],[72.5,8591],[72.5,8675],[72.5,8758],[72.5,8841],[72.5,8925],[72.5,9008],[71.6,9092],[71.3,9175],[71.3,9259],[71.3,9342],[71.3,9426],[71.3,9509],[71.3,9592],[71.7,9676],[74.8,9759],[75.5,9843],[77,9926],[78.4,10009],[78.4,10093],[78.4,10176],[78.4,10260],[78.4,10343],[78.4,10426],[78.4,10510],[78.4,10593],[78.4,10677],[78.3,10760],[78.1,10844],[78,10927],[77.9,11010],[77.9,11094],[77.9,11177],[77.8,11261],[77.7,11344],[77.7,11427],[77.7,11511],[77.7,11594],[77.7,11678],[77.6,11761],[77.5,11844],[77.5,11928],[77.5,12011],[77.5,12095],[77.5,12178],[77.5,12262],[77.5,12345],[77.5,12429],[77.5,12512],[77.5,12595],[77.5,12679],[77.5,12762],[76.9,12846],[75.8,12930],[75.4,13013],[75,13096],[74.7,13179],[74.1,13263],[73.4,13346],[73.1,13429],[73.1,13513],[73,13596],[73,13680],[73,13763],[73,13846],[73,13930],[73,14014],[73,14097],[73,14180],[73,14264],[73,14347],[73,14430],[73,14514],[73,14597],[73,14681],[73,14764],[73,14847],[73,14931],[73,15014],[73,15098],[73.1,15181],[74.6,15264],[76.4,15348],[77.3,15432],[78.6,15515],[81.3,15598],[81.4,15682],[81.4,15765],[81.4,15848],[81.4,15932],[81.6,16015],[81.7,16099],[81.8,16182],[81.8,16265],[81.8,16349],[81.8,16432],[81.8,16516],[81.8,16599],[81.8,16683],[81.8,16766],[81.8,16849],[81.8,16933],[81.8,17016],[81.8,17100],[81.8,17183],[81.8,17267],[81.8,17350],[81.8,17434],[81.8,17517],[81.8,17600],[81.8,17684],[81.8,17767],[81.8,17850],[81.8,17934],[81.8,18017],[81.8,18101],[81.8,18184],[81.8,18267],[81.8,18351],[81.8,18434],[81.8,18518],[81.7,18601],[81.7,18685],[81.7,18768],[81.7,18851],[81.5,18935],[81,19018],[80.4,19102],[79.7,19185],[79,19268],[78.6,19352],[78.5,19435],[78,19519],[77.5,19602],[76.8,19686],[75.7,19769],[75,19852],[74.4,19936],[73.9,20019],[73.3,20103],[73,20186],[73,20269],[72.8,20353],[72.5,20436],[72.2,20520],[71.9,20603],[71.6,20686],[71.5,20770],[71.5,20853],[71.5,20937],[71.5,21020],[71.5,21104],[71.5,21187],[71.5,21271],[71.5,21354],[71.5,21437],[71.5,21521],[71.5,21604],[71.5,21687],[71.5,21771],[71.5,21854],[72.3,21938],[73.3,22021],[74.3,22105],[75.4,22188],[76.6,22272],[77.8,22355],[78.5,22438],[79,22522],[79.7,22605],[79.8,22689],[79.8,22772],[79.8,22855],[79.8,22939],[79.8,23022],[79.8,23106],[79.8,23189],[79.5,23272],[79.4,23356],[79.3,23439],[78.9,23523],[78,23606],[77.3,23690],[77,23777],[76.1,23861],[72.2,23944],[72.2,24027],[72.2,24111],[72.2,24194],[71.7,24278],[71,24362],[70.2,24444],[69.3,24528],[69.1,24611],[69,24695],[68.9,24778],[68.9,24861],[68.9,24945],[68.9,25028],[68.9,25112],[68.9,25195],[68.9,25279],[68.9,25362],[68.9,25445],[70.4,25529],[71.1,25612],[71.4,25696],[71.5,25779],[71.5,25863],[71.5,25946],[71.5,26029],[71.5,26113],[71.5,26196],[71.5,26280],[71.5,26363],[71.5,26446],[71.5,26530],[71.5,26613],[71.5,26697],[71.5,26780],[71.5,26864],[71.5,26947],[71.5,27030],[71.5,27114],[71.8,27197],[74.6,27281],[75.1,27364],[75.1,27447],[75.1,27531],[75.1,27614],[75.1,27698],[75.8,27781],[77.7,27865],[78,27948],[75.9,28032],[70.4,28365],[74.3,28449]]",1,0,754.3975,760.8949,74.58333333,5.7109,"[{""rating"":75.9375,""responseTime"":1.7030000000000882},{""rating"":74.58333333333333,""responseTime"":5.710900000095421}]",space,5.99,,760.8951,Not at all,0,760.8968,,,[],,0,2,2,2,1,audio/Narrative7Situation2.wav,audio/Narrative8Situation2.wav,audio/Narrative5Situation2.wav,audio/Narrative6Situation2.wav,3,3,3,3,,,,,,,,,,,,,,,,,,,,,,,,,,,,,,,,,,,,,,,
,,,,,,631664e2a5d07c0ad889cf91,2024-02-08_16h02.23.311,group3.1-3.2-social-tom,2023.2.2,Win32,238.0952381,65c5074098b851296ff0b7ed,65c54149837205634a0f292a,,,,,,,,,,,,,,,,,,,,,,,,,,,,,760.8969,2,audio/Narrative6Situation3.wav,765.8999,,765.9,778.4877,"[[73.1,1005],[66.6,1088],[66.6,1171],[66.6,1255],[66.6,1338],[66.6,1422],[66.6,1505],[66.6,1588],[66.6,1672],[66.6,1755],[66.6,1839],[66.6,1922],[66.6,2006],[63.3,2089],[45.8,2173],[40.2,2256],[40.2,2339],[38.4,2423],[36.9,2506],[35.3,2590],[35.2,2673],[33,2757],[30.4,2841],[28.8,2923],[27.7,3008],[25.2,3090],[24,3173],[22.7,3257],[22.1,3340],[19.9,3424],[19.2,3507],[18.9,3590],[16.8,3674],[15.1,3757],[13.1,3841],[12.9,3924],[12.7,4007],[12.4,4091],[11.5,4174],[10.7,4258],[9.4,4341],[7.7,4425],[6.1,4508],[5.2,4592],[4.6,4675],[4,4758],[3.9,4842],[3.9,4925],[7.3,5009],[9.9,5092],[12.5,5175],[15.4,5259],[20.3,5342],[23.2,5426],[27.4,5509],[30.7,5593],[35.7,5676],[39.8,5759],[42.4,5843],[42,5926],[34.5,6010],[33.5,6093],[30.7,6176],[26.9,6260],[26.4,6343],[26.4,6427],[35.2,6510],[39.8,6593],[41.3,6677],[43.9,6760],[44,6844],[44,6927],[44,7010],[44.3,7094],[45,7177],[47.4,7261],[48.1,7344],[48.5,7427],[48.8,7511],[48.8,7594],[48.8,7678],[48.8,7761],[49.1,7845],[49.4,7928],[50,8011],[50.4,8095],[50.5,8178],[50.5,8262],[50.5,8345],[50.5,8428],[51,8512],[52.9,8595],[52.9,8679],[53.1,8762],[54.6,8846],[55.5,8929],[57.7,9012],[59.5,9096],[60.6,9179],[61.7,9263],[62.9,9346],[64.4,9429],[64.5,9513],[66.6,9597],[67.4,9680],[68.1,9763],[68.3,9847],[69.9,9930],[70,10013],[70.1,10097],[70.5,10180],[72.6,10264],[72.6,10347],[72.6,10430],[72.7,10514],[74,10597],[74,10681],[74,10764],[74,10848],[74,10931],[74,11015],[74,11098],[75.3,11181],[75.3,11265],[75.3,11348],[75.3,11431],[75.3,11515],[75.3,11598],[75.3,11682],[75.3,11765],[75.3,11849],[75.3,11932],[75.2,12015],[75.1,12099],[75.1,12182],[75.1,12266],[75.1,12349],[75.1,12432],[77.8,12516]]",1,0,778.4879,795.1164,76.25,9.2938,"[{""rating"":86.97916666666667,""responseTime"":2.0777999999522763},{""rating"":76.25,""responseTime"":9.293799999952284}]",space,16.1201,,795.1164,Half the time,50,795.1236,,,[],,0,3,3,3,1,audio/Narrative7Situation3.wav,audio/Narrative8Situation3.wav,audio/Narrative5Situation3.wav,audio/Narrative6Situation3.wav,8,4,3,5,,,,,,,,,,,,,,,,,,,,,,,,,,,,,,,,,,,,,,,
,,,,,,631664e2a5d07c0ad889cf91,2024-02-08_16h02.23.311,group3.1-3.2-social-tom,2023.2.2,Win32,238.0952381,65c5074098b851296ff0b7ed,65c54149837205634a0f292a,,,,,,,,,,,,,,,,,,,,,,,,,,,,,795.1238,2,audio/Narrative6Situation4.wav,797.1267,,797.1267,809.7142,"[[56.5,1001],[52.4,1084],[52.4,1167],[55.1,1251],[55.1,1334],[55.1,1417],[55.1,1501],[55.1,1584],[49.4,1668],[48.2,1751],[48.2,1834],[48.2,1918],[48.2,2001],[48.2,2085],[48.2,2168],[48.2,2252],[49.3,2335],[49.9,2418],[50,2502],[50,2585],[50,2669],[50,2752],[50,2835],[50,2919],[50,3002],[50,3086],[50,3169],[50,3253],[50,3336],[50.4,3419],[50.8,3503],[51.1,3586],[51.3,3670],[51.4,3753],[51.5,3837],[51.5,3920],[51.4,4004],[45.7,4087],[41,4170],[41,4254],[41,4337],[41,4420],[41,4504],[40.5,4587],[38.3,4671],[37.4,4754],[35.3,4838],[35,4921],[33.6,5005],[33.5,5088],[33.5,5171],[33.5,5255],[30.6,5338],[30.5,5421],[30.5,5505],[30.4,5588],[30.4,5672],[30.4,5755],[30.4,5838],[30.4,5922],[27.7,6005],[27.7,6089],[27.7,6172],[27.7,6256],[27.7,6339],[32.2,6423],[32.4,6506],[32.4,6589],[34.4,6673],[34.9,6756],[34.9,6839],[36.5,6923],[39.8,7007],[40.4,7090],[44.6,7173],[46.9,7257],[49.8,7340],[52.4,7423],[53.1,7507],[53.3,7591],[55.4,7674],[55.8,7757],[55.9,7840],[55.9,7924],[56,8007],[56,8091],[55.8,8174],[50.6,8258],[49.4,8341],[49.2,8424],[49.2,8508],[49.2,8591],[49.2,8675],[49.2,8758],[49.2,8841],[49.2,8925],[49.2,9008],[49.2,9092],[49.2,9175],[49.2,9259],[49.6,9342],[50.6,9426],[52.4,9509],[52.4,9592],[54.6,9676],[55.8,9759],[57.7,9844],[57.9,9926],[57.9,10010],[60.5,10093],[60.8,10176],[61.5,10260],[62.7,10343],[64,10427],[66.1,10510],[67.7,10594],[68.2,10677],[68.2,10760],[68.4,10843],[70.6,10927],[71.3,11010],[71.8,11094],[73,11177],[73.1,11261],[73.1,11344],[73.4,11428],[74.9,11511],[74.9,11595],[74.9,11680],[76,11762],[76.8,11845],[76.9,11929],[77.1,12011],[78.2,12095],[78.2,12178],[78.2,12262],[78.3,12345],[79.9,12429],[80.5,12512]]",1,0,809.7143,813.7181,73.64583333,2.22,"[{""rating"":73.64583333333333,""responseTime"":2.2200000000000273}]",space,3.497,,813.7181,All the time,100,813.7199,,,[],,0,4,4,4,1,audio/Narrative7Situation4.wav,audio/Narrative8Situation4.wav,audio/Narrative5Situation4.wav,audio/Narrative6Situation4.wav,3,3,1,2,,,,,,,,,,,,,,,,,,,,,,,,,,,,,,,,,,,,,,,
,,,,,,631664e2a5d07c0ad889cf91,2024-02-08_16h02.23.311,group3.1-3.2-social-tom,2023.2.2,Win32,238.0952381,65c5074098b851296ff0b7ed,65c54149837205634a0f292a,,,,,,,,,,,,,,,,,,,,,,,,,,,,,813.72,2,audio/Narrative6Situation5.wav,815.72,,815.72,823.6487,"[[76.1,750],[75.6,834],[74.8,917],[74.7,1001],[71.5,1084],[68.4,1167],[65.2,1251],[63,1334],[60.7,1418],[59.8,1501],[58.5,1584],[57.3,1668],[56.4,1751],[56.3,1835],[56.1,1918],[56.1,2001],[56.9,2085],[57.8,2168],[58,2252],[58.3,2335],[59.9,2419],[61.5,2502],[61.8,2585],[64,2669],[64.5,2752],[64.6,2836],[65.4,2919],[68.5,3002],[68.8,3086],[70,3170],[72.1,3253],[73.5,3336],[74.4,3419],[74.5,3503],[74.6,3586],[75.5,3670],[76.5,3753],[76.5,3836],[76.6,3920],[77.5,4004],[78.4,4087],[78.4,4170],[78.5,4254],[80.3,4338],[80.6,4420],[80.9,4504],[83.2,4587],[83.2,4671],[83.4,4754],[84.8,4837],[85.4,4921],[85.5,5004],[86.5,5088],[87.1,5171],[87.2,5255],[88.1,5338],[89,5421],[89.8,5505],[90.6,5588],[90.7,5672],[90.8,5755],[91.1,5839],[91.9,5922],[92.1,6005],[93.1,6089],[93.5,6172],[93.9,6255],[93.9,6339],[94.8,6422],[94.9,6506],[94.4,6590],[93.3,6673],[92.8,6756],[92.3,6840],[91.9,6923],[91.9,7007],[91.9,7090],[91.9,7173],[91.9,7257],[91.9,7340],[92,7423],[93.1,7507],[95.1,7590],[95.9,7674],[96.5,7757],[96.5,7841],[96.5,7924]]",1,0,823.6488,828.0823,93.4375,2.541,"[{""rating"":93.4375,""responseTime"":2.5410000000000537}]",space,3.9273,,828.0823,Half the time,50,828.0845,,,[],,0,5,5,5,1,audio/Narrative7Situation5.wav,audio/Narrative8Situation5.wav,audio/Narrative5Situation5.wav,audio/Narrative6Situation5.wav,5,2,5,2,,,,,,,,,,,,,,,,,,,,,,,,,,,,,,,,,,,,,,,
,,,,,,631664e2a5d07c0ad889cf91,2024-02-08_16h02.23.311,group3.1-3.2-social-tom,2023.2.2,Win32,238.0952381,65c5074098b851296ff0b7ed,65c54149837205634a0f292a,,,,,,,,,,,,,,,,,,,,,,,,,,,,,828.0847,2,audio/Narrative6Situation6.wav,830.0883,,830.0883,841.1409,"[[90.1,917],[90,1000],[90,1084],[90,1167],[90,1251],[90,1334],[89.4,1418],[88.4,1501],[87.4,1585],[86.6,1668],[85.4,1751],[84.5,1835],[82.3,1918],[80.3,2002],[78.6,2085],[77.6,2168],[76.7,2252],[76.6,2335],[76.6,2418],[76.6,2502],[76.6,2585],[76.6,2669],[75.9,2752],[74.2,2836],[72.6,2919],[72.4,3002],[71.3,3086],[71.3,3169],[74.1,3253],[78.1,3336],[78.6,3419],[78.6,3503],[78.9,3586],[81.1,3670],[81.7,3753],[81.8,3837],[82.8,3920],[83.9,4003],[84,4087],[84.7,4170],[86.3,4254],[88.4,4337],[89.5,4420],[89.5,4504],[89.6,4587],[89.7,4671],[91.6,4754],[91.6,4837],[91.6,4921],[91.8,5004],[92.6,5088],[93.2,5171],[93.3,5255],[94.1,5338],[94.6,5422],[94.7,5505],[94.7,5588],[94.7,5672],[94.8,5755],[95.4,5839],[96,5922],[96,6005],[96,6089],[96,6172],[96,6256],[96,6339],[96.9,6423],[97.3,6506],[97.3,6589],[97.3,6673],[97.3,6756],[97.3,6840],[97.3,6923],[97.3,7006],[97.3,7090],[97.3,7173],[97.5,7257],[98.3,7340],[100,7424],[100,7507],[100,7590],[100,7674],[100,7757],[100,7841],[95.5,7924],[93.2,8008],[93.1,8091],[90.9,8174],[89.6,8258],[88.1,8341],[86.8,8424],[85.6,8508],[84.4,8591],[83.3,8675],[82,8758],[80.9,8843],[79.9,8925],[79.6,9008],[77.6,9092],[76.8,9175],[76.1,9259],[76.1,9342],[76.1,9425],[75.6,9509],[74.6,9592],[74.3,9676],[74.2,9759],[74,9843],[74,9926],[74,10009],[74,10093],[74,10176],[74,10260],[75.8,10343],[79.8,10427],[82.4,10510],[83.2,10593],[83.2,10677],[83.2,10760],[83.2,10843],[83.2,10927],[83.2,11010]]",1,0,841.141,845.9123,90.20833333,3.9372,"[{""rating"":90.20833333333333,""responseTime"":3.93720000004771}]",space,4.2631,,845.9123,Half the time,50,845.9134,,,[],,0,6,6,6,1,audio/Narrative7Situation6.wav,audio/Narrative8Situation6.wav,audio/Narrative5Situation6.wav,audio/Narrative6Situation6.wav,3,2,3,2,,,,,,,,,,,,,,,,,,,,,,,,,,,,,,,,,,,,,,,
,,,,,,631664e2a5d07c0ad889cf91,2024-02-08_16h02.23.311,group3.1-3.2-social-tom,2023.2.2,Win32,238.0952381,65c5074098b851296ff0b7ed,65c54149837205634a0f292a,,,,,,,,,,,,,,,,,,,,,,,,,,,,,845.9136,2,audio/Narrative6Situation7.wav,850.9177,,850.9177,875.7503,"[[82.5,87],[81.1,170],[80.4,253],[80.3,337],[80.3,420],[80.3,504],[80.3,587],[80.3,671],[80.3,754],[72.5,838],[68.1,921],[67.1,1004],[66.9,1088],[62.3,1173],[59.5,1254],[58.4,1338],[56.6,1421],[54.9,1505],[54,1588],[53.8,1672],[53.6,1755],[53.6,1838],[53.6,1922],[53.6,2005],[53.6,2089],[53.8,2172],[54.1,2255],[54.3,2339],[54.4,2422],[54.4,2506],[54.4,2589],[54.4,2672],[54.5,2756],[54.5,2839],[54.6,2923],[54.8,3006],[54.9,3090],[55.1,3173],[55.1,3256],[55.2,3340],[55.4,3423],[55.7,3507],[56,3590],[56.1,3673],[55.9,3757],[48.9,3841],[47.8,3924],[47.8,4007],[47.8,4090],[47.3,4174],[47.2,4257],[47.2,4341],[47.2,4424],[48.8,4508],[51,4591],[51,4674],[51,4758],[51,4841],[51,4925],[50.9,5008],[50.3,5092],[50.1,5175],[49.6,5259],[43.5,5342],[34,5425],[33.2,5509],[33.2,5592],[33,5676],[32.7,5759],[32.5,5842],[32.1,5926],[31,6009],[30.7,6092],[29.5,6176],[29.2,6259],[29.1,6343],[28,6427],[25,6510],[24.6,6593],[22.9,6676],[21,6760],[19.1,6844],[18.8,6927],[16.4,7010],[15.9,7094],[15.8,7177],[12.4,7260],[10.2,7344],[8.6,7427],[6.4,7511],[4.2,7594],[2.8,7678],[2.2,7761],[2.2,7844],[2.2,7928],[2.2,8011],[2.2,8095],[2.2,8178],[2.2,8261],[2.2,8345],[9.4,8429],[17.2,8512],[25.9,8595],[38.4,8678],[46.1,8762],[51.4,8846],[56,8929],[56.5,9012],[56.5,9095],[56.5,9179],[56.5,9262],[56.5,9346],[56.5,9429],[56.5,9513],[56.5,9596],[56.5,9679],[56.5,9763],[56.5,9846],[57,9930],[60.5,10013],[60.7,10097],[60.7,10180],[63.3,10264],[65.7,10347],[65.7,10430],[68.4,10514],[69.3,10597],[70.8,10681],[75.2,10764],[77.1,10847],[77.4,10931],[77.4,11014],[77.4,11097],[77.4,11181],[77.4,11264],[77.4,11348],[77.4,11431],[77.4,11515],[77.4,11598],[77.4,11681],[77.4,11765],[77.4,11848],[78.8,11932],[78.8,12015],[74.4,12099],[69.7,12182],[69.7,12265],[69.7,12349],[69.7,12432],[69.7,12515],[73,12599],[73.2,12682],[73.2,12766],[73.2,12849],[73.2,12932],[73.4,13016],[73.5,13100],[73.6,13183],[73.6,13266],[73.1,13350],[68.3,13433],[68.2,13516],[68.2,13600],[68.2,13683],[68.2,13767],[71.3,13851],[73.8,13934],[76.3,14017],[76.5,14100],[76.6,14184],[77.9,14267],[78.2,14351],[78.2,14434],[78.2,14518],[78.2,14601],[78.2,14684],[78.3,14768],[78.8,14851],[81.1,14935],[84.2,15018],[85.5,15101],[85.5,15185],[85.5,15268],[86,15351],[86.5,15435],[88.2,15519],[88.3,15602],[88.4,15686],[90.8,15769],[91.5,15852],[91.5,15936],[91.9,16019],[92.9,16102],[93,16186],[94.2,16270],[94.6,16353],[94.6,16436],[94.7,16519],[94.7,16603],[94.7,16686],[94.6,16770],[94.1,16853],[93.3,16937],[92.8,17020],[92.8,17103],[92.5,17187],[92.4,17270],[92.1,17354],[91.6,17437],[90.9,17520],[90.2,17604],[89.8,17687],[89.5,17771],[88.9,17854],[88.6,17937],[88.2,18021],[87.9,18104],[86.4,18188],[85.3,18271],[85.3,18355],[86,18438],[89,18522],[91.5,18605],[92.1,18688],[93.9,18772],[94.4,18855],[95.7,18939],[96.5,19022],[97.7,19105],[97.8,19189],[97.8,19272],[97.8,19356],[97.8,19439],[97.8,19523],[97.6,19606],[96.7,19689],[95.9,19773],[95.5,19856],[95.3,19940],[95.3,20023],[95.3,20106],[95.3,20190],[97.7,20274],[100,20357],[100,20440],[100,20523],[100,20607],[100,20690],[100,20774],[100,20857],[100,20940],[100,21024],[100,21107],[100,21191],[100,21274],[98,21358],[97,21441],[95.4,21525],[95.1,21608],[93.9,21691],[93.3,21775],[93.1,21858],[91,21942],[90.5,22025],[88.9,22109],[87.9,22192],[87.9,22275],[87.9,22359],[87.9,22442],[87.8,22525],[87.8,22609],[87.9,22692],[88.8,22776],[89.4,22859],[89.8,22942],[90.3,23026],[90.5,23109],[90.5,23193],[90,23276],[89.3,23360],[89.1,23443],[88.3,23526],[87.9,23610],[87.8,23693],[87.8,23777],[88.1,23860],[88.6,23944],[88.8,24027],[88.8,24110],[88.4,24194],[86.5,24277],[85.9,24361],[85.7,24444],[85.7,24527],[85.9,24611],[86.9,24694],[87.2,24778]]",1,0,875.7505,878.2776,88.64583333,0.6791,"[{""rating"":88.64583333333333,""responseTime"":0.679099999904679}]",space,2.0188,,878.2777,Half the time,50,878.2787,,,[],,0,7,7,7,1,audio/Narrative7Situation7.wav,audio/Narrative8Situation7.wav,audio/Narrative5Situation7.wav,audio/Narrative6Situation7.wav,5,3,4,5,,,,,,,,,,,,,,,,,,,,,,,,,,,,,,,,,,,,,,,
,,,,,,631664e2a5d07c0ad889cf91,2024-02-08_16h02.23.311,group3.1-3.2-social-tom,2023.2.2,Win32,238.0952381,65c5074098b851296ff0b7ed,65c54149837205634a0f292a,,,,,,,,,,,,,,,,,,,,,,,,,,,,,878.279,2,audio/Narrative6Situation8.wav,883.2825,,883.2825,890.1103,"[[999,5],[999,87],[999,170],[999,254],[999,337],[999,421],[999,504],[999,587],[999,671],[999,754],[999,838],[999,921],[999,1005],[999,1088],[63.4,1172],[62.2,1255],[62.2,1338],[62.2,1422],[62.2,1505],[59.7,1589],[53.1,1672],[50.5,1756],[49.7,1839],[49.3,1922],[49.2,2005],[49.2,2089],[42.5,2173],[36.1,2256],[34.4,2339],[34.1,2423],[30.2,2506],[28.8,2590],[24.6,2673],[21.5,3257],[21.3,3340],[21.3,3424],[21.3,3507],[19.4,3591],[18.9,3674],[18.9,3757],[14.6,3841],[13.6,3924],[13.5,4008],[23.5,4091],[29.2,4175],[33.1,4258],[40.9,4342],[50.6,4425],[57.1,4508],[57.1,4591],[59.4,4675],[62.3,4758],[65.5,4842],[68.6,4925],[69.6,5009],[69.6,5092],[71.4,5176],[73.9,5259],[73.9,5342],[73.9,5426],[73.9,5509],[73.9,5592],[73.9,5676],[73.9,5759],[73.9,5843],[73.9,5926],[73.9,6009],[73.9,6093],[73.5,6176],[73,6260],[72.3,6344],[72,6427],[71.8,6510],[71.6,6594],[71.1,6677],[70.5,6760]]",1,0,890.1104,897.8218,55.9375,6.065,"[{""rating"":50.520833333333336,""responseTime"":1.594000000000051},{""rating"":51.041666666666664,""responseTime"":4.319000000000074},{""rating"":55.93749999999999,""responseTime"":6.065000000000055}]",space,7.2033,,897.8219,Not at all,0,897.8236,,,[],,0,8,8,8,1,audio/Narrative7Situation8.wav,audio/Narrative8Situation8.wav,audio/Narrative5Situation8.wav,audio/Narrative6Situation8.wav,2,3,3,5,,,,,,,,,,,,,,,,,,,,,,,,,,,,,,,,,,,,,,,
,,,,,,631664e2a5d07c0ad889cf91,2024-02-08_16h02.23.311,group3.1-3.2-social-tom,2023.2.2,Win32,238.0952381,65c5074098b851296ff0b7ed,65c54149837205634a0f292a,,,,,,,,,,,,,,,,,,,,,,,,,,,,,897.8239,2,audio/Narrative6Situation9.wav,901.8259,,901.8259,911.7482,"[[54.4,838],[52,921],[50.1,1005],[49.3,1088],[47.5,1172],[46.9,1255],[46.9,1338],[46.8,1422],[46.4,1505],[46.4,1588],[46.4,1672],[46.4,1755],[46.4,1839],[46.4,1922],[46.4,2005],[46.6,2089],[48.4,2173],[48.9,2256],[48.9,2339],[48.9,2423],[48.9,2506],[48.9,2589],[48.9,2673],[48.9,2756],[48.9,2840],[48.9,2923],[48.9,3007],[48.9,3090],[47.5,3173],[45.4,3257],[42.3,3340],[39.8,3424],[39.5,3507],[37.6,3591],[35.9,3674],[35.9,3757],[35.9,3841],[35.4,3924],[33.8,4008],[32.9,4091],[32.9,4174],[36.6,4258],[42.8,4341],[44.4,4425],[48.4,4508],[49.8,4592],[50.7,4675],[52.4,4758],[53.8,4842],[53.9,4925],[54,5009],[54.4,5092],[56.9,5175],[64.4,5259],[71.7,5342],[74.5,5426],[76,5509],[80.5,5593],[80.5,5676],[80.5,5759],[80.5,5843],[80.5,5926],[79.3,6010],[77.5,6093],[76.6,6176],[76.4,6260],[76.4,6343],[77.3,6427],[78.2,6510],[80,6593],[82.5,6677],[82.8,6760],[83.6,6844],[85.7,6927],[87.3,7011],[87.9,7094],[89,7178],[89.4,7261],[90.9,7344],[92.2,7427],[93.3,7511],[95.3,7595],[97.3,7678],[99.5,7761],[100,7845],[100,7928],[100,8011],[100,8095],[100,8178],[100,8262],[95.3,8345],[90.1,8429],[85.6,8512],[81.6,8595],[81.1,8679],[81.1,8762],[81.1,8846],[81.4,8929],[82.2,9012],[83.6,9096],[83.6,9179],[83.6,9263],[83.6,9346],[83.6,9429],[83.6,9513],[83.6,9596],[83.6,9680],[83.6,9763],[83.6,9847]]",1,0,911.7482,916.3277,84.0625,4.0271,"[{""rating"":88.02083333333333,""responseTime"":3.1350999999045825},{""rating"":84.0625,""responseTime"":4.027099999904635}]",space,4.071,,916.3277,Half the time,50,916.3292,,,[],,0,9,9,9,1,audio/Narrative7Situation9.wav,audio/Narrative8Situation9.wav,audio/Narrative5Situation9.wav,audio/Narrative6Situation9.wav,2,3,3,4,,,,,,,,,,,,,,,,,,,,,,,,,,,,,,,,,,,,,,,
,,,,,,631664e2a5d07c0ad889cf91,2024-02-08_16h02.23.311,group3.1-3.2-social-tom,2023.2.2,Win32,238.0952381,65c5074098b851296ff0b7ed,65c54149837205634a0f292a,,,,,,,,,,,,,,,,,,,,,,,,,,,,,916.3293,2,audio/Narrative5Situation1.wav,921.3325,,921.3325,934.5919,"[[78.5,667],[70.2,751],[64.9,834],[56.6,918],[49.5,1001],[47.1,1084],[40,1168],[36,1251],[34,1334],[32.2,1418],[30.9,1501],[30.8,1584],[29.5,1668],[28,1751],[27.6,1835],[25,1919],[24,2002],[23.3,2085],[21.6,2168],[20.4,2252],[18.2,2335],[17.6,2419],[16.5,2502],[16.3,2585],[15.2,2669],[13,2753],[12,2836],[10.5,2919],[9.4,3003],[9.2,3086],[8.3,3169],[8.3,3253],[8.4,3337],[10.1,3420],[10.1,3503],[10.1,3587],[10.1,3670],[10.3,3753],[11.3,3837],[12.8,3920],[15.9,4004],[18,4087],[18.8,4170],[22.4,4254],[22.5,4337],[22.5,4421],[20.5,4504],[18.3,4587],[17.3,4671],[16.3,4754],[15.4,4838],[15,4921],[14.8,5004],[14.7,5088],[14.7,5171],[15.2,5255],[15.6,5338],[17.3,5422],[17.6,5505],[17.6,5588],[17.6,5672],[17.6,5755],[17.6,5839],[17.6,5922],[17.6,6006],[17.6,6089],[17.6,6172],[18,6256],[23.4,6339],[26.5,6423],[27.8,6506],[28.4,6590],[31.1,6673],[31.1,6756],[35.7,6840],[38,6923],[39.8,7007],[42.1,7090],[42.4,7173],[42.4,7257],[42.4,7340],[42.4,7424],[42.4,7507],[42.4,7590],[42.4,7674],[42.4,7757],[42.4,7841],[42.4,7924],[42.4,8008],[42.4,8091],[43,8174],[44.1,8258],[44.3,8341],[44.5,8425],[45.4,8508],[45.7,8591],[45.9,8675],[45.9,8758],[45.9,8842],[46,8925],[48.4,9009],[48.9,9092],[48.9,9175],[48.9,9259],[48.9,9342],[48.9,9426],[45.2,9509],[38.2,9593],[35.8,9676],[33.9,9759],[33.9,9843],[33.9,9926],[33.9,10009],[33.9,10093],[33.9,10176],[33.9,10260],[33.9,10343],[33.9,10426],[33.9,10510],[33.9,10593],[33.9,10677],[33.9,10760],[33.9,10844],[33.9,10927],[33.9,11011],[33.9,11094],[33.9,11177],[33.9,11261],[33.9,11344],[33.9,11427],[33.9,11511],[33.9,11594],[33.9,11678],[33.9,11761],[33.9,11845],[33.9,11928],[33.9,12011],[33.9,12095],[33.9,12178],[33.9,12262],[33.9,12345],[33.9,12428],[33.9,12512],[33.9,12595],[29.4,12679],[28,12762],[28,12845],[35.9,12929],[49.9,13013],[53.8,13096],[57.4,13180]]",1,0,934.5919,938.9541,41.66666667,3.5854,"[{""rating"":41.66666666666667,""responseTime"":3.5853999998570316}]",space,3.8565,,938.9542,Not at all,0,938.9559,,,[],,0,10,10,10,1,audio/Narrative8Situation1.wav,audio/Narrative7Situation1.wav,audio/Narrative6Situation1.wav,audio/Narrative5Situation1.wav,5,2,2,5,,,,,,,,,,,,,,,,,,,,,,,,,,,,,,,,,,,,,,,
,,,,,,631664e2a5d07c0ad889cf91,2024-02-08_16h02.23.311,group3.1-3.2-social-tom,2023.2.2,Win32,238.0952381,65c5074098b851296ff0b7ed,65c54149837205634a0f292a,,,,,,,,,,,,,,,,,,,,,,,,,,,,,938.9561,2,audio/Narrative5Situation2.wav,941.9572,,941.9572,971.3905,"[[50.6,667],[46.5,751],[44.4,834],[42,1418],[37.9,1501],[37.8,1585],[36.1,1668],[36.1,1751],[36.1,1835],[36.1,1918],[36.1,2002],[36.1,2085],[36.1,2169],[32.9,2253],[32.2,2335],[31.8,2418],[29.6,2502],[28.5,2586],[28.4,2669],[29,2752],[34.9,2836],[35.4,2919],[35.4,3003],[35.4,3086],[35.4,3169],[36.5,3253],[37.1,3336],[37.1,3419],[37.1,3503],[37.1,3586],[37.1,3670],[37.8,3753],[40.1,3837],[40.1,3920],[40.1,4003],[40.1,4087],[40.1,4170],[40.8,4254],[41.1,4337],[41.3,4420],[41.3,4504],[41.3,4588],[41.3,4671],[41,4754],[35.7,4838],[34.6,4921],[32.8,5004],[30.2,5088],[27.2,5172],[26.7,5254],[26.7,5338],[39.2,5422],[48.2,5505],[48.3,5588],[48.3,5672],[48.3,5755],[49.2,5838],[49.3,5922],[49.3,6005],[49.3,6089],[49.3,6172],[49.3,6255],[49.7,6339],[49.9,6422],[50.1,6506],[50.4,6589],[52.2,6673],[52.5,6756],[54.3,6839],[55.5,6923],[55.6,7006],[55.6,7090],[55.6,7173],[55.6,7256],[55.6,7340],[55.6,7423],[55.6,7507],[55.7,7590],[56.5,7674],[57.3,7757],[57.9,7840],[57.9,7924],[57.9,8007],[58,8091],[58,8174],[58,8258],[58,8341],[58,8424],[58,8508],[58,8591],[58,8675],[58,8758],[58,8842],[58,8925],[58,9008],[58,9092],[58,9175],[58,9259],[58,9342],[65.1,9426],[65.5,9509],[65.5,9592],[65.5,9676],[65.5,9759],[65.5,9842],[65.5,9926],[65.5,10009],[65.5,10093],[70.1,10176],[70.9,10259],[70.9,10343],[70.9,10426],[70.9,10510],[70.9,10593],[70.9,10677],[70.9,10760],[70.9,10843],[70.9,10927],[70.9,11010],[71.1,11094],[73.3,11177],[74.8,11260],[74.8,11344],[74.8,11427],[74.8,11511],[74.8,11594],[74.8,11677],[74.8,11761],[74.8,11844],[74.8,11928],[74.8,12011],[74.8,12095],[74.8,12178],[74.8,12262],[74.8,12345],[74.8,12428],[74.8,12512],[74.8,12595],[74.8,12678],[74.8,12762],[74.8,12845],[74.7,12929],[73.8,13012],[73.5,13096],[73.4,13179],[73.1,13263],[72.6,13346],[71.9,13430],[71.6,13513],[71,13596],[70.6,13680],[70.3,13763],[70.2,13846],[70.2,13930],[70.2,14013],[70.2,14097],[70.1,14180],[69.9,14263],[69,14347],[68.8,14430],[67.5,14514],[67.5,14597],[67.1,14680],[66.8,14764],[66.7,14847],[66.7,14931],[66.7,15018],[66.7,15102],[66.7,15185],[66.9,15269],[67,15352],[67.3,15435],[67.6,15519],[67.8,15602],[68.1,15686],[68.4,15769],[68.5,15853],[69.6,15936],[69.9,16019],[70.2,16103],[70.5,16186],[70.7,16269],[70.8,16353],[71.3,16437],[71.4,16520],[71.4,16603],[71.5,16687],[71.5,16772],[71.5,16854],[72.8,16937],[72.8,17021],[74.5,17104],[74.5,17187],[74.5,17272],[74.7,17355],[76,17437],[76.6,17521],[78,17605],[78.1,17688],[79.2,17771],[79.5,17855],[80,17938],[80,18022],[80,18105],[80,18188],[81.4,18273],[81.5,18356],[84.1,18439],[86.3,18522],[88.5,18606],[89.3,18689],[89.3,18772],[89.3,18855],[89.3,18939],[89.3,19022],[89.3,19106],[89.3,19190],[87.3,19273],[84.8,19356],[81.4,19440],[77,19523],[76.9,19606],[76.9,19690],[76.9,19773],[79.5,19857],[80.6,19940],[80.7,20023],[80.7,20107],[80.7,20190],[80.7,20274],[79.8,20357],[78.5,20441],[78.4,20524],[78.3,20608],[78.2,20691],[78.2,20774],[78.2,20858],[78.2,20941],[78.2,21024],[78.2,21108],[78.2,21191],[78.2,21275],[78.2,21358],[78.2,21441],[78.2,21525],[78.2,21611],[78.2,21692],[78.2,21775],[78.2,21859],[78.2,21942],[78.2,22025],[78.2,22109],[78.2,22192],[78.2,22276],[78.2,22359],[78.2,22442],[78.2,22526],[78.2,22609],[78.2,22693],[78.2,22776],[78.2,22860],[78.2,22943],[78.2,23026],[78.2,23110],[78.2,23193],[78.2,23277],[78.2,23360],[78.2,23443],[78.2,23527],[78.2,23610],[78.2,23694],[78.2,23777],[78.2,23860],[78.2,23944],[78.2,24027],[78.2,24111],[78.2,24194],[78.2,24277],[78.2,24361],[78.2,24444],[78.2,24528],[78.2,24611],[78.2,24695],[78.2,24778],[78.2,24861],[78.2,24945],[78.2,25028],[78.2,25112],[78.2,25195],[78.2,25278],[78.2,25362],[78.2,25445],[78.2,25529],[78.2,25612],[78.2,25696],[78.2,25779],[78.2,25862],[78.2,25946],[78.2,26029],[78.2,26113],[78.6,26196],[78.8,26279],[78.9,26363],[78.9,26446],[79,26530],[79.1,26613],[79.1,26697],[79.1,26786],[79.1,26868],[79.1,26953],[79.1,27034],[79.1,27118],[79.1,27201],[79.1,27285],[79.1,27368],[79.1,27452],[79.1,27535],[79.1,27618],[79.1,27702],[79.1,27785],[79.1,27869],[79.1,27952],[79.1,28036],[79.1,28119],[79.1,28202],[79.1,28286],[79.1,28369],[79.1,28452],[79.1,28536],[79.1,28619],[79.1,28703],[79.1,28786],[79.1,28870],[79.1,28953],[79.1,29036],[79.1,29120],[79.1,29203],[79.2,29287],[79.5,29370]]",1,0,971.3905,975.4277,72.39583333,1.4527,"[{""rating"":72.39583333333334,""responseTime"":1.4527000000476846}]",space,3.5306,,975.4278,All the time,100,975.4345,,,[],,0,11,11,11,1,audio/Narrative8Situation2.wav,audio/Narrative7Situation2.wav,audio/Narrative6Situation2.wav,audio/Narrative5Situation2.wav,3,3,3,3,,,,,,,,,,,,,,,,,,,,,,,,,,,,,,,,,,,,,,,
,,,,,,631664e2a5d07c0ad889cf91,2024-02-08_16h02.23.311,group3.1-3.2-social-tom,2023.2.2,Win32,238.0952381,65c5074098b851296ff0b7ed,65c54149837205634a0f292a,,,,,,,,,,,,,,,,,,,,,,,,,,,,,975.4346,2,audio/Narrative5Situation3.wav,978.435,,978.435,992.3194,"[[999,0],[999,83],[999,166],[999,250],[999,333],[999,416],[999,500],[999,583],[999,667],[999,750],[47.1,834],[33.1,917],[23.9,1000],[23.1,1084],[22.4,1167],[22.3,1251],[21.3,1334],[19,1417],[17.4,1501],[14.2,1584],[13.5,1668],[13.2,1751],[12.5,1834],[11.5,1918],[10.6,2001],[9.6,2085],[8.5,2168],[8.5,2251],[8.5,2335],[9.4,2418],[10.1,2502],[10.5,2585],[10.5,2669],[10.5,2752],[10.5,2835],[10.7,2919],[11,3003],[11.3,3086],[12.2,3169],[12.7,3252],[13.2,3336],[15,3420],[17,3503],[20,3586],[23.9,3670],[28.5,3753],[31.7,3836],[36,3920],[42.8,4003],[47.4,4087],[47.8,4170],[48.3,4253],[48.9,4337],[49.5,4420],[49.5,4504],[49.5,4587],[49.5,4670],[49.7,4754],[49.8,4837],[49.8,4921],[49.8,5004],[49.8,5087],[50,5171],[51.4,5255],[52.8,5338],[54.7,5421],[55.5,5505],[55.5,5588],[56.4,5672],[61.6,5755],[63.2,5838],[63.3,5922],[65.2,6005],[67.7,6089],[67.7,6172],[67.7,6255],[67.7,6339],[67.7,6422],[67.9,6506],[69.3,6589],[69.6,6673],[69.6,6756],[69.6,6839],[69.6,6923],[69.6,7006],[69.5,7090],[69.2,7173],[69.1,7257],[69.1,7340],[69.1,7423],[69.1,7507],[69.1,7590],[72,7674],[72.6,7757],[72.6,7840],[72.6,7924],[74.8,8007],[75,8091],[75,8174],[75,8257],[75,8341],[75,8424],[75,8508],[75,8591],[75,8674],[75,8758],[75,8841],[75,8925],[75,9008],[75,9092],[76.5,9175],[76.8,9258],[77,9342],[77.2,9425],[77.5,9509],[77.5,9592],[77.5,9675],[77.5,9759],[77.5,9842],[77.5,9926],[77.5,10009],[77.5,10092],[78.4,10176],[79.8,10259],[79.9,10343],[79.9,10426],[80.5,10510],[81.9,10593],[81.9,10676],[81.9,10760],[81.9,10843],[81.9,10927],[81.9,11010],[81.9,11093],[81.9,11177],[81.9,11260],[81.9,11344],[81.9,11427],[81.9,11511],[81.9,11594],[81.9,11677],[81.9,11761],[81.9,11844],[81.9,11928],[81.9,12011],[81.9,12095],[81.9,12178],[81.9,12261],[81.9,12345],[81.9,12428],[81.9,12511],[84.4,12595],[84.4,12678],[84.4,12762],[84.4,12845],[84.4,12929],[80.1,13012],[79.3,13096],[77.1,13179],[75.5,13262],[75.5,13346],[75.3,13429],[74.8,13513],[74.7,13596],[74.7,13680],[74.7,13763],[73.4,13846]]",1,0,992.3195,994.6382,66.875,1.3895,"[{""rating"":66.875,""responseTime"":1.3894999999999982}]",space,1.8106,,994.6384,Not at all,0,994.64,,,[],,0,12,12,12,1,audio/Narrative8Situation3.wav,audio/Narrative7Situation3.wav,audio/Narrative6Situation3.wav,audio/Narrative5Situation3.wav,4,8,5,3,,,,,,,,,,,,,,,,,,,,,,,,,,,,,,,,,,,,,,,
,,,,,,631664e2a5d07c0ad889cf91,2024-02-08_16h02.23.311,group3.1-3.2-social-tom,2023.2.2,Win32,238.0952381,65c5074098b851296ff0b7ed,65c54149837205634a0f292a,,,,,,,,,,,,,,,,,,,,,,,,,,,,,994.6402,2,audio/Narrative5Situation4.wav,995.6434,,995.6434,1016.0053,"[[62.3,1334],[59.6,1418],[59.5,1501],[50.2,1585],[47.1,1668],[47.1,1751],[47.1,1835],[47.1,1918],[47.1,2002],[47.1,2085],[47.1,2168],[41.5,2252],[40.5,2335],[36.4,2419],[31.1,2502],[29.9,2585],[29.9,2669],[29.9,2752],[29.8,2836],[29.8,2919],[29.8,3002],[29.8,3087],[29.8,3169],[29.8,3253],[29.8,3336],[29.8,3419],[33.5,3503],[34.5,3586],[34.7,3670],[36.4,3754],[36.9,3836],[36.9,3920],[36.9,4003],[39.2,4087],[39.6,4170],[39.6,4254],[39.6,4337],[39.6,4420],[39.6,4504],[39.6,4587],[39.6,4671],[39.6,4754],[39.6,4838],[39.6,4921],[43.6,5005],[45.9,5088],[46.9,5171],[46.9,5255],[46.9,5338],[46.9,5422],[47.9,5505],[49.3,5588],[49.5,5672],[49.6,5755],[49.7,5839],[50.2,5922],[50.7,6005],[54.5,6089],[65.3,6173],[65.9,6256],[66,6339],[66,6422],[66.3,6506],[69.6,6590],[69.6,6673],[69.6,6756],[69.6,6840],[69.6,6923],[69.6,7006],[69.6,7090],[69.6,7173],[69.6,7257],[69.6,7340],[69.6,7423],[72.5,7507],[72.6,7590],[72.6,7674],[72.6,7757],[74.1,7841],[74.9,7924],[74.9,8007],[74.9,8091],[74.9,8174],[74.9,8258],[74.9,8341],[74.7,8424],[74.7,8508],[74.9,8591],[76.4,8675],[76.4,8758],[76.5,8841],[77.6,8925],[78.5,9008],[78.8,9092],[79.5,9175],[81.3,9259],[81.7,9342],[81.7,9425],[81.7,9509],[81.7,9592],[81.7,9676],[80.7,9759],[80.1,9843],[79.1,9926],[78.8,10009],[78.8,10093],[78.8,10176],[78.8,10260],[78.8,10343],[78.8,10426],[78.8,10510],[79.7,10593],[83.6,10677],[83.6,10760],[83.6,10843],[83.6,10927],[85.9,11010],[86,11094],[86.1,11177],[86.1,11260],[86.1,11344],[85.2,11428],[83.5,11511],[83,11595],[82.5,11678],[80.9,11761],[80,11845],[78.2,11928],[77.1,12011],[77.1,12095],[77.1,12178],[77.1,12262],[78.4,12345],[79.5,12428],[80,12512],[81,12595],[81.7,12679],[81.8,12762],[84,12847],[85.4,12929],[85.5,13012],[85.5,13096],[85,13179],[82.7,13263],[81.9,13346],[81.1,13429],[79.7,13513],[79.4,13596],[79.4,13680],[80.4,13763],[80.9,13847],[81,13930],[81.1,14013],[81.1,14097],[81.3,14180],[81.3,14264],[80.6,14347],[80.4,14430],[79.6,14514],[78.3,14597],[78.3,14681],[79,14764],[79.7,14848],[79.8,14931],[79.8,15014],[79.9,15098],[80.3,15181],[82.8,15265],[83.4,15348],[83.4,15431],[84.4,15515],[85.3,15598],[85.3,15681],[83.4,15765],[73.2,15849],[73.2,15932],[73.2,16015],[74.7,16099],[81.3,16182],[81.3,16265],[81.3,16349],[81.3,16432],[81.3,16516],[76.1,16599],[76,16683],[76,16766],[76,16850],[75.4,16933],[74.9,17016],[73.8,17100],[73.6,17183],[73.4,17267],[73.3,17350],[73.3,17433],[73.4,17517],[79,17600],[80.2,17684],[82.9,17767],[84.8,17851],[86.1,17934],[86.4,18017],[86.4,18101],[86.6,18184],[88,18268],[89.1,18351],[91,18435],[92.6,18518],[92.6,18601],[92.6,18685],[92.6,18768],[92.6,18851],[92.6,18935],[92.6,19018],[92.6,19102],[92.6,19185],[92.6,19269],[92.6,19352],[92.6,19435],[92.6,19519],[92.2,19602],[90.2,19686],[88.1,19769],[87.6,19852],[87.6,19936],[87.6,20019],[87.6,20103],[87.6,20186],[87.6,20269],[87.6,20353]]",1,0,1016.0055,1017.3401,87.60416667,0.5898,"[{""rating"":87.60416666666666,""responseTime"":0.5898000001907349}]",space,0.8267,,1017.3401,All the time,100,1017.3416,,,[],,0,13,13,13,1,audio/Narrative8Situation4.wav,audio/Narrative7Situation4.wav,audio/Narrative6Situation4.wav,audio/Narrative5Situation4.wav,3,3,2,1,,,,,,,,,,,,,,,,,,,,,,,,,,,,,,,,,,,,,,,
