exp_question,consent.started,consent.stopped,consentResponse.keys,consentResponse.rt,consentResponse.duration,participantID,date,expName,psychopyVersion,OS,frameRate,STUDY_ID,SESSION_ID,opening1.started,opening1.stopped,keyEndingOpening1.keys,keyEndingOpening1.rt,keyEndingOpening1.duration,volumeAdjust.started,volumeAdjust.stopped,endingAdjust.keys,endingAdjust.rt,endingAdjust.duration,opening2.started,opening2.stopped,keyEndingOpening.keys,keyEndingOpening.rt,keyEndingOpening.duration,mouse.x,mouse.y,mouse.leftButton,mouse.midButton,mouse.rightButton,mouse.time,instructionLoop.thisRepN,instructionLoop.thisTrialN,instructionLoop.thisN,instructionLoop.thisIndex,instructionLoop.ran,readyForAudio.started,readyForAudio.stopped,fixation.started,run,audio_played,fixation.stopped,endPractice.keys,audioPre.started,audioPre.stopped,continuousResponses_audio,continuousSlider.response,continuousSlider.rt,intRating.started,intRating.stopped,intQuestionSlider.response,intQuestionSlider.rt,intQuestionSlider.history,confirmResponse.keys,confirmResponse.rt,confirmResponse.duration,catchQuestion.started,catch_label,catch_value,catchQuestion.stopped,catchQuestionSlider.response,catchQuestionSlider.rt,catchQuestionSlider.history,confirmResponse_2.keys,audioRunLoop.thisRepN,audioRunLoop.thisTrialN,audioRunLoop.thisN,audioRunLoop.thisIndex,audioRunLoop.ran,conditions1_1,conditions2_1,conditions1_2,conditions2_2,dur1_1,dur2_1,dur1_2,dur2_2,endPractice.rt,endPractice.duration,confirmResponse_2.rt,confirmResponse_2.duration,runIntervalBreak.started,runIntervalBreak.stopped,endingBreakKey.keys,endingBreakKey.rt,endingBreakKey.duration,connection.started,connection.stopped,connectionEnding.keys,connectionEnding.rt,connectionEnding.duration,readyForText.started,readyForText.stopped,textPre.started,run_dup,textPre.stopped,continuousResponses_text,textRunLoop.thisRepN,textRunLoop.thisTrialN,textRunLoop.thisN,textRunLoop.thisIndex,textRunLoop.ran,text1_1,text1_2,text2_1,text2_2,runBreakText.started,runBreakText.stopped,endingBreakKey_2.keys,endingBreakKey_2.rt,endingBreakKey_2.duration,ending.started,ending.stopped,endingEnding.keys,endingEnding.rt,endingEnding.duration
social,0.0002,9.6752,y,9.3588,,631a68ee10ec68377cb03457,2024-02-08_15h20.15.017,group3.1-3.2-social-tom,2023.2.2,MacIntel,72.99270073,65c5074098b851296ff0b7ed,65c5412ded5b1be18443a018,,,,,,,,,,,,,,,,,,,,,,,,,,,,,,,,,,,,,,,,,,,,,,,,,,,,,,,,,,,,,,,,,,,,,,,,,,,,,,,,,,,,,,,,,,,,,,,,,,,,,,,,,,
,,,,,,631a68ee10ec68377cb03457,2024-02-08_15h20.15.017,group3.1-3.2-social-tom,2023.2.2,MacIntel,72.99270073,65c5074098b851296ff0b7ed,65c5412ded5b1be18443a018,9.6755,13.6343,space,3.9278,,,,,,,,,,,,,,,,,,,,,,,,,,,,,,,,,,,,,,,,,,,,,,,,,,,,,,,,,,,,,,,,,,,,,,,,,,,,,,,,,,,,,,,,,,,,,,,,,,,,,,
,,,,,,631a68ee10ec68377cb03457,2024-02-08_15h20.15.017,group3.1-3.2-social-tom,2023.2.2,MacIntel,72.99270073,65c5074098b851296ff0b7ed,65c5412ded5b1be18443a018,,,,,,13.6344,23.8185,space,9.8716,,,,,,,,,,,,,,,,,,,,,,,,,,,,,,,,,,,,,,,,,,,,,,,,,,,,,,,,,,,,,,,,,,,,,,,,,,,,,,,,,,,,,,,,,,,,,,,,,
,,,,,,631a68ee10ec68377cb03457,2024-02-08_15h20.15.017,group3.1-3.2-social-tom,2023.2.2,MacIntel,72.99270073,65c5074098b851296ff0b7ed,65c5412ded5b1be18443a018,,,,,,,,,,,23.823,31.9226,space,8.0819,,[],[],[],[],[],[],0,0,0,0,1,,,,,,,,,,,,,,,,,,,,,,,,,,,,,,,,,,,,,,,,,,,,,,,,,,,,,,,,,,,,,,,,,,,,,,,,,,,,,,,,
,,,,,,631a68ee10ec68377cb03457,2024-02-08_15h20.15.017,group3.1-3.2-social-tom,2023.2.2,MacIntel,72.99270073,65c5074098b851296ff0b7ed,65c5412ded5b1be18443a018,,,,,,,,,,,31.9231,51.9294,space,19.9071,,[],[],[],[],[],[],1,0,1,0,1,,,,,,,,,,,,,,,,,,,,,,,,,,,,,,,,,,,,,,,,,,,,,,,,,,,,,,,,,,,,,,,,,,,,,,,,,,,,,,,,
,,,,,,631a68ee10ec68377cb03457,2024-02-08_15h20.15.017,group3.1-3.2-social-tom,2023.2.2,MacIntel,72.99270073,65c5074098b851296ff0b7ed,65c5412ded5b1be18443a018,,,,,,,,,,,51.9389,74.1108,space,22.1391,,[],[],[],[],[],[],2,0,2,0,1,,,,,,,,,,,,,,,,,,,,,,,,,,,,,,,,,,,,,,,,,,,,,,,,,,,,,,,,,,,,,,,,,,,,,,,,,,,,,,,,
,,,,,,631a68ee10ec68377cb03457,2024-02-08_15h20.15.017,group3.1-3.2-social-tom,2023.2.2,MacIntel,72.99270073,65c5074098b851296ff0b7ed,65c5412ded5b1be18443a018,,,,,,,,,,,74.1207,92.385,space,18.2499,,[],[],[],[],[],[],3,0,3,0,1,,,,,,,,,,,,,,,,,,,,,,,,,,,,,,,,,,,,,,,,,,,,,,,,,,,,,,,,,,,,,,,,,,,,,,,,,,,,,,,,
,,,,,,631a68ee10ec68377cb03457,2024-02-08_15h20.15.017,group3.1-3.2-social-tom,2023.2.2,MacIntel,72.99270073,65c5074098b851296ff0b7ed,65c5412ded5b1be18443a018,,,,,,,,,,,92.3941,132.8417,space,40.4302,,[],[],[],[],[],[],4,0,4,0,1,,,,,,,,,,,,,,,,,,,,,,,,,,,,,,,,,,,,,,,,,,,,,,,,,,,,,,,,,,,,,,,,,,,,,,,,,,,,,,,,
,,,,,,631a68ee10ec68377cb03457,2024-02-08_15h20.15.017,group3.1-3.2-social-tom,2023.2.2,MacIntel,72.99270073,65c5074098b851296ff0b7ed,65c5412ded5b1be18443a018,,,,,,,,,,,,,,,,,,,,,,,,,,,132.8523,135.4284,135.4486,1,audio/Narrative13Situation2.wav,137.4541,,137.4543,167.2051,"[[999,2],[999,92],[999,171],[999,251],[999,332],[999,412],[999,491],[999,571],[999,651],[999,731],[999,811],[999,891],[999,971],[55.5,1051],[55.3,1131],[55.2,1211],[53.9,1291],[53.8,1371],[53.8,1451],[53.8,1531],[53.8,1611],[53.8,1691],[53.8,1771],[52.9,1852],[51.3,1931],[51.3,2011],[51.3,2091],[51.3,2171],[51.3,2251],[51.3,2331],[51.3,2412],[51.3,2492],[51.3,2571],[51.3,2652],[51.3,2731],[51.3,2812],[1.6,3451],[3.8,3531],[6,3611],[7.2,3691],[7.2,3771],[7.2,3851],[7.2,3931],[7.2,4010],[7.2,4090],[7.2,4170],[7.2,4250],[7.2,4330],[7.2,4410],[7.2,4490],[7.2,4571],[7.2,4650],[7.3,4731],[8.8,4811],[12.1,4890],[20.7,4970],[29.6,5050],[34.7,5130],[35.4,5210],[42.1,5291],[77.5,5370],[85.4,5450],[86.3,5530],[89.1,5610],[91.7,5691],[91.7,5770],[91.4,5850],[90.3,5930],[89.7,6010],[89.7,6090],[89.7,6170],[89.7,6250],[89.7,6330],[89.7,6410],[89.7,6490],[89.7,6570],[89.7,6650],[89.7,6730],[89.7,6810],[89.7,6890],[86.3,6970],[38.9,7290],[38.7,7371],[39.4,7450],[40.6,7530],[40.7,7611],[40.7,7690],[40.7,7770],[40.7,7851],[40.7,7931],[40.7,8010],[41.4,8091],[62.8,8170],[85.5,8250],[88.6,8330],[90.2,8410],[91.8,8490],[93.3,8570],[93.5,8650],[93.5,8730],[93.5,8811],[93.5,8890],[93.5,8970],[93.5,9049],[93.5,9128],[93.5,9208],[93.5,9289],[93.5,9369],[93.5,9449],[93.5,9529],[93.5,9609],[93.5,9689],[93.5,9769],[93.5,9849],[93.5,9928],[93.5,10009],[93.5,10088],[93.4,10169],[93.1,10248],[92.6,10329],[92.5,10409],[92.5,10488],[92.5,10569],[92.5,10649],[92.5,10729],[92.5,10809],[92.5,10889],[92.5,10969],[92.5,11049],[92.5,11129],[92.5,11208],[92.5,11289],[92.5,11369],[92.5,11449],[92.5,11529],[92.5,11608],[92.5,11689],[92.5,11769],[92.5,11849],[92.5,11928],[92.5,12009],[92.5,12089],[92.5,12169],[92.5,12249],[92.5,12329],[92.5,12409],[92.5,12489],[92.5,12569],[92.5,12649],[92.5,12729],[92.5,12809],[92.5,12888],[92.5,12969],[92.5,13049],[92.5,13129],[92.5,13209],[92.5,13288],[92.5,13369],[92.5,13448],[92.5,13529],[92.5,13609],[92.5,13689],[92.5,13769],[92.5,13849],[92.5,13929],[92.5,14008],[92.5,14087],[92.5,14168],[92.5,14247],[92.5,14327],[92.5,14407],[92.5,14487],[92.5,14567],[92.5,14647],[92.5,14727],[92.5,14807],[92.5,14888],[92.5,14967],[92.5,15048],[92.5,15127],[92.5,15207],[92.5,15287],[92.5,15368],[92.5,15447],[92.5,15527],[92.5,15607],[92.5,15687],[92.5,15767],[92.5,15848],[92.5,15927],[91.6,16007],[88.2,16087],[85.1,16168],[81.2,16247],[51.6,16327],[27,16407],[25.3,16487],[25.2,16567],[25.2,16647],[25.2,16727],[25.2,16807],[24.8,16887],[23.1,16967],[21.1,17048],[20.7,17127],[20.7,17207],[20.7,17287],[20.7,17367],[20.6,17447],[20.4,17528],[20.4,17607],[20.3,17687],[19.6,17767],[19,17847],[18.8,17927],[18.8,18007],[18.8,18087],[18.8,18168],[18.8,18248],[18.8,18328],[18.8,18407],[18.8,18487],[18.8,18567],[18.8,18647],[18.8,18727],[18.8,18807],[18.8,18887],[18.8,18967],[18.8,19047],[18.8,19125],[18.8,19206],[18.8,19286],[18.8,19365],[18.8,19445],[18.8,19526],[18.8,19606],[18.8,19686],[18.8,19766],[18.8,19846],[18.8,19926],[18.8,20006],[18.8,20086],[18.8,20166],[18.8,20246],[18.8,20326],[18.8,20406],[18.8,20486],[18.8,20566],[18.8,20646],[18.8,20726],[18.8,20806],[18.8,20886],[18.8,20966],[18.8,21046],[18.8,21126],[18.8,21206],[18.8,21286],[18.8,21366],[18.8,21446],[18.8,21526],[18.8,21607],[18.8,21686],[18.8,21767],[18.8,21846],[17.2,21926],[15,22006],[12,22086],[10,22166],[9.8,22246],[7,22326],[5.7,22406],[5.7,22486],[5.7,22566],[5.9,22646],[17.3,22726],[34.6,22806],[47.2,22886],[99.9,23366],[97.8,23446],[97.8,23526],[97.8,23605],[95.1,23686],[94.6,23766],[94.8,23846],[95,23926],[95,24006],[95,24085],[95,24164],[95,24244],[95,24324],[94.4,24404],[92.4,24484],[83.9,24564],[51.3,24645],[29.7,24724],[25.1,24804],[20.3,24885],[18.6,24965],[14.5,25044],[11.5,25124],[11.5,25204],[11.3,25285],[10.9,25364],[10.6,25445],[10.6,25525],[10.6,25604],[10.6,25685],[10.6,25765],[10.6,25844],[10.6,25925],[10.6,26004],[10.6,26085],[10.6,26165],[10.6,26245],[10.6,26325],[10.6,26405],[10.6,26485],[10.6,26565],[10.6,26645],[10.6,26724],[10.6,26805],[10.6,26885],[10.6,26965],[10.6,27044],[10.6,27124],[10.6,27205],[10.6,27284],[10.6,27364],[10.6,27445],[10.6,27525],[10.6,27604],[10.6,27685],[10.6,27764],[10.6,27845],[10.6,27924],[10.6,28004],[10.6,28084],[10.6,28164],[10.6,28245],[10.6,28386],[10.6,28458],[10.6,28538],[10.6,28618],[10.6,28698],[10.6,28778],[10.6,28858],[10.6,28938],[10.6,29018],[10.6,29097],[10.6,29176],[10.6,29256],[10.6,29336],[10.6,29416],[10.6,29497],[10.6,29577],[10.6,29657],[10.6,29736]]",1,0,167.2054,179.4153,65.96185048,8.8294,"[{""rating"":65.96185048421223,""responseTime"":8.829400000005961}]",space,11.6845,,179.4253,Definitely yes,100,179.428,,,[],,0,0,0,0,1,audio/Narrative13Situation2.wav,audio/Narrative13Situation2.wav,audio/Narrative13Situation2.wav,audio/Narrative13Situation2.wav,2,2,2,2,,,,,,,,,,,,,,,,,,,,,,,,,,,,,,,,,,,,,,,
,,,,,,631a68ee10ec68377cb03457,2024-02-08_15h20.15.017,group3.1-3.2-social-tom,2023.2.2,MacIntel,72.99270073,65c5074098b851296ff0b7ed,65c5412ded5b1be18443a018,,,,,,,,,,,,,,,,,,,,,,,,,,,,,179.4282,1,audio/Narrative8Situation1.wav,205.1157,space,205.1157,221.0441,"[[47.2,2077],[74.7,2171],[85.5,2251],[87.5,2330],[90.8,2411],[94.4,2491],[94.3,2571],[92.4,2694],[91.6,2772],[91.5,2851],[91.5,2931],[91.5,3010],[91.5,3091],[91.5,3170],[91.5,3251],[91.5,3331],[91.5,3411],[91.5,3491],[91.5,3571],[91.2,3651],[91.1,3731],[90.9,3811],[90.5,3891],[90.1,3971],[89.8,4050],[77.9,4131],[59.4,4691],[62.8,4770],[67.2,4850],[68.8,4931],[70.5,5011],[73.1,5091],[73.7,5171],[73.7,5251],[73.7,5331],[73.7,5411],[73.7,5491],[73.7,5571],[73.7,5651],[73.7,5731],[73.7,5811],[73.7,5891],[73.7,5971],[73.7,6051],[73.7,6131],[73.7,6211],[73.7,6291],[71.6,6371],[70.1,6451],[65.9,6529],[60,6610],[59.4,6690],[59.4,6770],[59.4,6850],[59.4,6930],[59.4,7010],[59.4,7089],[59.2,7170],[59.2,7250],[59.2,7330],[59.2,7410],[59.2,7490],[59.2,7569],[59.2,7650],[59.2,7730],[59.2,7810],[59.2,7890],[59.2,7970],[59.2,8049],[55.3,8129],[54.3,8209],[54.2,8290],[53,8369],[52.5,8450],[52.5,8530],[51.4,8609],[50.7,8690],[50.7,8770],[50.7,8850],[50.7,8930],[50.7,9010],[50.7,9090],[50.7,9170],[50.7,9250],[50.9,9330],[56.5,9409],[56.9,9490],[56.8,9570],[58.6,9665],[92.1,9742],[100,9823],[100,9903],[100,9983],[97.9,10543],[99.3,10623],[99.5,10703],[99.5,10783],[99.5,10863],[99.5,10943],[99.5,11023],[99.5,11103],[99.5,11183],[99.5,11263],[99.5,11343],[99.5,11422],[99.5,11502],[99.5,11581],[99.5,11662],[99.5,11741],[99.5,11822],[99.5,11902],[99.5,11981],[99.5,12061],[99.5,12142],[99.5,12221],[99.5,12301],[99.5,12382],[99.5,12461],[99.5,12542],[99.5,12622],[99.5,12702],[99.5,12781],[99.5,12862],[99.5,12941],[99.5,13021],[99.5,13101],[99.5,13181],[99.5,13262],[99.5,13341],[99.5,13422],[99.5,13501],[99.5,13581],[99.5,13662],[99.5,13741],[99.5,13822],[99.5,13901],[99.5,13982],[99.5,14062],[99.5,14141],[99.5,14221],[99.5,14301],[99.5,14382],[99.5,14462],[99.5,14541],[99.5,14622],[98.7,14701],[98.7,14782],[98.7,14861],[98.3,14943],[97.9,15022],[97.9,15102],[97.9,15182],[97.9,15262],[97.9,15341],[97.9,15422],[97.9,15502],[97.9,15582],[97.9,15662],[97.9,15741],[97.9,15822],[97.9,15902]]",1,0,221.0443,225.3236,93.72315725,3.3534,"[{""rating"":93.72315724690755,""responseTime"":3.353400000005962}]",space,3.7489,,225.3237,Partially,50,225.3257,,,[],,0,1,1,1,1,audio/Narrative7Situation1.wav,audio/Narrative8Situation1.wav,audio/Narrative5Situation1.wav,audio/Narrative6Situation1.wav,2,5,5,2,25.6753,,,,,,,,,,,,,,,,,,,,,,,,,,,,,,,,,,,,,,
,,,,,,631a68ee10ec68377cb03457,2024-02-08_15h20.15.017,group3.1-3.2-social-tom,2023.2.2,MacIntel,72.99270073,65c5074098b851296ff0b7ed,65c5412ded5b1be18443a018,,,,,,,,,,,,,,,,,,,,,,,,,,,,,225.326,1,audio/Narrative8Situation2.wav,228.3344,,228.3345,238.452,"[[93.4,960],[92.9,1040],[89,1120],[58.1,1200],[39.3,1280],[38.8,1360],[38.8,1440],[40,1520],[47.2,1600],[48.6,1680],[48.6,1760],[48.6,1840],[48.6,1920],[48.6,2000],[48.6,2080],[48.6,2159],[48.6,2239],[48.6,2320],[48.6,2400],[48.6,2480],[48.6,2560],[48.6,2640],[48.6,2720],[48.6,2800],[48.6,2880],[48.6,2960],[48.6,3040],[48.6,3120],[48.6,3200],[48.6,3279],[48.6,3359],[48.6,3439],[48.6,3519],[48.6,3599],[48.6,3679],[48.6,3758],[48.6,3839],[48.6,3918],[48.6,3999],[48.6,4079],[48.6,4158],[48.6,4239],[48.2,4319],[45,4399],[36.3,4479],[25.9,4558],[23,4639],[19.8,4718],[5.6,4798],[3.2,4879],[3.2,4959],[3.3,5039],[4.3,5118],[4.8,5199],[4.8,5279],[4.8,5359],[4.8,5439],[4.8,5519],[4.8,5599],[4.8,5679],[4.8,5759],[4.8,5839],[4.8,5919],[4.8,5998],[4.8,6079],[4.8,6159],[4.8,6239],[4.8,6319],[4.9,6400],[4.9,6479],[4.9,6559],[4.9,6639],[4.9,6719],[4.9,6799],[4.9,6879],[4.9,6959],[4.9,7039],[4.9,7119],[4.9,7199],[4.9,7279],[4.9,7358],[4.9,7439],[4.9,7519],[4.9,7599],[4.9,7679],[4.9,7758],[4.9,7839],[4.9,7919],[4.9,7999],[4.9,8079],[4.9,8159],[4.9,8238],[4.9,8318],[4.9,8397],[4.9,8477],[4.9,8557],[4.9,8637],[4.9,8718],[4.9,8797],[4.9,8877],[4.9,8957],[4.9,9037],[4.9,9117],[4.9,9197],[4.9,9277],[4.9,9357],[4.9,9437],[4.9,9517],[4.9,9597],[4.9,9677],[4.9,9758],[4.9,9837],[4.9,9917],[4.9,9997],[4.9,10076]]",1,0,238.452,241.4663,5.923341115,1.6506,"[{""rating"":5.923341115315756,""responseTime"":1.650599999994057}]",space,2.4858,,241.4664,Definitely yes,100,241.4692,,,[],,0,2,2,2,1,audio/Narrative7Situation2.wav,audio/Narrative8Situation2.wav,audio/Narrative5Situation2.wav,audio/Narrative6Situation2.wav,3,3,3,3,,,,,,,,,,,,,,,,,,,,,,,,,,,,,,,,,,,,,,,
,,,,,,631a68ee10ec68377cb03457,2024-02-08_15h20.15.017,group3.1-3.2-social-tom,2023.2.2,MacIntel,72.99270073,65c5074098b851296ff0b7ed,65c5412ded5b1be18443a018,,,,,,,,,,,,,,,,,,,,,,,,,,,,,241.4694,1,audio/Narrative8Situation3.wav,245.4776,,245.4776,267.8554,"[[22.9,1278],[35.4,1518],[27.6,1598],[23.1,1678],[22.3,1758],[22.2,1838],[19.6,1918],[17.5,1998],[17.1,2078],[17.1,2158],[17.1,2237],[17.1,2318],[17.1,2398],[17.1,2478],[17.1,2558],[17.1,2638],[17,2718],[17,2797],[17,2878],[17.9,2958],[25,3038],[44.5,3118],[67.5,3198],[73.3,3278],[78.9,3358],[84.8,3438],[85.2,3517],[85.2,3598],[85.2,3678],[85.2,3758],[85.2,3838],[85.2,3918],[85.2,3998],[85.2,4078],[85.2,4158],[85.2,4238],[85.2,4318],[85.2,4398],[85.2,4478],[85.2,4558],[85.2,4638],[84.9,4718],[81.3,4798],[67.4,4878],[55.4,4958],[45.7,5038],[40.5,5118],[36.9,5198],[32.8,5279],[30.5,5358],[30.1,5437],[29.7,5518],[29.4,5598],[28.5,5678],[28.4,5758],[28.4,5837],[28.4,5918],[28.4,5997],[28.4,6077],[28.4,6157],[28.4,6237],[28.4,6317],[28.4,6397],[28.4,6477],[28.4,6557],[28.4,6636],[28.4,6716],[28.4,6797],[28.4,6877],[28.4,6957],[28.4,7036],[28.4,7117],[28.4,7197],[28.4,7277],[28.4,7356],[28.4,7437],[28.4,7517],[28.4,7597],[28.4,7677],[28.4,7757],[28.4,7836],[28.4,7917],[29,7996],[36.4,8077],[54.8,8156],[74.9,8236],[89.8,8316],[91.5,8396],[94.3,8476],[94.6,8557],[94.6,8637],[94.6,8717],[94.6,8797],[94.6,8877],[94.6,8957],[94.6,9037],[94.6,9117],[94.6,9197],[94.6,9285],[94.6,9386],[94.6,9463],[94.6,9543],[94.6,9623],[94.6,9703],[94.6,9783],[94.6,9863],[94.6,9944],[94.6,10024],[94.6,10103],[94.6,10183],[94.6,10263],[94.6,10343],[94.6,10423],[94.6,10503],[94.6,10583],[94.6,10663],[94.6,10743],[94.6,10823],[94.6,10903],[94.6,10983],[94.6,11063],[94.6,11143],[94.6,11223],[94.6,11302],[94.6,11382],[94.6,11462],[94.6,11542],[94.6,11621],[94.6,11702],[94.6,11782],[94.6,11862],[94.6,11942],[94.5,12022],[93.8,12101],[93.2,12182],[92.9,12262],[92.9,12341],[92.9,12421],[92.9,12501],[92.9,12582],[92.9,12662],[92.9,12742],[92.9,12821],[92.9,12901],[92.9,12982],[92.9,13062],[92.9,13142],[92.9,13222],[92.9,13302],[92.9,13382],[92.9,13462],[92.9,13542],[92.9,13621],[92.9,13702],[92.9,13782],[92.9,13862],[92.9,13942],[92.9,14021],[92.9,14101],[92.9,14182],[92.9,14262],[92.9,14342],[92.9,14422],[92.9,14502],[92.9,14582],[92.9,14662],[92.9,14742],[92.9,14822],[92.9,14901],[92.9,14982],[92.9,15062],[92.9,15142],[92.9,15222],[92.9,15302],[92.9,15382],[92.9,15462],[92.9,15542],[92.9,15621],[92.9,15702],[92.9,15781],[92.3,15862],[90.2,15942],[89.6,16022],[89.6,16102],[89.6,16182],[89.6,16261],[89.6,16340],[89.6,16420],[89.6,16500],[89.6,16581],[89.6,16661],[89.6,16741],[89.6,16821],[89.6,16901],[89.6,16981],[89.6,17061],[89.6,17141],[89.6,17221],[89.6,17301],[89.6,17380],[89.6,17461],[89.6,17541],[89.6,17620],[89.6,17701],[89.6,17781],[89.6,17861],[89.6,17940],[89.6,18021],[89.6,18100],[89.6,18180],[89.6,18261],[89.6,18341],[89.6,18421],[89.6,18501],[89.6,18581],[89.6,18661],[89.6,18740],[89.6,18821],[89.6,18901],[89.6,18981],[89.6,19061],[89.6,19141],[89.6,19221],[89.6,19300],[89.6,19381],[89.6,19461],[89.6,19540],[89.6,19621],[89.6,19701],[89.6,19781],[89.6,19861],[89.6,19941],[89.6,20021],[89.6,20100],[89.6,20181],[89.6,20261],[89.6,20341],[89.6,20420],[89.6,20501],[89.6,20580],[89.6,20661],[89.6,20741],[89.6,20820],[89.4,20901],[85.5,20980],[63.8,21060],[27.1,21140],[17.7,21220],[17.2,21299],[17.1,21379],[17.1,21460],[17.9,21539],[18.7,21619],[19.1,21700],[21.9,21779],[22.7,21859],[22.7,21939],[22.7,22019],[24,22099],[26.5,22179],[27,22259],[27.6,22357]]",1,0,267.8556,290.559,49.01069641,3.5258,"[{""rating"":49.01069641113281,""responseTime"":3.525799999982155}]",space,22.1764,,290.559,Partially,50,290.5701,,,[],,0,3,3,3,1,audio/Narrative7Situation3.wav,audio/Narrative8Situation3.wav,audio/Narrative5Situation3.wav,audio/Narrative6Situation3.wav,8,4,3,5,,,,,,,,,,,,,,,,,,,,,,,,,,,,,,,,,,,,,,,
,,,,,,631a68ee10ec68377cb03457,2024-02-08_15h20.15.017,group3.1-3.2-social-tom,2023.2.2,MacIntel,72.99270073,65c5074098b851296ff0b7ed,65c5412ded5b1be18443a018,,,,,,,,,,,,,,,,,,,,,,,,,,,,,290.5703,1,audio/Narrative8Situation4.wav,293.5708,,293.5708,307.74,"[[49.1,719],[50.8,799],[52.1,879],[52.1,959],[52,1039],[49.2,1119],[37.8,1199],[28.8,1279],[25.3,1359],[23.9,1439],[23.8,1519],[23.8,1599],[23.8,1679],[23.8,1759],[23.8,1839],[23.8,1919],[23.8,1999],[23.8,2079],[23.8,2159],[23.8,2239],[23.8,2319],[23.8,2399],[23.8,2479],[23.8,2559],[24,2639],[47.4,2719],[98.1,3119],[88.3,3199],[87.5,3278],[87.5,3358],[87.5,3438],[88,3518],[88.4,3598],[88.5,3677],[88.5,3758],[88.5,3838],[88.5,3918],[88.5,3998],[88.5,4078],[88.5,4158],[88.5,4238],[88.5,4318],[88.5,4398],[88.5,4477],[88.5,4557],[88.5,4638],[88.5,4718],[88.5,4798],[88.5,4878],[88.4,4957],[88.3,5037],[88.2,5118],[88.1,5198],[88.1,5277],[88,5358],[88,5438],[88,5518],[88,5598],[88,5677],[88,5758],[88,5838],[88,5918],[88,5997],[88,6078],[88,6158],[88,6237],[88,6318],[88,6398],[88,6477],[88,6558],[88,6638],[88,6717],[88,6797],[88,6877],[88,6957],[88,7038],[88,7118],[88,7198],[88,7277],[88,7358],[88,7437],[88,7517],[88,7597],[88,7677],[88,7757],[88,7838],[88,7917],[88,7998],[88,8078],[88,8157],[88,8238],[88,8317],[88,8397],[88,8477],[88,8557],[88,8636],[88,8716],[88,8797],[88,8877],[88,8957],[88,9037],[88,9117],[88,9197],[88,9276],[88,9356],[88,9437],[88,9516],[88,9597],[88,9676],[88,9757],[88,9836],[88,9917],[88,9996],[88,10076],[88,10156],[88,10236],[88,10317],[88,10397],[88,10476],[88,10557],[88,10636],[88,10717],[88,10796],[88,10876],[88,10957],[88,11037],[88,11116],[88,11197],[88,11277],[88,11357],[88,11436],[87.9,11517],[87.9,11596],[87.9,11677],[87.9,11757],[87.9,11836],[87.9,11917],[87.9,11996],[87.8,12077],[87.7,12156],[87.4,12236],[87.3,12316],[87.1,12397],[86.9,12476],[86.8,12557],[86.8,12636],[86.8,12717],[86.8,12797],[86.8,12876],[86.8,12957],[86.8,13037],[86.8,13117],[86.8,13197],[86.8,13275],[86.8,13355],[86.8,13435],[86.8,13515],[86.8,13595],[86.8,13675],[86.8,13755],[86.8,13835],[86.8,13916],[86.8,13995],[86.8,14075],[86.8,14155]]",1,0,307.7403,310.0728,88.8993454,1.4729,"[{""rating"":88.89934539794922,""responseTime"":1.4729000000060068}]",space,1.7997,,310.0728,Not at all,0,310.0749,,,[],,0,4,4,4,1,audio/Narrative7Situation4.wav,audio/Narrative8Situation4.wav,audio/Narrative5Situation4.wav,audio/Narrative6Situation4.wav,3,3,1,2,,,,,,,,,,,,,,,,,,,,,,,,,,,,,,,,,,,,,,,
,,,,,,631a68ee10ec68377cb03457,2024-02-08_15h20.15.017,group3.1-3.2-social-tom,2023.2.2,MacIntel,72.99270073,65c5074098b851296ff0b7ed,65c5412ded5b1be18443a018,,,,,,,,,,,,,,,,,,,,,,,,,,,,,310.0751,1,audio/Narrative8Situation5.wav,312.085,,312.085,320.3364,"[[88.6,1439],[88.5,1520],[88.5,1600],[88.7,1693],[90.3,1773],[90.8,1852],[90.8,1932],[90.8,2012],[90.8,2092],[90.8,2172],[90.8,2252],[90.8,2332],[90.8,2412],[90.8,2492],[90.6,2573],[90.6,2653],[90.6,2733],[90.6,2813],[90.6,2893],[90.6,2972],[90.6,3053],[90.6,3133],[90.6,3213],[90.6,3293],[90.6,3373],[90.6,3453],[90.6,3533],[90.6,3613],[90.6,3692],[90.6,3773],[90.6,3853],[90.6,3932],[90.6,4013],[90.6,4093],[90.6,4173],[90.6,4253],[90.6,4333],[90.6,4413],[90.6,4492],[90.6,4573],[90.6,4653],[90.6,4733],[90.6,4812],[90.6,4891],[90.6,4972],[90.6,5051],[90.6,5132],[90.6,5212],[90.6,5292],[90.6,5372],[90.6,5451],[90.6,5532],[90.6,5612],[90.6,5692],[90.6,5772],[90.6,5851],[90.6,5931],[90.6,6012],[90.6,6092],[90.6,6172],[90.6,6251],[90.6,6332],[90.6,6412],[90.6,6491],[90.6,6572],[90.6,6651],[90.6,6731],[90.6,6811],[90.6,6891],[90.6,6972],[90.6,7052],[90.6,7132],[90.6,7212],[90.6,7291],[90.6,7372],[90.6,7451],[90.6,7531],[90.6,7611],[90.6,7691],[90.6,7772],[90.6,7851],[90.6,7931],[90.6,8011],[90.6,8091],[90.6,8172],[90.6,8251]]",1,0,320.3365,322.6283,89.66237386,1.4521,"[{""rating"":89.66237386067708,""responseTime"":1.4520999999940614}]",space,1.7607,,322.6285,Definitely yes,100,322.6305,,,[],,0,5,5,5,1,audio/Narrative7Situation5.wav,audio/Narrative8Situation5.wav,audio/Narrative5Situation5.wav,audio/Narrative6Situation5.wav,5,2,5,2,,,,,,,,,,,,,,,,,,,,,,,,,,,,,,,,,,,,,,,
,,,,,,631a68ee10ec68377cb03457,2024-02-08_15h20.15.017,group3.1-3.2-social-tom,2023.2.2,MacIntel,72.99270073,65c5074098b851296ff0b7ed,65c5412ded5b1be18443a018,,,,,,,,,,,,,,,,,,,,,,,,,,,,,322.6307,1,audio/Narrative8Situation6.wav,324.6416,,324.6417,331.1073,"[[89.2,2318],[88.3,2399],[88.1,2479],[87.4,2558],[87.1,2638],[86,2719],[85.4,2799],[85.1,2879],[84.7,2959],[84.7,3039],[84.8,3132],[85,3212],[85.2,3292],[85.3,3372],[85.3,3452],[85.3,3532],[85.3,3613],[85.3,3692],[85.3,3772],[85.3,3852],[85.3,3932],[85.3,4012],[85.3,4092],[85.3,4172],[85.3,4252],[85.3,4332],[85.3,4412],[85.3,4492],[85.3,4572],[85.3,4652],[85.3,4732],[85.3,4812],[85.3,4892],[85.3,4972],[85.3,5052],[85.3,5132],[85.3,5212],[85.3,5292],[85.3,5372],[85.3,5452],[85.3,5531],[85.3,5612],[85.3,5692],[85.3,5772],[85.3,5852],[85.3,5931],[85.3,6012],[85.3,6092],[85.3,6172],[85.3,6251],[85.3,6331],[85.3,6412]]",1,0,331.1074,334.8263,85.48688253,1.9274,"[{""rating"":85.48688252766927,""responseTime"":1.927400000005946}]",space,3.1901,,334.8264,Partially,50,334.8285,,,[],,0,6,6,6,1,audio/Narrative7Situation6.wav,audio/Narrative8Situation6.wav,audio/Narrative5Situation6.wav,audio/Narrative6Situation6.wav,3,2,3,2,,,,,,,,,,,,,,,,,,,,,,,,,,,,,,,,,,,,,,,
,,,,,,631a68ee10ec68377cb03457,2024-02-08_15h20.15.017,group3.1-3.2-social-tom,2023.2.2,MacIntel,72.99270073,65c5074098b851296ff0b7ed,65c5412ded5b1be18443a018,,,,,,,,,,,,,,,,,,,,,,,,,,,,,334.8288,1,audio/Narrative8Situation7.wav,337.8383,,337.8383,349.9292,"[[85.5,2079],[85.5,2159],[83.9,2239],[83.3,2319],[82.2,2399],[78.3,2479],[78.9,2559],[80.6,2639],[80.7,2719],[81.5,2799],[81.6,2879],[81.6,2959],[82,3039],[82.7,3119],[82.7,3199],[82.7,3279],[82.7,3359],[82.7,3439],[82.7,3519],[82.7,3600],[82.7,3679],[82.7,3759],[82.7,3839],[82.7,3940],[82.7,4024],[82.7,4092],[82.7,4171],[82.7,4251],[82.7,4331],[82.7,4411],[82.7,4491],[82.7,4571],[82.7,4651],[82.7,4731],[82.7,4811],[82.7,4891],[82.7,4971],[82.7,5051],[82.7,5131],[82.7,5211],[82.7,5291],[82.7,5370],[82.7,5450],[82.7,5531],[82.7,5612],[82.7,5691],[82.7,5771],[82.7,5851],[82.7,5931],[82.7,6011],[82.7,6092],[82.7,6171],[82.7,6251],[82.7,6331],[82.7,6411],[82.7,6491],[82.7,6571],[82.7,6651],[82.7,6731],[82.7,6811],[82.7,6891],[82.7,6971],[82.8,7051],[83.1,7131],[83.1,7211],[83.1,7291],[83.1,7371],[83.1,7451],[83,7531],[82.9,7611],[83,7691],[83.1,7771],[83.2,7851],[83.3,7933],[83.4,8012],[83.4,8092],[83.4,8172],[83.4,8251],[83.4,8331],[83.4,8411],[83.4,8491],[83.4,8571],[83.4,8651],[83.4,8732],[83.4,8812],[83.4,8892],[83.4,8971],[83.4,9051],[83.4,9129],[83.4,9210],[83.4,9291],[83.4,9370],[83.4,9450],[83.4,9529],[83.5,9611],[83.5,9689],[83.5,9770],[83.5,9851],[83.5,9930],[83.5,10010],[83.5,10090],[83.5,10170],[83.5,10250],[83.5,10330],[83.5,10410],[83.5,10490],[83.5,10570],[83.5,10649],[83.5,10730],[83.5,10810],[83.5,10890],[83.5,10970],[83.5,11050],[83.5,11130],[83.5,11210],[83.5,11289],[83.5,11370],[83.5,11450],[83.5,11529],[83.5,11610],[83.5,11690],[83.5,11770],[83.5,11850],[83.5,11930],[83.5,12010],[83.5,12090]]",1,0,349.9294,351.3024,83.54662577,0.2062,"[{""rating"":83.54662577311198,""responseTime"":0.20619999998802996}]",space,0.841,,351.3025,Not at all,0,351.3046,,,[],,0,7,7,7,1,audio/Narrative7Situation7.wav,audio/Narrative8Situation7.wav,audio/Narrative5Situation7.wav,audio/Narrative6Situation7.wav,5,3,4,5,,,,,,,,,,,,,,,,,,,,,,,,,,,,,,,,,,,,,,,
,,,,,,631a68ee10ec68377cb03457,2024-02-08_15h20.15.017,group3.1-3.2-social-tom,2023.2.2,MacIntel,72.99270073,65c5074098b851296ff0b7ed,65c5412ded5b1be18443a018,,,,,,,,,,,,,,,,,,,,,,,,,,,,,351.3049,1,audio/Narrative8Situation8.wav,354.3139,,354.3139,367.163,"[[83.8,4878],[84.1,4958],[84.4,5038],[84.4,5118],[84.4,5198],[84.4,5278],[84.4,5358],[84.4,5439],[84.4,5518],[84.5,5598],[84.6,5678],[84.6,5758],[84.6,5839],[84.6,5918],[84.6,5998],[84.6,6078],[84.6,6158],[84.5,6238],[84.5,6318],[84.5,6398],[84.5,6478],[83.7,6558],[83.3,6638],[83.3,6718],[83.3,6799],[83.7,6878],[83.9,6959],[83.9,7038],[83.9,7119],[83.9,7198],[83.9,7279],[83.9,7358],[83.9,7439],[83.8,7519],[83.7,7598],[83.7,7677],[83.7,7757],[83.7,7836],[83.7,7917],[83.7,7997],[83.7,8076],[83.7,8157],[83.7,8236],[83.7,8317],[83.7,8396],[83.7,8477],[83.7,8557],[83.8,8637],[83.8,8717],[83.8,8797],[83.9,8877],[83.9,8957],[84,9036],[84,9117],[84,9196],[84,9276],[84,9357],[84,9436],[84,9516],[84,9596],[84,9676],[84,9756],[84,9836],[84,9916],[84,9997],[84,10076],[84,10156],[84,10237],[84,10316],[84,10396],[84,10476],[84,10557],[84,10637],[84,10717],[84,10796],[84,10877],[84,10956],[84,11036],[84,11116],[84.1,11197],[84.4,11277],[84.5,11357],[84.9,11478],[84.9,11557],[85,11637],[85.1,11717],[85.2,11797],[85.3,11877],[85.4,11956],[85.4,12036],[85.4,12116],[85.4,12197],[85.4,12276],[85.4,12356],[85.4,12437],[85.4,12516],[85.4,12596],[85.4,12675],[85.4,12756],[85.4,12836]]",1,0,367.1631,368.8704,86.49278005,1.7045,"[{""rating"":86.49278004964192,""responseTime"":1.704499999999996}]",space,0.1742,,368.8705,Not at all,0,368.8721,,,[],,0,8,8,8,1,audio/Narrative7Situation8.wav,audio/Narrative8Situation8.wav,audio/Narrative5Situation8.wav,audio/Narrative6Situation8.wav,2,3,3,5,,,,,,,,,,,,,,,,,,,,,,,,,,,,,,,,,,,,,,,
,,,,,,631a68ee10ec68377cb03457,2024-02-08_15h20.15.017,group3.1-3.2-social-tom,2023.2.2,MacIntel,72.99270073,65c5074098b851296ff0b7ed,65c5412ded5b1be18443a018,,,,,,,,,,,,,,,,,,,,,,,,,,,,,368.8723,1,audio/Narrative8Situation9.wav,371.8831,,371.8831,383.1989,"[[86.5,1677],[86.5,1758],[86.5,1838],[86.5,1918],[86.4,1998],[86.4,2078],[86.4,2158],[86.6,2238],[86.9,2317],[86.9,2398],[86.9,2478],[86.9,2558],[86.9,2638],[86.9,2718],[86.9,2798],[86.9,2877],[86.9,2958],[86.9,3038],[86.9,3118],[86.9,3198],[86.9,3278],[86.9,3358],[86.9,3438],[87,3518],[87.1,3598],[87.2,3678],[87.6,3759],[88,3838],[88.2,3918],[88.2,3998],[88.2,4078],[88.2,4158],[88.2,4238],[88.2,4318],[88.2,4398],[88.2,4478],[88.2,4557],[88.2,4639],[88.2,4718],[88.2,4798],[88.2,4878],[88.2,4958],[88.2,5038],[88.2,5118],[88.2,5196],[88.2,5276],[88.2,5356],[88.2,5436],[88.2,5517],[88.2,5596],[88.2,5676],[88.2,5757],[88.2,5836],[88.2,5917],[88.2,5997],[88.2,6076],[88.2,6157],[88.2,6237],[88.2,6316],[88.2,6396],[88.2,6477],[88.2,6556],[88.2,6636],[88.2,6716],[88.2,6797],[88.2,6876],[88.2,6957],[88.2,7036],[88.2,7116],[88.2,7196],[88.2,7277],[88.2,7357],[88.2,7436],[88.2,7516],[88.2,7597],[88.2,7677],[88.2,7756],[88.2,7836],[88.2,7917],[88.2,7996],[88.2,8076],[88.2,8157],[88.2,8237],[88.2,8317],[88.2,8396],[88.2,8476],[88.2,8557],[88.2,8636],[88.2,8716],[88.2,8797],[88.2,8876],[88.2,8956],[88.2,9037],[88.2,9116],[88.2,9197],[88.2,9276],[88.2,9357],[88.2,9437],[88.2,9516],[88.2,9597],[88.5,9677],[89.2,9757],[89.5,9836],[89.5,9916],[89.5,9996],[89.6,10076],[89.6,10155],[89.6,10235],[89.6,10315],[89.6,10395],[89.6,10475],[89.6,10556],[89.6,10635],[89.6,10715],[89.6,10795],[89.6,10875],[89.6,10955],[89.6,11035],[89.6,11115],[89.6,11195],[89.6,11275]]",1,0,383.199,384.5059,89.39655304,0.9243,"[{""rating"":89.39655303955078,""responseTime"":0.9242999999821109}]",space,0.7736,,384.506,Definitely yes,100,384.5079,,,[],,0,9,9,9,1,audio/Narrative7Situation9.wav,audio/Narrative8Situation9.wav,audio/Narrative5Situation9.wav,audio/Narrative6Situation9.wav,2,3,3,4,,,,,,,,,,,,,,,,,,,,,,,,,,,,,,,,,,,,,,,
,,,,,,631a68ee10ec68377cb03457,2024-02-08_15h20.15.017,group3.1-3.2-social-tom,2023.2.2,MacIntel,72.99270073,65c5074098b851296ff0b7ed,65c5412ded5b1be18443a018,,,,,,,,,,,,,,,,,,,,,,,,,,,,,384.5081,1,audio/Narrative7Situation1.wav,386.5194,,386.5194,442.4095,"[[89.4,957],[89.4,1037],[88.8,1117],[88.7,1197],[88.7,1278],[88.9,1357],[89.1,1437],[89.1,1517],[89.1,1598],[89.1,1678],[89.1,1757],[89.1,1837],[89.1,1918],[89.1,1997],[89.1,2077],[89.1,2158],[89.1,2237],[89.1,2317],[89.1,2398],[89.1,2478],[89.1,2557],[89.1,2638],[89.1,2717],[89.1,2798],[89.1,2878],[89.1,2958],[89.1,3038],[89.1,3117],[89.1,3198],[89.1,3278],[89.1,3358],[89.1,3437],[89.1,3518],[89.1,3597],[89.4,3677],[89.6,3757],[89.6,3837],[89.6,3918],[89.6,3998],[89.6,4078],[89.6,4157],[89.6,4238],[89.6,4317],[89.6,4397],[89.6,4478],[89.3,4557],[88.9,4637],[88.7,4718],[88.6,4798],[87.7,4878],[80.4,4958],[76.3,5037],[73.3,5117],[62.7,5198],[51.5,5277],[49.1,5357],[47.9,5438],[47.9,5518],[49,5596],[49.3,5677],[49.3,5756],[49.3,5836],[49.3,5916],[49.3,5996],[49.3,6076],[49.3,6156],[49.5,6236],[50.9,6316],[52.8,6396],[52.8,6476],[52.8,6556],[52.8,6636],[52.4,6716],[51.9,6796],[51.9,6876],[51.8,6956],[51.8,7036],[51.8,7116],[51.8,7196],[51.8,7276],[51.8,7356],[51.8,7436],[51.8,7516],[51.8,7597],[51.8,7677],[51.8,7756],[51.8,7836],[51.8,7916],[51.8,7996],[51.8,8076],[51.8,8156],[51.8,8237],[51.8,8316],[51.8,8396],[51.8,8476],[52.1,8556],[59.7,8636],[85.4,8716],[90.6,8796],[92.1,8876],[93.9,8956],[93.9,9037],[93,9116],[92.7,9196],[92.7,9276],[92.7,9356],[92.7,9436],[92.7,9516],[92.7,9596],[92.7,9676],[92.7,9757],[92.7,9836],[92.7,9916],[92.7,9996],[92.7,10076],[92.7,10157],[92.7,10237],[92.7,10316],[92.7,10396],[92.7,10476],[92.7,10555],[92.7,10635],[92.7,10715],[92.7,10795],[92.7,10875],[92.7,10955],[92.7,11035],[92.7,11115],[92.7,11195],[92.7,11275],[92.7,11355],[92.7,11435],[92.7,11514],[92.7,11594],[92.7,11675],[92.7,11755],[92.7,11835],[92.7,11915],[92.7,11995],[92.7,12075],[92.7,12155],[92.7,12235],[92.7,12315],[92.7,12395],[92.7,12475],[92.7,12555],[92.7,12635],[92.7,12715],[92.7,12795],[92.7,12875],[92.7,12956],[92.7,13035],[92.7,13115],[92.7,13195],[92.7,13275],[92.7,13355],[92.7,13435],[92.7,13515],[92.7,13595],[92.7,13675],[92.7,13755],[92.7,13835],[92.7,13915],[92.7,13994],[92.7,14075],[92.7,14155],[92.7,14235],[92.7,14315],[92.7,14395],[92.7,14475],[92.7,14555],[92.7,14635],[92.7,14715],[92.7,14795],[92.7,14875],[92.7,14955],[92.7,15035],[92.7,15115],[92.7,15195],[92.7,15275],[92.7,15355],[92.4,15434],[91.5,15515],[91.3,15593],[91.3,15673],[91.6,15754],[91.7,15833],[91.7,15913],[91.3,15993],[90,16073],[89.5,16154],[89.3,16233],[89.1,16314],[89.1,16393],[89.1,16474],[89.1,16554],[89.1,16634],[89.1,16713],[89.1,16794],[89.1,16874],[89.1,16954],[89.1,17033],[89.1,17114],[89.1,17194],[89.1,17273],[89.1,17354],[89.1,17434],[89.1,17514],[89.1,17593],[89.1,17673],[89.1,17754],[89.1,17833],[89.1,17913],[89.1,17994],[89.1,18074],[89.1,18154],[89.1,18233],[89.1,18314],[89.1,18393],[89.1,18474],[89.1,18554],[89.1,18633],[89.1,18713],[89.1,18793],[89.1,18873],[89.1,18954],[89.1,19033],[89.1,19113],[89.1,19193],[89.1,19308],[89.1,19380],[89.1,19460],[89.1,19540],[89.1,19620],[89.1,19701],[89.1,19780],[89.1,19860],[89.1,19940],[89.1,20021],[89.1,20100],[89.1,20180],[89.1,20260],[89.1,20340],[89.1,20420],[89.1,20501],[89.1,20579],[89.1,20658],[89.1,20739],[89.1,20818],[89.1,20899],[89.1,20979],[89,21059],[88.9,21139],[88.9,21219],[88.2,21299],[74.1,21379],[41,21459],[16.9,21538],[8,21619],[2,21858],[3.5,21939],[3.5,22019],[3.7,22098],[5.5,22179],[6.9,22259],[6.9,22339],[7.3,22418],[7.7,22499],[7.8,22579],[7.8,22659],[7.8,22738],[7.8,22819],[7.8,22899],[7.8,22979],[7.8,23059],[7.8,23139],[7.8,23219],[7.8,23298],[7.8,23379],[7.8,23459],[7.8,23539],[7.8,23619],[7.8,23699],[7.8,23779],[7.8,23859],[7.8,23939],[7.8,24019],[7.8,24099],[7.8,24179],[7.8,24258],[7.8,24339],[7.8,24419],[7.8,24499],[7.8,24579],[7.8,24659],[7.8,24739],[7.8,24819],[7.8,24898],[7.8,24979],[7.8,25059],[7.8,25139],[7.8,25218],[7.8,25299],[7.8,25379],[7.8,25458],[7.8,25539],[7.8,25617],[7.8,25697],[7.8,25777],[7.8,25857],[7.8,25937],[7.8,26018],[7.8,26097],[7.8,26177],[7.8,26257],[7.8,26338],[7.8,26417],[7.8,26497],[7.8,26577],[7.8,26657],[7.8,26738],[7.8,26817],[7.8,26897],[7.8,26977],[7.8,27058],[7.8,27137],[7.8,27217],[7.8,27297],[7.8,27377],[7.8,27457],[7.8,27537],[7.8,27618],[7.8,27697],[7.8,27777],[7.8,27857],[7.8,27937],[7.8,28017],[7.8,28098],[7.8,28177],[7.8,28257],[7.8,28338],[7.8,28418],[7.8,28498],[7.8,28577],[7.8,28657],[7.8,28737],[7.8,28818],[7.8,28898],[7.8,28978],[7.8,29057],[7.8,29137],[7.8,29218],[7.8,29297],[7.8,29377],[7.8,29457],[7.8,29537],[7.8,29617],[7.8,29697],[7.8,29777],[7.8,29858],[7.8,29937],[7.8,30017],[7.8,30097],[7.8,30177],[7.8,30257],[7.8,30337],[7.8,30418],[7.8,30497],[7.8,30577],[7.8,30656],[7.8,30736],[7.8,30816],[7.8,30896],[7.8,30976],[7.8,31056],[7.8,31136],[7.8,31216],[7.8,31296],[7.8,31376],[7.8,31456],[7.8,31537],[7.8,31616],[7.8,31696],[7.8,31776],[7.8,31856],[7.8,31936],[7.8,32016],[7.8,32096],[7.8,32176],[7.8,32256],[7.8,32336],[7.8,32416],[7.8,32496],[7.8,32576],[7.8,32656],[7.8,32736],[7.8,32816],[7.8,32896],[7.8,32976],[7.8,33056],[7.8,33136],[7.8,33216],[7.8,33296],[7.8,33376],[7.8,33456],[7.8,33536],[7.8,33616],[7.8,33696],[7.8,33776],[8.1,33856],[12.2,33936],[34.1,34016],[72.8,34096],[93.2,34176],[94.3,34256],[98.2,34336],[100,34416],[100,34496],[98.9,34576],[96.9,34656],[96.6,34736],[96.4,34817],[95.9,34896],[95.2,34976],[95,35056],[95,35136],[95,35216],[95,35296],[95,35376],[95,35456],[95,35536],[95,35615],[94.8,35694],[94.6,35775],[94.6,35854],[94.5,35935],[94.5,36015],[94.5,36094],[94.5,36175],[94.5,36254],[94.5,36335],[94.5,36414],[94.5,36494],[94.5,36574],[94.5,36654],[94.5,36734],[94.5,36815],[94.5,36894],[94.5,36974],[94.5,37054],[94.5,37134],[94.5,37215],[94.5,37294],[94.5,37375],[94.5,37455],[94.5,37535],[94.5,37615],[94.5,37695],[94.5,37775],[94.5,37855],[94.5,37935],[94.5,38015],[94.5,38095],[94.5,38174],[94.5,38255],[94.5,38334],[94.5,38415],[94.5,38495],[94.5,38575],[94.5,38655],[94.5,38735],[94.5,38815],[94.5,38894],[94.5,38975],[94.5,39054],[94.5,39134],[94.5,39214],[94.5,39294],[94.5,39375],[94.5,39455],[94.5,39535],[94.5,39615],[94.5,39694],[94.5,39774],[94.5,39855],[94.5,39934],[94.5,40015],[94.5,40095],[94.5,40175],[94.5,40255],[94.5,40335],[94.5,40415],[94.5,40494],[94.5,40574],[94.5,40654],[94.5,40733],[94.5,40813],[94.5,40893],[94.5,40973],[94.5,41053],[94.5,41134],[94.5,41213],[94.5,41293],[94.5,41373],[94.5,41453],[94.5,41533],[94.5,41613],[94.5,41693],[94.5,41773],[94.5,41853],[94.5,41933],[94.5,42013],[94.5,42093],[94.5,42173],[94.5,42253],[94.5,42333],[94.5,42413],[94.4,42493],[94.2,42573],[93.8,42654],[93.5,42733],[93.4,42813],[93.4,42894],[93.4,42973],[93.4,43053],[93.4,43134],[93.4,43214],[93.4,43293],[93.4,43373],[93.4,43454],[93.4,43533],[93.4,43614],[93.4,43693],[93.4,43774],[93.4,43853],[93.4,43934],[93.4,44013],[93.4,44093],[93.4,44173],[93.4,44253],[93.4,44333],[93.4,44413],[93.4,44493],[93.4,44573],[93.4,44653],[93.4,44733],[93.4,44813],[93.4,44893],[93.4,44973],[93.4,45053],[93.4,45133],[93.4,45214],[93.4,45293],[93.4,45373],[93.4,45453],[93.4,45533],[93.4,45612],[93.4,45692],[93.4,45772],[93.4,45852],[93.4,45932],[93.4,46012],[93.4,46092],[93.4,46172],[93.4,46252],[93.4,46332],[93.4,46412],[93.4,46492],[93.4,46572],[93.4,46652],[93.4,46732],[93.4,46812],[93.4,46892],[93.4,46972],[93.4,47052],[93.4,47132],[93.4,47215],[93.4,47292],[93.4,47372],[93.4,47452],[93.4,47532],[93.4,47612],[93.4,47693],[93.4,47772],[93.4,47852],[93.4,47932],[93.4,48012],[93.4,48092],[93.4,48172],[93.4,48252],[93.4,48332],[93.4,48412],[93.4,48492],[93.4,48572],[93.4,48652],[93.4,48732],[93.4,48812],[93.4,48892],[93.4,48972],[93.4,49052],[93.4,49132],[93.4,49212],[93.4,49292],[93.4,49372],[93.4,49452],[93.4,49531],[93.4,49611],[93.4,49691],[93.4,49772],[93.4,49852],[93.4,49932],[93.4,50011],[93.4,50093],[93.4,50171],[93.4,50252],[93.4,50332],[93.4,50412],[93.4,50491],[93.4,50572],[93.4,50651],[93.4,50731],[93.4,50810],[93.4,50891],[93.4,50971],[93.4,51050],[93.4,51130],[93.4,51211],[93.4,51290],[93.4,51370],[93.4,51450],[93.4,51530],[93.4,51610],[93.4,51690],[93.4,51771],[93.4,51851],[93.4,51930],[93.4,52011],[93.4,52090],[93.4,52171],[93.4,52250],[93.4,52331],[93.4,52410],[93.4,52490],[93.4,52571],[93.4,52650],[93.4,52731],[93.4,52811],[93.4,52890],[93.4,52971],[93.4,53051],[93.4,53130],[93.4,53211],[93.4,53291],[93.4,53370],[93.4,53450],[93.4,53531],[93.4,53611],[93.4,53691],[93.4,53771],[93.4,53850],[93.4,53931],[93.4,54011],[93.4,54090],[93.4,54170],[93.4,54250],[93.4,54330],[93.4,54411],[93.4,54491],[93.4,54571],[93.4,54650],[93.4,54730],[93.4,54810],[93.4,54890],[93.4,54971],[93.4,55050],[93.4,55130],[93.4,55210],[93.4,55291],[93.4,55370],[93.4,55450],[93.4,55530],[93.4,55610],[93.4,55689],[93.4,55769],[93.4,55849]]",1,0,442.4099,444.3433,93.38253021,1.3614,"[{""rating"":93.38253021240234,""responseTime"":1.3614000000059718}]",space,1.4082,,444.3434,Partially,50,444.3463,,,[],,0,10,10,10,1,audio/Narrative8Situation1.wav,audio/Narrative7Situation1.wav,audio/Narrative6Situation1.wav,audio/Narrative5Situation1.wav,5,2,2,5,,,,,,,,,,,,,,,,,,,,,,,,,,,,,,,,,,,,,,,
,,,,,,631a68ee10ec68377cb03457,2024-02-08_15h20.15.017,group3.1-3.2-social-tom,2023.2.2,MacIntel,72.99270073,65c5074098b851296ff0b7ed,65c5412ded5b1be18443a018,,,,,,,,,,,,,,,,,,,,,,,,,,,,,444.3466,1,audio/Narrative7Situation2.wav,447.3539,,447.354,454.8332,"[[93.4,1120],[94.7,1200],[95.4,1279],[94,1360],[93.2,1440],[93.2,1520],[93.2,1600],[93.2,1680],[93.2,1760],[93.2,1839],[93.2,1920],[93.2,1999],[93.2,2079],[93.2,2159],[93.2,2240],[93.2,2319],[93.2,2400],[93.2,2480],[93.2,2560],[93.2,2639],[93.2,2719],[93.2,2799],[93.2,2879],[93.2,2959],[93.2,3039],[93.2,3120],[93.2,3200],[93.2,3279],[93.2,3360],[93.2,3439],[93.2,3520],[93.2,3600],[93.2,3680],[93.2,3760],[93.2,3840],[93.2,3920],[93.2,4000],[93.2,4079],[93.2,4159],[93.2,4240],[93.2,4320],[93.2,4400],[93.2,4480],[93.2,4560],[93.2,4640],[93.2,4720],[93.2,4800],[93.2,4879],[93.2,4959],[93.2,5039],[93.2,5119],[93.2,5198],[93.2,5279],[93.2,5359],[93.2,5439],[93.2,5519],[93.2,5599],[93.2,5679],[93.2,5758],[93.2,5839],[93.2,5919],[93.2,5998],[93.2,6079],[93.2,6159],[93.2,6238],[93.2,6319],[93.2,6399],[93.2,6479],[93.2,6559],[93.2,6638],[93.2,6719],[93.2,6798],[93.2,6878],[93.2,6959],[93.2,7038],[93.2,7119],[93.2,7199],[93.2,7278],[93.2,7359],[93.2,7439]]",1,0,454.8333,455.9805,92.95861562,0.7051,"[{""rating"":92.958615620931,""responseTime"":0.7051000000238332}]",space,0.6138,,455.9806,Partially,50,455.9819,,,[],,0,11,11,11,1,audio/Narrative8Situation2.wav,audio/Narrative7Situation2.wav,audio/Narrative6Situation2.wav,audio/Narrative5Situation2.wav,3,3,3,3,,,,,,,,,,,,,,,,,,,,,,,,,,,,,,,,,,,,,,,
,,,,,,631a68ee10ec68377cb03457,2024-02-08_15h20.15.017,group3.1-3.2-social-tom,2023.2.2,MacIntel,72.99270073,65c5074098b851296ff0b7ed,65c5412ded5b1be18443a018,,,,,,,,,,,,,,,,,,,,,,,,,,,,,455.9821,1,audio/Narrative7Situation3.wav,463.9904,,463.9904,473.2416,"[[92.9,1040],[92.5,1119],[92.3,1199],[92.2,1279],[92.2,1359],[92.1,1440],[92.1,1519],[92.1,1599],[91.2,1679],[87.7,1778],[84.4,1892],[70.4,1973],[52.7,2053],[51.7,2134],[51.7,2212],[51.7,2294],[53.9,2372],[67.9,2453],[79.2,2534],[80.7,2613],[81.3,2693],[82.1,2772],[83.1,2853],[83.3,2933],[83.3,3013],[83.8,3092],[84,3172],[84,3251],[84,3331],[84,3411],[84,3492],[84,3571],[84,3651],[84,3732],[84,3811],[84,3891],[84,3971],[84,4051],[83.9,4131],[80.9,4212],[61,4291],[36.8,4372],[23.5,4451],[22.8,4531],[22.7,4611],[21.8,4691],[21.3,4771],[21.3,4851],[23.5,4932],[33.5,5011],[33.4,5091],[29.9,5171],[30.3,5252],[67.5,5331],[95.6,5411],[95.3,5491],[95.3,5571],[95.3,5651],[93.4,5731],[92.4,5811],[92.4,5891],[92.4,5971],[92.4,6051],[92.4,6131],[92.4,6211],[92.4,6291],[92.4,6371],[92.4,6451],[92.4,6531],[92.4,6611],[92.4,6691],[92.4,6772],[92.7,6851],[92.7,6931],[92.7,7011],[92.7,7091],[92.7,7171],[92.7,7251],[92.7,7331],[92.5,7411],[92,7492],[91,7571],[90.5,7652],[90.5,7732],[90.5,7811],[90.5,7892],[90.5,7971],[90.5,8051],[90.5,8131],[90.5,8211],[90.5,8290],[90.5,8370],[90.5,8450],[90.5,8529],[90.5,8610],[90.5,8690],[90.5,8770],[90.5,8850],[90.5,8930],[90.5,9010],[90.5,9090],[90.5,9170],[90.5,9251]]",1,0,473.2417,476.3614,50.89155833,2.7169,"[{""rating"":50.89155832926432,""responseTime"":2.7169000000059214}]",space,2.5892,,476.3614,Definitely yes,100,476.3638,,,[],,0,12,12,12,1,audio/Narrative8Situation3.wav,audio/Narrative7Situation3.wav,audio/Narrative6Situation3.wav,audio/Narrative5Situation3.wav,4,8,5,3,,,,,,,,,,,,,,,,,,,,,,,,,,,,,,,,,,,,,,,
,,,,,,631a68ee10ec68377cb03457,2024-02-08_15h20.15.017,group3.1-3.2-social-tom,2023.2.2,MacIntel,72.99270073,65c5074098b851296ff0b7ed,65c5412ded5b1be18443a018,,,,,,,,,,,,,,,,,,,,,,,,,,,,,476.3641,1,audio/Narrative7Situation4.wav,479.3723,,479.3724,491.1029,"[[51.6,80],[51.6,160],[51.6,240],[51.6,320],[51.6,400],[51.6,480],[51.8,560],[51.8,640],[52.1,721],[52.4,800],[52.4,879],[52.4,959],[52.6,1040],[52.9,1119],[52.9,1200],[53.1,1280],[55,1361],[57.8,1440],[59.2,1521],[61,1600],[63.2,1680],[63.3,1760],[63.1,1840],[59.7,1920],[55.5,2000],[53.4,2080],[53.2,2159],[53.1,2240],[52.7,2319],[52.3,2400],[52.2,2480],[52.2,2560],[52.2,2640],[52.3,2720],[52.5,2800],[52.8,2879],[53,2958],[53,3039],[53,3118],[50.4,3198],[37.5,3279],[27.3,3359],[28.2,3438],[28.3,3519],[28.3,3598],[28.3,3678],[28.3,3758],[27,3838],[19.6,3918],[14.3,3999],[13.9,4078],[12,4159],[9.4,4238],[9.3,4318],[9.3,4398],[9.3,4478],[9.3,4559],[9.3,4638],[9.3,4718],[9.3,4798],[9.3,4878],[9.3,4958],[9.3,5038],[9.3,5119],[9.3,5198],[9.2,5278],[8.3,5359],[8.2,5439],[8.2,5518],[8.3,5599],[8.3,5679],[8.3,5758],[8.3,5839],[8.3,5918],[8.4,5998],[8.4,6078],[8.4,6158],[8.4,6238],[8.4,6318],[8.5,6398],[8.5,6478],[8.5,6558],[8.5,6638],[8.5,6718],[8.5,6799],[8.5,6878],[8.5,6958],[8.5,7038],[8.6,7118],[8.6,7198],[8.6,7278],[8.7,7358],[8.7,7438],[8.7,7518],[8.8,7599],[8.8,7678],[8.8,7758],[8.8,7838],[8.8,7917],[8.8,7997],[8.8,8077],[8.8,8157],[8.8,8237],[8.8,8317],[8.8,8397],[8.8,8477],[8.8,8557],[8.8,8637],[8.8,8717],[8.8,8797],[8.8,8877],[8.8,8957],[8.8,9037],[8.8,9118],[8.8,9197],[8.8,9277],[8.8,9357],[8.8,9437],[8.8,9517],[8.8,9597],[8.8,9677],[8.8,9758],[8.8,9837],[8.8,9917],[8.8,9997],[8.8,10077],[8.8,10157],[8.8,10237],[8.8,10318],[8.8,10397],[8.8,10477],[8.8,10557],[8.8,10637],[8.8,10717],[8.8,10797],[8.8,10877],[8.8,10957],[8.8,11037],[8.8,11117],[8.8,11197],[8.8,11277],[8.8,11358],[8.8,11437],[8.8,11517],[8.8,11597],[8.8,11677]]",1,0,491.103,493.0083,6.178302765,1.3739,"[{""rating"":6.178302764892579,""responseTime"":1.3739000000059605}]",space,1.3778,,493.0083,Not at all,0,493.0103,,,[],,0,13,13,13,1,audio/Narrative8Situation4.wav,audio/Narrative7Situation4.wav,audio/Narrative6Situation4.wav,audio/Narrative5Situation4.wav,3,3,2,1,,,,,,,,,,,,,,,,,,,,,,,,,,,,,,,,,,,,,,,
,,,,,,631a68ee10ec68377cb03457,2024-02-08_15h20.15.017,group3.1-3.2-social-tom,2023.2.2,MacIntel,72.99270073,65c5074098b851296ff0b7ed,65c5412ded5b1be18443a018,,,,,,,,,,,,,,,,,,,,,,,,,,,,,493.0105,1,audio/Narrative7Situation5.wav,498.0212,,498.0212,506.5132,"[[6.4,1679],[7.5,1759],[7.7,1839],[7.8,1919],[7.8,1999],[7.8,2079],[7.8,2159],[7.8,2239],[7.8,2319],[7.8,2398],[7.8,2478],[7.8,2559],[7.8,2639],[7.8,2719],[7.8,2799],[7.8,2879],[7.8,2959],[7.8,3039],[7.8,3119],[7.8,3199],[7.8,3279],[7.8,3359],[7.8,3439],[7.8,3518],[7.8,3598],[7.9,3679],[8.2,3759],[8.2,3839],[8.2,3919],[8.2,3999],[8.2,4079],[8.2,4158],[8,4238],[8,4317],[8.1,4397],[8.3,4477],[8.3,4557],[8.3,4638],[8.3,4718],[8.3,4797],[8.3,4877],[8.3,4957],[8.3,5037],[8.3,5117],[8.3,5198],[8.3,5277],[8.3,5357],[8.4,5437],[8.4,5517],[8.4,5597],[8.4,5677],[8.4,5757],[8.4,5837],[8.4,5917],[8.4,5997],[8.4,6077],[8.4,6157],[8.4,6237],[8.4,6317],[8.4,6398],[8.4,6477],[8.4,6557],[8.4,6638],[8.4,6717],[8.4,6797],[8.4,6878],[8.4,6957],[8.4,7038],[8.4,7117],[8.4,7198],[8.4,7277],[8.4,7357],[8.4,7438],[8.4,7517],[8.4,7598],[8.4,7677],[8.4,7758],[8.4,7837],[8.4,7917],[8.4,7998],[8.4,8077],[8.4,8157],[8.4,8238],[8.4,8317],[8.4,8397],[8.4,8477]]",1,0,506.5134,507.792,8.446210225,0.3793,"[{""rating"":8.44621022542318,""responseTime"":0.37929999998209496}]",space,0.7563,,507.7921,Definitely yes,100,507.794,,,[],,0,14,14,14,1,audio/Narrative8Situation5.wav,audio/Narrative7Situation5.wav,audio/Narrative6Situation5.wav,audio/Narrative5Situation5.wav,2,5,2,5,,,,,,,,,,,,,,,,,,,,,,,,,,,,,,,,,,,,,,,
,,,,,,631a68ee10ec68377cb03457,2024-02-08_15h20.15.017,group3.1-3.2-social-tom,2023.2.2,MacIntel,72.99270073,65c5074098b851296ff0b7ed,65c5412ded5b1be18443a018,,,,,,,,,,,,,,,,,,,,,,,,,,,,,507.7942,1,audio/Narrative7Situation6.wav,510.805,,510.805,520.775,"[[8.7,1039],[8.7,1119],[8.7,1200],[8.7,1279],[8.7,1359],[8.7,1439],[9.6,1519],[12,1598],[14.4,1677],[19.4,1757],[32.7,1838],[57.1,1917],[73.9,1998],[79.1,2077],[81.9,2157],[81.9,2237],[81.9,2318],[81.9,2397],[81.9,2477],[81.9,2558],[81.9,2637],[82.7,2718],[83.9,2798],[84.1,2878],[85.2,2958],[87.1,3038],[88.3,3117],[89.2,3197],[89.7,3277],[89.8,3357],[89.8,3437],[89.8,3517],[89.8,3597],[89.8,3677],[89.8,3758],[89.8,3837],[89.8,3917],[89.8,3998],[89.8,4077],[89.8,4157],[89.8,4238],[89.8,4318],[89.8,4398],[89.8,4477],[89.8,4557],[89.8,4637],[89.8,4717],[89.8,4798],[89.8,4878],[89.8,4957],[89.8,5038],[89.8,5117],[89.8,5197],[89.8,5277],[89.8,5357],[89.8,5437],[89.8,5518],[89.8,5598],[89.8,5678],[89.8,5758],[89.8,5837],[89.8,5917],[89.8,5998],[89.8,6078],[89.8,6158],[89.8,6238],[89.8,6318],[89.8,6398],[89.8,6478],[89.8,6556],[89.8,6637],[89.8,6717],[89.8,6796],[89.8,6877],[89.8,6956],[89.8,7037],[89.8,7116],[89.8,7197],[89.8,7277],[89.8,7357],[89.8,7437],[89.8,7517],[89.8,7597],[89.8,7676],[89.8,7757],[89.8,7836],[89.8,7916],[89.8,8010],[89.8,8090],[89.8,8170],[89.8,8250],[89.8,8329],[89.8,8409],[89.8,8490],[89.8,8569],[89.8,8649],[89.8,8730],[89.8,8810],[89.8,8890],[89.8,8969],[89.8,9049],[89.8,9130],[89.8,9210],[89.8,9289],[89.8,9370],[89.8,9450],[89.8,9530],[89.8,9609],[89.8,9689],[89.8,9769],[89.5,9849],[89.4,9930]]",1,0,520.775,523.1069,89.74737803,1.904,"[{""rating"":89.74737803141277,""responseTime"":1.9039999999999964}]",space,1.8012,,523.1069,Definitely yes,100,523.1081,,,[],,0,15,15,15,1,audio/Narrative8Situation6.wav,audio/Narrative7Situation6.wav,audio/Narrative6Situation6.wav,audio/Narrative5Situation6.wav,2,3,2,3,,,,,,,,,,,,,,,,,,,,,,,,,,,,,,,,,,,,,,,
,,,,,,631a68ee10ec68377cb03457,2024-02-08_15h20.15.017,group3.1-3.2-social-tom,2023.2.2,MacIntel,72.99270073,65c5074098b851296ff0b7ed,65c5412ded5b1be18443a018,,,,,,,,,,,,,,,,,,,,,,,,,,,,,523.1083,1,audio/Narrative7Situation7.wav,528.1192,,528.1192,545.2879,"[[88.9,959],[87.9,1039],[87.8,1120],[87.8,1199],[87.9,1279],[87.9,1359],[87.9,1440],[87.9,1519],[87.9,1599],[87.9,1679],[87.9,1759],[87.9,1839],[87.9,1919],[87.9,1999],[87.9,2079],[87.9,2159],[87.9,2240],[87.9,2319],[87.9,2399],[87.9,2479],[87.9,2559],[87.9,2639],[87.9,2719],[87.9,2799],[87.9,2880],[87.9,2959],[87.9,3039],[87.9,3119],[87.9,3199],[87.9,3279],[87.9,3359],[87.9,3440],[87.9,3520],[87.9,3599],[87.9,3679],[87.9,3759],[87.9,3840],[87.9,3920],[87.9,3999],[87.9,4079],[87.9,4160],[87.9,4239],[87.9,4318],[87.9,4398],[87.9,4478],[87.9,4558],[87.9,4638],[87.9,4718],[87.9,4797],[87.9,4877],[87.9,4958],[87.9,5038],[87.9,5118],[87.9,5198],[87.9,5278],[87.9,5358],[87.9,5438],[87.9,5518],[87.9,5597],[87.9,5678],[87.9,5758],[87.9,5838],[87.9,5918],[87.9,5998],[87.9,6077],[87.9,6158],[87.9,6238],[87.9,6317],[87.9,6397],[87.9,6478],[87.9,6558],[87.9,6637],[87.9,6718],[87.9,6798],[87.9,6878],[87.9,6958],[87.9,7038],[87.9,7118],[87.9,7198],[87.9,7278],[87.9,7358],[87.9,7437],[87.9,7518],[87.9,7598],[87.9,7677],[87.9,7758],[87.9,7838],[87.9,7918],[87.9,7997],[87.9,8078],[87.9,8158],[87.9,8237],[87.9,8318],[87.9,8398],[87.9,8478],[87.9,8558],[87.9,8638],[87.9,8718],[87.9,8798],[87.9,8878],[87.9,8958],[87.9,9038],[87.9,9118],[87.9,9197],[87.9,9277],[87.9,9357],[87.9,9436],[87.9,9516],[87.9,9596],[87.9,9676],[87.9,9756],[87.9,9836],[87.9,9917],[87.9,9996],[87.9,10077],[87.9,10156],[87.9,10236],[87.9,10317],[87.9,10396],[87.9,10476],[87.9,10556],[87.9,10636],[87.9,10716],[87.9,10797],[87.9,10876],[87.9,10956],[87.9,11036],[87.9,11116],[87.9,11196],[87.9,11276],[87.9,11356],[87.9,11437],[87.9,11516],[87.9,11596],[87.9,11676],[87.9,11756],[87.9,11836],[87.9,11917],[87.9,11996],[87.9,12076],[87.9,12156],[87.9,12236],[87.9,12316],[87.9,12396],[87.9,12476],[87.9,12556],[87.9,12637],[87.9,12716],[87.9,12796],[87.9,12876],[87.9,12956],[87.9,13036],[87.9,13116],[87.9,13196],[87.9,13276],[87.9,13357],[87.9,13436],[87.9,13516],[87.9,13596],[87.9,13676],[87.9,13756],[87.9,13836],[87.9,13916],[87.9,13996],[87.9,14077],[87.9,14156],[87.9,14236],[87.9,14316],[87.9,14395],[87.9,14475],[87.9,14556],[87.9,14635],[87.9,14715],[87.8,14795],[87.5,14875],[87,14955],[86.3,15035],[86.1,15116],[86.1,15195],[86.1,15276],[86.1,15355],[86.1,15436],[86.1,15515],[86.1,15595],[86.1,15676],[86.1,15755],[86.1,15835],[86.1,15916],[86.1,15995],[86.1,16075],[86.1,16155],[86.1,16235],[86.1,16315],[86.1,16395],[86.1,16475],[86.1,16555],[86.1,16635],[86.1,16715],[86.1,16796],[86.1,16875],[86.1,16955],[86.1,17036],[86.1,17115]]",1,0,545.288,547.0345,85.0843811,1.275,"[{""rating"":85.08438110351562,""responseTime"":1.2749999999999773}]",space,1.2179,,547.0345,Not at all,0,547.0366,,,[],,0,16,16,16,1,audio/Narrative8Situation7.wav,audio/Narrative7Situation7.wav,audio/Narrative6Situation7.wav,audio/Narrative5Situation7.wav,3,5,5,4,,,,,,,,,,,,,,,,,,,,,,,,,,,,,,,,,,,,,,,
,,,,,,631a68ee10ec68377cb03457,2024-02-08_15h20.15.017,group3.1-3.2-social-tom,2023.2.2,MacIntel,72.99270073,65c5074098b851296ff0b7ed,65c5412ded5b1be18443a018,,,,,,,,,,,,,,,,,,,,,,,,,,,,,547.0368,1,audio/Narrative7Situation8.wav,549.0467,,549.0467,559.0707,"[[85.3,9596],[86.8,9677],[86.9,9757],[86.9,9837],[87.2,9917],[87.6,9997]]",1,0,559.0707,560.9242,87.67022451,0.234,"[{""rating"":87.67022450764973,""responseTime"":0.2340000000000373}]",space,1.3199,,560.9242,Definitely yes,100,560.927,,,[],,0,17,17,17,1,audio/Narrative8Situation8.wav,audio/Narrative7Situation8.wav,audio/Narrative6Situation8.wav,audio/Narrative5Situation8.wav,3,2,5,3,,,,,,,,,,,,,,,,,,,,,,,,,,,,,,,,,,,,,,,
,,,,,,631a68ee10ec68377cb03457,2024-02-08_15h20.15.017,group3.1-3.2-social-tom,2023.2.2,MacIntel,72.99270073,65c5074098b851296ff0b7ed,65c5412ded5b1be18443a018,,,,,,,,,,,,,,,,,,,,,,,,,,,,,560.9272,1,audio/Narrative7Situation9.wav,562.9359,,562.9359,571.5621,"[[85.4,960],[85.4,1039],[85.4,1120],[85.4,1199],[85.4,1279],[85.4,1360],[85.4,1440],[85.4,1519],[85.4,1599],[85.4,1680],[85.4,1760],[85.4,1840],[85.4,1920],[85.4,2000],[85.4,2080],[85.4,2159],[85.4,2239],[85.4,2320],[85.4,2399],[85.4,2480],[85.4,2559],[85.4,2640],[85.4,2719],[85.4,2799],[85.4,2879],[85.4,2959],[85.4,3039],[85.4,3120],[85.4,3199],[85.4,3280],[85.4,3359],[85.4,3439],[85.4,3520],[85.4,3599],[85.4,3679],[85.4,3759],[85.4,3839],[85.4,3919],[85.4,4000],[85.4,4079],[85.4,4159],[85.4,4239],[85.4,4319],[85.4,4399],[85.4,4479],[85.4,4558],[85.4,4639],[85.4,4719],[85.4,4798],[85.4,4878],[85.4,4959],[85.4,5039],[85.4,5119],[85.4,5198],[85.4,5278],[85.4,5359],[85.4,5438],[85.4,5519],[85.4,5598],[85.4,5678],[85.4,5759],[85.4,5839],[85.4,5918],[85.4,5999],[85.4,6078],[85.4,6159],[85.4,6239],[85.4,6318],[85.4,6399],[85.4,6479],[85.4,6559],[85.4,6639],[85.4,6719],[84.9,6798],[84.5,6878],[85.6,6958],[86.1,7038],[86.1,7118],[86.1,7198],[86.1,7279],[86.1,7359],[86.1,7439],[86.1,7519],[86.1,7599],[86.1,7679],[86.1,7758],[86.1,7839],[86.1,7919],[86.1,7999],[86.1,8079],[86.1,8159],[86.1,8239],[86.1,8319],[86.1,8399],[86.1,8478],[86.1,8559]]",1,0,571.5622,575.9738,86.08056386,0.6982,"[{""rating"":86.08056386311848,""responseTime"":0.6982000000178914}]",space,3.8786,,575.9738,Definitely yes,100,590.7823,100,14.0713,"[{""rating"":99.61241404215495,""responseTime"":7.832199999988006},{""rating"":100,""responseTime"":9.116499999999974},{""rating"":100,""responseTime"":14.071299999982102}]",space,0,18,18,18,1,audio/Narrative8Situation9.wav,audio/Narrative7Situation9.wav,audio/Narrative6Situation9.wav,audio/Narrative5Situation9.wav,3,2,4,3,,,14.2847,,,,,,,,,,,,,,,,,,,,,,,,,,,,,,,,,,,,
,,,,,,631a68ee10ec68377cb03457,2024-02-08_15h20.15.017,group3.1-3.2-social-tom,2023.2.2,MacIntel,72.99270073,65c5074098b851296ff0b7ed,65c5412ded5b1be18443a018,,,,,,,,,,,,,,,,,,,,,,,,,,,594.4978,597.0748,597.094,2,audio/Narrative13Situation2.wav,597.0941,,597.0941,626.853,"[[100,1111],[100,1191],[100,1272],[95.7,1351],[57.3,1432],[26,1512],[26.3,1591],[26.6,1671],[26.6,1752],[24.6,1832],[17.2,1912],[14.9,1992],[14.9,2071],[14.8,2152],[14.2,2232],[13.5,2311],[13.4,2391],[13.4,2472],[13.4,2551],[13.4,2631],[13.4,2711],[13.4,2791],[13.4,2871],[13.4,2951],[13.4,3031],[13.4,3112],[13.4,3192],[13.4,3271],[13.4,3352],[13.4,3432],[13.4,3511],[13.4,3591],[13.4,3671],[13.4,3752],[13.4,3831],[13.4,3912],[13.4,3991],[13.4,4072],[13.4,4152],[13.4,4231],[13.4,4311],[13.4,4391],[13.4,4472],[13.4,4552],[13.4,4631],[13.4,4711],[12,4792],[10.5,4871],[10.2,4952],[10.2,5031],[10.2,5111],[10.2,5191],[10.2,5272],[10.2,5351],[10.2,5432],[10.2,5510],[10.2,5591],[10.2,5671],[10.2,5750],[10.2,5830],[10.2,5910],[10.2,5991],[10.2,6071],[10.2,6151],[10.3,6230],[10.3,6310],[10.3,6390],[10.3,6471],[10.3,6550],[10.4,6630],[10.6,6711],[11.4,6790],[11.5,6870],[11.5,6951],[11.7,7030],[12.9,7110],[23.2,7190],[47.5,7270],[69.1,7350],[79,7430],[85,7510],[88.4,7590],[88.7,7670],[88.8,7750],[89.6,7830],[89.9,7910],[89.9,7990],[89.9,8070],[89.9,8150],[89.9,8230],[89.9,8311],[89.9,8391],[89.9,8470],[89.9,8550],[89.9,8630],[89.9,8710],[89.9,8791],[89.9,8870],[89.9,8950],[89.9,9030],[89.9,9110],[89.9,9191],[89.9,9270],[89.9,9350],[89.9,9430],[89.9,9510],[89.9,9590],[89.9,9670],[89.9,9750],[89.9,9830],[89.9,9911],[89.9,9991],[89.9,10071],[89.9,10151],[89.9,10231],[89.9,10310],[89.9,10390],[89.9,10469],[89.9,10549],[89.9,10629],[89.9,10709],[89.9,10788],[89.9,10869],[89.9,10948],[89.9,11029],[89.9,11109],[89.9,11189],[89.9,11269],[89.9,11349],[89.9,11429],[89.9,11509],[89.9,11589],[89.9,11669],[89.9,11749],[89.9,11829],[89.9,11909],[89.9,11989],[89.9,12070],[89.9,12149],[89.9,12229],[89.9,12309],[89.9,12389],[89.9,12469],[89.9,12549],[89.9,12629],[89.9,12709],[89.9,12789],[89.9,12869],[89.9,12949],[89.9,13029],[89.9,13109],[89.9,13189],[89.9,13269],[89.9,13349],[89.9,13429],[89.9,13509],[89.9,13589],[89.9,13669],[89.9,13749],[89.9,13829],[89.9,13909],[89.9,13990],[89.9,14069],[89.9,14150],[89.9,14229],[89.9,14309],[89.9,14390],[89.9,14469],[89.9,14550],[89.9,14629],[89.9,14710],[89.9,14789],[89.9,14870],[89.9,14950],[89.9,15029],[89.9,15110],[89.9,15189],[89.9,15269],[89.8,15349],[83,15429],[60,15508],[30.3,15587],[18.3,15668],[17.7,15748],[15.3,15827],[13,15908],[13,15988],[12.6,16067],[11.7,16147],[11.2,16228],[11.2,16307],[11.2,16388],[11.2,16467],[11.2,16547],[11.2,16628],[11.2,16707],[11.2,16788],[11.2,16868],[11.2,16948],[11.2,17027],[11.2,17107],[11.2,17188],[11.2,17267],[11.2,17349],[11.2,17427],[11.2,17507],[11.2,17588],[11.2,17668],[11.2,17747],[11.2,17827],[11.2,17908],[11.2,17987],[11.2,18068],[11.2,18147],[11.2,18227],[11.2,18307],[11.2,18387],[11.2,18467],[11.2,18547],[11.2,18627],[11.2,18707],[11.2,18788],[11.2,18867],[11.2,18947],[11.2,19027],[11.2,19107],[11.2,19187],[11.2,19267],[11.2,19347],[11.2,19427],[11.2,19508],[11.2,19587],[11.2,19667],[11.2,19747],[11.2,19827],[11.2,19907],[11.2,19987],[11.2,20067],[11.2,20147],[11.2,20227],[11.2,20307],[11.2,20387],[11.2,20468],[11.2,20546],[11.2,20626],[11.2,20706],[11.2,20786],[11.2,20867],[11.2,20946],[11.2,21026],[11.2,21106],[11.2,21186],[11.2,21266],[11.2,21346],[11.2,21426],[11.2,21506],[11.2,21586],[11.2,21666],[11.2,21746],[11.2,21826],[11.2,21906],[11.2,21986],[11.2,22066],[11.2,22146],[11.2,22227],[11.2,22306],[11.9,22386],[14.7,22466],[40.9,22546],[77.1,22626],[81.5,22706],[81.5,22786],[81.5,22866],[81.5,22947],[81.5,23026],[81.6,23106],[81.6,23186],[81.6,23266],[81.6,23346],[81.5,23427],[80.3,23506],[73.1,23586],[47,23672],[21.7,23746],[18.5,23826],[15.2,23906],[11.7,23987],[11,24066],[11,24146],[11,24226],[11,24306],[11,24386],[11,24466],[11,24547],[11,24627],[11,24707],[11,24787],[11,24866],[11,24946],[11,25027],[11,25106],[11,25186],[11,25267],[11,25346],[11,25427],[11,25505],[11,25586],[11,25665],[11,25745],[11,25825],[11,25905],[11,25985],[11,26064],[11,26144],[11,26226],[11,26306],[11,26385],[11,26465],[11,26545],[11,26625],[11,26705],[11,26785],[11,26865],[11,26945],[11,27025],[11,27105],[11,27185],[11,27265],[11,27344],[11,27425],[11,27505],[11,27585],[11,27665],[11,27745],[11,27825],[11,27905],[11,27985],[11,28065],[11,28145],[11,28226],[11,28306],[11,28385],[11,28466],[11,28545],[11,28625],[11,28705],[11,28785],[11,28865],[11,28945],[11,29025],[11,29105],[11,29185],[11,29265],[11,29345],[11,29425],[11,29505],[11,29585],[11,29665],[11,29745]]",1,0,626.8532,626.8634,,,[],,,,626.8634,Partially,50,626.8648,,,[],,0,0,0,0,1,audio/Narrative13Situation2.wav,audio/Narrative13Situation2.wav,audio/Narrative13Situation2.wav,audio/Narrative13Situation2.wav,2,2,2,2,,,,,590.7831,594.4883,space,3.186,,,,,,,,,,,,,,,,,,,,,,,,,,,,,,,
,,,,,,631a68ee10ec68377cb03457,2024-02-08_15h20.15.017,group3.1-3.2-social-tom,2023.2.2,MacIntel,72.99270073,65c5074098b851296ff0b7ed,65c5412ded5b1be18443a018,,,,,,,,,,,,,,,,,,,,,,,,,,,,,626.865,2,audio/Narrative6Situation1.wav,628.8779,,628.8779,655.4583,"[[11.4,800],[11.8,879],[11.8,960],[11.6,1040],[11.4,1119],[11.4,1200],[11.4,1279],[11.4,1360],[11.4,1439],[11.4,1519],[11.4,1599],[11.4,1680],[11.4,1759],[11.4,1840],[11.4,1920],[11.4,1999],[11.4,2079],[11.4,2159],[11.4,2240],[11.4,2319],[11.4,2400],[11.4,2479],[11.4,2560],[11.4,2639],[11.4,2720],[11.4,2799],[11.4,2879],[11.4,2959],[11.4,3039],[11.6,3120],[13.5,3199],[22.1,3279],[31.7,3359],[36.3,3439],[39.6,3520],[42.7,3600],[51.4,3679],[55.6,3758],[55.6,3839],[55.6,3919],[55.6,3999],[55.6,4078],[55.6,4159],[54.8,4238],[54.5,4319],[54.5,4399],[54.5,4479],[54.5,4558],[54.5,4639],[54.5,4731],[54.5,4812],[54.5,4892],[54.5,4972],[54.5,5052],[54.5,5132],[55.2,5211],[64.3,5291],[77.5,5371],[82.2,5451],[84.6,5531],[88.4,5611],[89.4,5692],[89.7,5772],[90.1,5852],[90.1,5932],[90.1,6012],[90.1,6092],[90.1,6172],[90.1,6252],[90.1,6332],[90.1,6411],[90.1,6492],[90.1,6572],[90.1,6652],[90.1,6731],[90.1,6812],[90.1,6892],[90.1,6972],[90.1,7052],[90.1,7132],[90.1,7212],[90.1,7292],[90.1,7372],[90.1,7452],[90.1,7532],[90.1,7611],[90.1,7692],[90.1,7772],[90.1,7851],[89.8,7932],[88.7,8011],[88.4,8092],[88.3,8172],[88.3,8252],[88.3,8331],[88.3,8412],[88.3,8492],[88.3,8572],[88.3,8652],[88.3,8732],[88.3,8811],[88.3,8890],[88.3,8971],[88.3,9050],[88.3,9130],[88.3,9210],[88.3,9290],[88.3,9370],[88.3,9451],[88.3,9531],[88.3,9610],[88.3,9690],[88.3,9770],[88.3,9851],[88.3,9930],[88.3,10010],[88.3,10090],[88.3,10171],[88.3,10250],[88.3,10330],[88.3,10410],[88.3,10490],[88.3,10571],[88.3,10650],[88.3,10730],[88.3,10810],[88.3,10890],[88.3,10971],[88.3,11050],[88.3,11131],[88.3,11211],[88.3,11290],[88.3,11371],[88.3,11450],[88.3,11531],[88.3,11611],[88.3,11691],[88.3,11770],[88.3,11851],[88.3,11930],[88.3,12010],[88.3,12091],[88.3,12170],[88.3,12251],[86.1,12330],[66.3,12410],[38.5,12490],[23.6,12571],[20.1,12650],[15.9,12730],[15.4,12810],[15.4,12895],[15.4,12971],[15.4,13050],[15.4,13131],[15.4,13210],[15.4,13290],[15.4,13370],[15.4,13450],[15.4,13530],[15.4,13610],[15.4,13690],[15.4,13769],[15.4,13848],[15.4,13929],[15.4,14009],[15.4,14089],[15.4,14168],[15.4,14249],[15.4,14329],[15.4,14409],[15.4,14489],[15.5,14570],[15.5,14649],[15.5,14729],[15.5,14809],[15.5,14889],[15.5,14969],[15.5,15050],[15.5,15129],[15.5,15209],[15.5,15289],[15.5,15369],[15.5,15450],[15.5,15529],[15.5,15609],[15.5,15689],[15.5,15769],[15.5,15849],[15.5,15929],[15.5,16009],[15.5,16089],[15.5,16169],[15.5,16249],[15.5,16329],[15.5,16409],[15.5,16489],[15.5,16569],[15.5,16649],[15.5,16729],[15.5,16809],[15.5,16889],[15.5,16968],[15.5,17049],[15.5,17129],[15.5,17209],[15.5,17289],[15.5,17369],[15.5,17449],[15.5,17529],[15.5,17610],[15.5,17689],[15.5,17769],[15.5,17849],[15.5,17929],[15.5,18009],[15.5,18089],[15.5,18169],[15.5,18249],[15.5,18329],[15.5,18408],[15.5,18489],[15.5,18569],[15.5,18649],[15.5,18729],[15.5,18807],[15.5,18888],[15.5,18968],[15.5,19047],[15.5,19128],[15.5,19207],[15.5,19287],[15.5,19368],[15.5,19448],[15.5,19528],[15.5,19608],[15.5,19688],[15.5,19768],[15.5,19847],[15.5,19927],[15.5,20007],[15.5,20088],[15.5,20167],[15.5,20247],[15.5,20328],[15.5,20407],[15.5,20488],[15.5,20567],[15.5,20647],[15.8,20727],[17.1,20807],[21.5,20887],[28.7,20967],[32,21047],[34,21128],[35.5,21207],[36.5,21287],[39.6,21367],[63.5,21447],[86,22647],[87,22728],[87.6,22808],[88.4,22888],[88.6,22968],[88.6,23047],[88.6,23127],[88.6,23208],[88.6,23287],[88.6,23367],[88.7,23448],[88.7,23527],[88.7,23607],[88.7,23688],[88.7,23767],[88.7,23846],[88.7,23926],[88.7,24006],[88.7,24087],[88.7,24166],[88.7,24247],[88.7,24326],[88.7,24406],[88.7,24486],[88.7,24567],[88.7,24647],[88.7,24727],[88.7,24807],[88.7,24886],[88.7,24967],[88.7,25046],[88.7,25127],[88.7,25207],[88.7,25287],[88.7,25367],[88.7,25447],[88.7,25527],[88.7,25607],[88.7,25686],[88.7,25766],[88.7,25847],[88.7,25927],[88.7,26006],[88.7,26087],[88.7,26166],[88.7,26247],[88.7,26327],[88.7,26407],[88.7,26486],[88.7,26566]]",1,0,655.4587,657.6312,83.66465251,1.6398,"[{""rating"":83.66465250651042,""responseTime"":1.6398000000119737}]",space,1.6403,,657.6313,Partially,50,657.6329,,,[],,0,1,1,1,1,audio/Narrative7Situation1.wav,audio/Narrative8Situation1.wav,audio/Narrative5Situation1.wav,audio/Narrative6Situation1.wav,2,5,5,2,,,,,,,,,,,,,,,,,,,,,,,,,,,,,,,,,,,,,,,
,,,,,,631a68ee10ec68377cb03457,2024-02-08_15h20.15.017,group3.1-3.2-social-tom,2023.2.2,MacIntel,72.99270073,65c5074098b851296ff0b7ed,65c5412ded5b1be18443a018,,,,,,,,,,,,,,,,,,,,,,,,,,,,,657.6332,2,audio/Narrative6Situation2.wav,660.6434,,660.6434,689.1423,"[[83.4,559],[83.4,639],[83.3,719],[83.3,799],[83.3,879],[83.2,960],[83.2,1039],[83.1,1120],[83,1199],[82.7,1280],[82.4,1359],[82.2,1439],[82.1,1519],[82.1,1599],[82.1,1679],[82.1,1759],[82.1,1840],[82.1,1919],[82.1,2000],[82.1,2078],[82.1,2157],[82.1,2238],[82.1,2318],[82.1,2397],[82.1,2478],[82.1,2557],[82.1,2638],[82.1,2717],[82.1,2798],[82.1,2878],[82.1,2958],[82.1,3037],[82.1,3118],[82.1,3198],[82.1,3278],[82.1,3358],[82.1,3437],[82.1,3517],[82.1,3598],[82.1,3678],[82.1,3758],[82.1,3838],[82.1,3918],[82.1,3998],[82.1,4078],[82.1,4158],[82.1,4238],[82.1,4318],[82.1,4398],[82.1,4478],[82.1,4558],[82.1,4638],[82.1,4718],[82.1,4798],[82.1,4878],[82.1,4958],[82.1,5038],[82.1,5118],[82.2,5198],[82.4,5278],[82.4,5358],[82.4,5438],[82.4,5518],[82.4,5598],[82.4,5678],[82.4,5758],[82.4,5838],[82.4,5918],[82.4,5998],[82.4,6078],[82.4,6158],[82.4,6238],[82.4,6318],[82.4,6398],[82.4,6479],[82.4,6558],[82.4,6638],[82.4,6718],[82.5,6798],[82.7,6878],[83,6958],[83.3,7038],[83.7,7116],[83.7,7196],[83.7,7277],[83.7,7356],[83.7,7436],[83.7,7516],[83.7,7597],[83.7,7676],[83.7,7756],[83.7,7836],[83.7,7917],[83.7,7997],[83.7,8076],[83.7,8156],[83.7,8236],[83.7,8316],[83.7,8396],[83.7,8476],[83.7,8556],[83.7,8637],[83.7,8717],[83.7,8796],[83.7,8876],[83.7,8956],[83.7,9037],[83.7,9116],[83.7,9196],[83.7,9276],[83.7,9357],[83.7,9436],[83.7,9516],[83.7,9596],[83.7,9677],[83.7,9757],[83.7,9836],[83.7,9917],[83.7,9996],[84.2,10081],[84.6,10157],[83.7,10236],[81.5,10316],[81.5,10396],[83.1,10476],[83.9,10557],[83.9,10637],[83.9,10717],[84,10797],[84,10877],[84,10957],[84,11036],[84,11116],[84,11196],[84,11277],[84,11356],[84,11436],[84,11516],[84,11596],[84,11676],[84,11756],[84,11837],[84,11916],[84,11996],[84,12076],[84,12156],[84,12235],[84,12315],[84,12395],[84,12475],[84,12555],[84,12636],[84,12715],[84,12795],[84,12875],[84,12955],[84,13035],[84,13115],[84,13195],[84,13276],[84,13355],[84,13435],[84,13515],[84,13595],[84,13675],[84,13756],[84,13836],[84,13915],[84,13995],[84,14075],[84,14155],[84,14235],[84,14315],[84,14395],[84,14475],[84,14555],[84,14635],[84,14715],[84,14795],[84,14875],[84,14955],[84,15035],[84,15115],[84,15196],[84,15275],[84,15355],[84,15435],[84,15515],[84,15595],[84,15675],[84,15756],[84,15835],[84,15915],[84,15995],[84,16075],[84,16155],[84,16235],[84,16315],[84,16395],[84,16475],[84,16555],[84,16635],[84,16715],[84,16796],[84,16875],[84,16955],[84,17035],[84,17114],[84,17194],[84,17274],[84,17354],[84,17434],[84,17514],[84,17594],[84,17674],[84,17754],[84,17834],[84,17914],[84,17994],[84,18074],[84,18154],[84,18234],[84,18314],[84,18394],[84,18474],[84,18554],[84,18634],[84,18714],[84,18794],[84,18874],[84,18954],[84,19034],[84,19114],[84,19194],[84,19274],[84,19354],[84,19434],[84,19514],[84,19594],[84,19674],[84,19754],[84,19834],[84.1,19913],[84.2,19993],[84.2,20073],[84.2,20154],[84.2,20234],[84.2,20314],[84.2,20394],[84.2,20474],[84.2,20554],[84.2,20634],[84.2,20714],[84.2,20794],[84.2,20874],[84.2,20953],[84.2,21034],[84.2,21114],[84.2,21194],[84.2,21274],[84.2,21354],[84.2,21434],[84.2,21513],[84.2,21594],[84.2,21674],[84.2,21753],[84.2,21834],[84.2,21914],[84.2,21993],[84.2,22074],[84.2,22152],[84.2,22233],[84.2,22313],[84.2,22392],[84.2,22473],[84.2,22553],[84.2,22632],[84.2,22713],[84.2,22792],[84.2,22872],[84.2,22953],[84.2,23032],[84.2,23112],[84.2,23192],[84.2,23273],[84.2,23352],[84.2,23432],[84.2,23512],[84.2,23592],[84.2,23672],[84.2,23752],[84.2,23832],[84.2,23912],[84.2,23992],[84.2,24072],[84.2,24152],[84.2,24233],[84.2,24312],[84.2,24392],[84.2,24472],[84.2,24552],[84.2,24632],[84.2,24713],[84.2,24793],[84.2,24873],[84.2,24952],[84.2,25032],[84.2,25112],[84.2,25192],[84.2,25272],[84.2,25352],[84.2,25432],[84.1,25512],[84.1,25592],[84.1,25672],[84.1,25752],[84.1,25833],[84.1,25912],[84.1,25992],[84.1,26072],[84.1,26152],[84.1,26232],[84.1,26313],[84.1,26392],[84.1,26472],[84.1,26552],[84.1,26632],[84.1,26712],[84.1,26792],[84.1,26872],[84.1,26952],[84.1,27032],[84.1,27111],[84.1,27191],[84.1,27271],[84.1,27351],[84.1,27431],[84.1,27511],[84.1,27591],[84.1,27671],[84.1,27751],[84.1,27831],[84.1,27911],[84.1,27991],[84.1,28071],[84.1,28151],[84.1,28231],[84.1,28311],[84.1,28391],[84.2,28475]]",1,0,689.1424,693.9269,92.16401418,2.1277,"[{""rating"":89.32383219401041,""responseTime"":1.4745000000000346},{""rating"":92.16401418050131,""responseTime"":2.1276999999880672}]",space,4.2516,,693.927,Definitely yes,100,693.9289,,,[],,0,2,2,2,1,audio/Narrative7Situation2.wav,audio/Narrative8Situation2.wav,audio/Narrative5Situation2.wav,audio/Narrative6Situation2.wav,3,3,3,3,,,,,,,,,,,,,,,,,,,,,,,,,,,,,,,,,,,,,,,
,,,,,,631a68ee10ec68377cb03457,2024-02-08_15h20.15.017,group3.1-3.2-social-tom,2023.2.2,MacIntel,72.99270073,65c5074098b851296ff0b7ed,65c5412ded5b1be18443a018,,,,,,,,,,,,,,,,,,,,,,,,,,,,,693.9291,2,audio/Narrative6Situation3.wav,698.9387,,698.9387,711.5491,"[[89.8,1040],[89.2,1120],[89,1200],[89,1280],[89,1360],[89,1440],[89,1520],[89,1600],[89,1680],[89,1760],[89,1840],[88.6,1920],[82.8,1999],[65,2080],[30.6,2159],[8.3,2239],[6.2,2320],[2.4,2400],[2,2480],[5.7,2560],[7.2,2640],[7.2,2720],[7.2,2799],[7.2,2907],[7.2,2987],[7.7,3066],[8.4,3146],[8.5,3227],[8.5,3307],[8.5,3387],[8.5,3467],[8.5,3546],[8.5,3627],[8.5,3707],[8.5,3787],[8.5,3866],[8.5,3944],[8.5,4025],[8.5,4105],[8.5,4184],[8.5,4265],[8.5,4345],[8.5,4425],[8.5,4505],[8.5,4585],[8.5,4664],[8.5,4745],[8.5,4825],[8.5,4905],[8.5,4985],[8.5,5065],[8.5,5145],[8.5,5225],[8.5,5305],[8.5,5385],[8.5,5465],[8.5,5545],[8.5,5625],[8.5,5705],[8.5,5785],[8.5,5865],[8.5,5945],[8.5,6025],[8.5,6105],[8.5,6185],[8.5,6265],[8.5,6345],[8.5,6425],[8.5,6505],[8.5,6585],[15.8,6665],[54.8,6745],[86.2,6845],[87.9,6918],[88.4,6998],[90.5,7078],[91.1,7158],[91.1,7238],[91.1,7318],[90.9,7398],[90.9,7478],[90.9,7558],[90.9,7638],[90.9,7718],[90.7,7799],[90.6,7879],[90.6,7958],[90.6,8039],[90.6,8118],[90.6,8198],[90.6,8279],[90.6,8359],[90.6,8439],[90.6,8518],[90.6,8599],[90.6,8678],[90.6,8758],[90.6,8838],[90.6,8917],[90.6,8997],[90.6,9077],[90.6,9157],[90.6,9237],[90.6,9317],[90.6,9397],[90.6,9477],[90.6,9557],[90.6,9637],[90.6,9717],[90.6,9797],[90.6,9877],[90.6,9957],[90.6,10037],[90.6,10117],[90.6,10197],[90.6,10277],[90.6,10357],[90.6,10437],[90.6,10517],[90.6,10597],[90.6,10677],[90.6,10757],[90.6,10837],[90.6,10917],[90.6,10997],[90.6,11077],[90.6,11157],[90.6,11237],[90.6,11317],[90.6,11397],[90.6,11477],[90.6,11557],[90.6,11637],[90.6,11717],[90.6,11798],[90.6,11877],[90.6,11957],[90.6,12037],[90.6,12117],[90.6,12197],[90.6,12277],[90.6,12357],[90.6,12437],[90.6,12517],[90.6,12597]]",1,0,711.5493,717.0549,75.64284007,3.2822,"[{""rating"":75.64284006754558,""responseTime"":3.2821999999881655}]",space,4.9719,,717.055,Not at all,0,717.066,,,[],,0,3,3,3,1,audio/Narrative7Situation3.wav,audio/Narrative8Situation3.wav,audio/Narrative5Situation3.wav,audio/Narrative6Situation3.wav,8,4,3,5,,,,,,,,,,,,,,,,,,,,,,,,,,,,,,,,,,,,,,,
,,,,,,631a68ee10ec68377cb03457,2024-02-08_15h20.15.017,group3.1-3.2-social-tom,2023.2.2,MacIntel,72.99270073,65c5074098b851296ff0b7ed,65c5412ded5b1be18443a018,,,,,,,,,,,,,,,,,,,,,,,,,,,,,717.0663,2,audio/Narrative6Situation4.wav,719.0665,,719.0665,731.6773,"[[75.7,3838],[77.8,3918],[78.5,3998],[78,4078],[75.2,4158],[68.8,4238],[65.7,4318],[63.7,4399],[61.3,4478],[59.9,4558],[59.8,4638],[59.8,4718],[59.8,4798],[59.8,4878],[59.9,4958],[60.1,5038],[60.1,5119],[60.1,5198],[60.1,5279],[60.1,5358],[60.1,5438],[60.1,5519],[60.1,5598],[60.1,5678],[60.1,5758],[60.1,5838],[61,5918],[65.6,5999],[74.7,6078],[79.9,6159],[82,6239],[85.1,6318],[86.1,6398],[86.1,6478],[86.1,6558],[86.1,6639],[86.1,6719],[86.1,6798],[86.1,6878],[86.1,6959],[86.1,7038],[86.1,7118],[86,7198],[86,7278],[86,7358],[86,7438],[85.9,7518],[85.8,7599],[85.7,7679],[85.7,7758],[85.7,7838],[85.7,7918],[85.7,7998],[85.7,8078],[85.7,8158],[85.7,8238],[85.7,8319],[85.7,8398],[85.7,8478],[85.7,8558],[85.7,8638],[85.7,8718],[85.7,8797],[85.7,8877],[85.7,8957],[85.7,9037],[85.7,9117],[85.7,9197],[85.7,9277],[85.7,9357],[85.7,9437],[85.7,9516],[85.7,9597],[85.7,9677],[85.7,9757],[85.7,9837],[85.7,9917],[85.7,9997],[85.7,10076],[85.7,10157],[85.7,10237],[85.7,10317],[85.7,10397],[85.7,10477],[85.7,10557],[85.7,10637],[85.7,10717],[85.7,10797],[85.7,10878],[85.7,10957],[85.7,11037],[85.7,11117],[85.7,11197],[85.7,11277],[85.7,11357],[85.5,11437],[84.7,11517],[81.1,11597],[75.7,11677],[74,11757],[74,11837],[74,11917],[74,11997],[74,12077],[74,12157],[74,12238],[74.1,12317],[74.1,12397],[74.1,12477],[74.1,12557]]",1,0,731.6775,737.2888,46.34010951,4.5025,"[{""rating"":65.96702575683594,""responseTime"":1.7574000000059868},{""rating"":46.340109507242836,""responseTime"":4.502500000000055}]",space,5.0783,,737.2888,Definitely yes,100,737.2908,,,[],,0,4,4,4,1,audio/Narrative7Situation4.wav,audio/Narrative8Situation4.wav,audio/Narrative5Situation4.wav,audio/Narrative6Situation4.wav,3,3,1,2,,,,,,,,,,,,,,,,,,,,,,,,,,,,,,,,,,,,,,,
,,,,,,631a68ee10ec68377cb03457,2024-02-08_15h20.15.017,group3.1-3.2-social-tom,2023.2.2,MacIntel,72.99270073,65c5074098b851296ff0b7ed,65c5412ded5b1be18443a018,,,,,,,,,,,,,,,,,,,,,,,,,,,,,737.2909,2,audio/Narrative6Situation5.wav,739.302,,739.302,747.26,"[[55.9,159],[56,239],[56,318],[56,399],[56,479],[56,559],[56,639],[56,720],[56,800],[55.9,878],[54.9,959],[53.7,1039],[52.6,1119],[49.9,1199],[48.5,1279],[48.5,1359],[49.4,1439],[54.6,1539],[56,1619],[76,1692],[94.9,1772],[95.4,1852],[95.4,1932],[95.4,2012],[95.4,2092],[95.4,2172],[95.1,2253],[95,2333],[95,2413],[95,2492],[94.9,2572],[94.7,2653],[94.4,2732],[94,2813],[93.9,2892],[93.9,2973],[93.9,3052],[93.9,3133],[93.9,3212],[93.9,3292],[93.9,3373],[93.9,3453],[93.9,3533],[93.9,3611],[93.9,3691],[93.9,3770],[93.9,3850],[93.9,3930],[93.9,4010],[93.9,4090],[93.9,4171],[93.9,4250],[93.9,4331],[93.9,4411],[93.9,4490],[93.9,4570],[93.9,4650],[93.9,4730],[93.9,4810],[93.9,4890],[93.9,4970],[93.9,5051],[93.9,5130],[93.9,5210],[93.9,5291],[93.9,5370],[93.9,5450],[93.9,5530],[93.9,5610],[93.9,5690],[93.9,5770],[93.9,5850],[93.9,5930],[93.9,6011],[93.9,6090],[93.9,6170],[93.9,6250],[93.9,6330],[93.9,6411],[93.9,6490],[93.9,6571],[93.9,6651],[93.9,6730],[93.9,6810],[93.9,6891],[93.9,6970],[93.9,7051],[93.9,7130],[93.9,7210],[93.9,7291],[93.9,7370],[93.9,7450],[93.9,7530],[93.9,7611],[93.9,7691],[93.9,7770],[93.9,7851],[93.9,7930]]",1,0,747.2601,749.5783,93.28523,2.0289,"[{""rating"":93.2852300008138,""responseTime"":2.028900000005933}]",space,1.791,,749.5784,Partially,50,749.5814,,,[],,0,5,5,5,1,audio/Narrative7Situation5.wav,audio/Narrative8Situation5.wav,audio/Narrative5Situation5.wav,audio/Narrative6Situation5.wav,5,2,5,2,,,,,,,,,,,,,,,,,,,,,,,,,,,,,,,,,,,,,,,
,,,,,,631a68ee10ec68377cb03457,2024-02-08_15h20.15.017,group3.1-3.2-social-tom,2023.2.2,MacIntel,72.99270073,65c5074098b851296ff0b7ed,65c5412ded5b1be18443a018,,,,,,,,,,,,,,,,,,,,,,,,,,,,,749.5816,2,audio/Narrative6Situation6.wav,751.5924,,751.5924,762.6691,"[[92.6,5517],[91.8,5598],[91.7,5677],[91.7,5757],[91.7,5837],[91.7,5918],[91.7,5998],[91.7,6077],[91.7,6157],[91.4,6238],[91.1,6316],[91.1,6396],[91.1,6476],[91.1,6556],[91.1,6636],[91.1,6716],[91.1,6796],[91.1,6877],[91.1,6956],[91.1,7036],[91.1,7117],[91.1,7196],[91.1,7276],[91.1,7356],[91.1,7436],[91.1,7516],[91.1,7596],[91.1,7676],[91.1,7757],[91.1,7836],[91.1,7916],[91.1,7996],[91.1,8076],[91.1,8156],[91.1,8236],[91.1,8317],[91.1,8396],[91.1,8476],[91.1,8556],[91.1,8636],[91.1,8716],[91.1,8796],[91.1,8876],[91.1,8956],[91.1,9037],[91.1,9116],[91.1,9196],[91.1,9276],[91.1,9356],[91.1,9436],[91.1,9516],[91.1,9596],[91.1,9676],[91.1,9756],[91.1,9836],[91.1,9916],[91.1,9996],[91.1,10076],[91.1,10156],[91.1,10236],[91.1,10316],[91.1,10396],[91.1,10476],[91.1,10556],[91.1,10636],[91.1,10716],[91.1,10796],[91.1,10876],[91.1,10956],[91.1,11036]]",1,0,762.6692,764.9906,91.27166748,0.9634,"[{""rating"":91.27166748046875,""responseTime"":0.9634000000058904}]",space,1.7877,,764.9907,Partially,50,764.9921,,,[],,0,6,6,6,1,audio/Narrative7Situation6.wav,audio/Narrative8Situation6.wav,audio/Narrative5Situation6.wav,audio/Narrative6Situation6.wav,3,2,3,2,,,,,,,,,,,,,,,,,,,,,,,,,,,,,,,,,,,,,,,
,,,,,,631a68ee10ec68377cb03457,2024-02-08_15h20.15.017,group3.1-3.2-social-tom,2023.2.2,MacIntel,72.99270073,65c5074098b851296ff0b7ed,65c5412ded5b1be18443a018,,,,,,,,,,,,,,,,,,,,,,,,,,,,,764.9923,2,audio/Narrative6Situation7.wav,769.9999,,769.9999,794.8462,"[[91.1,480],[90.8,560],[90.7,639],[90.6,719],[90.6,800],[90.6,880],[90.6,959],[90.6,1040],[90.6,1120],[90.6,1200],[90.6,1280],[90.6,1359],[90.6,1440],[90.6,1520],[90.6,1600],[90.6,1680],[90.6,1759],[90.6,1839],[90.6,1919],[90.6,2000],[90.6,2079],[90.6,2159],[90.6,2240],[90.6,2320],[90.6,2400],[90.6,2479],[90.6,2560],[90.6,2639],[90.6,2720],[90.6,2800],[90.6,2880],[90.6,2959],[88.6,3038],[64.3,3118],[45.9,3198],[39.5,3278],[17.8,3358],[2.1,3678],[5.3,3758],[5.4,3838],[5.4,3918],[5.7,3998],[6.4,4078],[6.6,4158],[6.6,4238],[6.6,4318],[6.6,4398],[6.6,4478],[6.6,4558],[6.6,4637],[6.6,4717],[6.6,4797],[6.6,4878],[6.6,4957],[6.6,5038],[6.8,5118],[6.8,5197],[6.8,5277],[6.8,5357],[6.8,5437],[6.8,5517],[6.8,5598],[6.8,5678],[6.8,5757],[6.8,5837],[6.8,5917],[6.8,5997],[6.8,6077],[6.8,6157],[6.8,6237],[6.8,6317],[6.8,6398],[6.8,6478],[6.8,6557],[6.8,6637],[6.8,6717],[6.8,6797],[6.8,6878],[6.9,6958],[18.7,7038],[62.7,7118],[97.7,7678],[96.2,7758],[94.3,7838],[93.8,7917],[93.8,7997],[93.8,8076],[93.8,8157],[93.8,8237],[93.8,8317],[93.7,8397],[93.3,8476],[93.1,8557],[93.1,8636],[92.9,8717],[92.9,8796],[92.9,8877],[92.9,8957],[92.9,9036],[92.9,9116],[92.9,9196],[92.9,9276],[92.9,9357],[92.9,9437],[92.9,9517],[92.9,9596],[92.9,9677],[92.9,9758],[92.9,9837],[92.9,9916],[92.9,9996],[92.9,10076],[92.9,10157],[92.9,10236],[92.9,10316],[92.9,10397],[92.9,10476],[92.9,10557],[92.9,10636],[92.9,10716],[92.9,10797],[92.9,10877],[92.9,10957],[92.9,11036],[92.9,11117],[92.9,11197],[92.9,11277],[92.9,11357],[92.9,11437],[92.9,11517],[92.9,11597],[92.9,11677],[92.9,11757],[92.9,11836],[92.9,11917],[92.9,11997],[92.9,12077],[92.9,12157],[92.9,12237],[92.9,12317],[92.9,12397],[92.9,12476],[92.9,12557],[92.9,12637],[92.9,12717],[92.9,12797],[92.9,12877],[92.9,12957],[92.9,13036],[92.9,13115],[92.9,13195],[92.9,13274],[92.9,13355],[92.9,13435],[92.9,13515],[92.9,13595],[92.9,13675],[92.9,13754],[92.9,13834],[92.9,13916],[92.9,13995],[92.9,14075],[92.9,14155],[92.9,14235],[92.9,14315],[92.9,14395],[92.9,14475],[92.9,14555],[92.9,14635],[92.9,14715],[92.9,14795],[92.9,14875],[92.9,14955],[92.9,15035],[92.9,15115],[92.9,15195],[92.9,15275],[92.9,15355],[92.9,15435],[92.9,15515],[92.9,15596],[92.9,15674],[92.9,15755],[92.9,15836],[92.9,15916],[92.9,15995],[92.9,16075],[92.9,16155],[92.9,16235],[92.9,16315],[92.9,16395],[92.9,16475],[92.9,16555],[92.9,16635],[92.9,16715],[92.9,16804],[92.9,16901],[92.9,16981],[92.9,17062],[92.9,17141],[92.9,17221],[92.9,17301],[92.9,17381],[92.9,17461],[92.9,17542],[92.9,17622],[92.9,17701],[92.9,17781],[92.9,17861],[92.9,17941],[92.9,18020],[92.9,18100],[92.9,18180],[92.9,18260],[92.9,18341],[92.9,18420],[92.9,18500],[92.9,18581],[92.9,18660],[92.9,18740],[92.9,18820],[92.9,18900],[92.9,18980],[92.9,19060],[92.9,19140],[92.9,19221],[92.9,19300],[92.9,19381],[92.9,19460],[92.9,19541],[92.9,19621],[92.9,19700],[92.9,19780],[92.9,19860],[92.9,19940],[92.9,20021],[92.9,20101],[92.9,20181],[92.9,20261],[92.9,20340],[92.9,20420],[92.9,20501],[92.9,20580],[92.9,20660],[92.9,20741],[92.9,20820],[92.9,20901],[92.9,20981],[92.9,21060],[92.9,21140],[92.9,21221],[92.9,21300],[92.9,21380],[92.9,21461],[92.9,21541],[92.9,21620],[92.9,21700],[92.9,21781],[92.9,21860],[92.9,21940],[92.9,22021],[92.9,22101],[92.9,22181],[92.9,22261],[92.9,22341],[92.9,22420],[92.9,22501],[92.9,22581],[92.9,22661],[92.9,22741],[92.9,22821],[92.9,22901],[92.9,22981],[92.9,23060],[92.9,23139],[92.9,23219],[92.9,23299],[92.9,23379],[92.9,23459],[92.9,23539],[92.9,23619],[92.9,23699],[92.9,23779],[92.9,23859],[92.9,23939],[92.9,24019],[92.9,24100],[92.9,24180],[92.9,24259],[92.9,24339],[92.9,24420],[92.9,24500],[92.9,24579],[92.9,24660],[92.9,24739],[92.9,24820]]",1,0,794.8464,797.3,91.90935771,1.3605,"[{""rating"":91.90935770670573,""responseTime"":1.3605000000000018}]",space,1.9232,,797.3001,Definitely yes,100,797.3021,,,[],,0,7,7,7,1,audio/Narrative7Situation7.wav,audio/Narrative8Situation7.wav,audio/Narrative5Situation7.wav,audio/Narrative6Situation7.wav,5,3,4,5,,,,,,,,,,,,,,,,,,,,,,,,,,,,,,,,,,,,,,,
,,,,,,631a68ee10ec68377cb03457,2024-02-08_15h20.15.017,group3.1-3.2-social-tom,2023.2.2,MacIntel,72.99270073,65c5074098b851296ff0b7ed,65c5412ded5b1be18443a018,,,,,,,,,,,,,,,,,,,,,,,,,,,,,797.3022,2,audio/Narrative6Situation8.wav,802.3113,,802.3113,809.162,"[[91.2,559],[90.8,639],[90,718],[88.4,798],[87.2,879],[87.2,958],[87.2,1038],[87.2,1118],[87.2,1198],[87.2,1278],[87.2,1358],[87.2,1438],[87.2,1518],[87.2,1598],[86.8,1678],[86.7,1758],[86.7,1838],[86.6,1918],[86,1998],[85.9,2078],[85.9,2158],[85.9,2238],[85.9,2318],[85.9,2398],[85.9,2478],[85.9,2558],[85.7,2638],[85.5,2718],[85.5,2798],[84.4,2878],[60.6,2958],[23.4,3038],[10.7,3438],[9.7,3518],[10.1,3598],[10.5,3678],[10.5,3758],[10.4,3838],[10.4,3918],[10.4,3998],[10.4,4078],[10.4,4158],[10.4,4238],[10.4,4318],[10.4,4398],[10.4,4478],[10.4,4558],[10.4,4638],[10.4,4718],[10.4,4798],[10.4,4878],[10.4,4958],[10.4,5038],[10.4,5118],[10.4,5199],[10.4,5278],[10.4,5359],[10.4,5438],[10.4,5518],[10.4,5599],[10.4,5678],[10.4,5757],[10.4,5837],[10.4,5917],[10.4,5996],[10.4,6076],[10.4,6157],[10.4,6237],[10.4,6317],[10.4,6396],[10.4,6477],[10.4,6557],[10.4,6637],[10.4,6717],[10.4,6796]]",1,0,809.162,812.0158,4.200592041,1.3632,"[{""rating"":4.200592041015627,""responseTime"":1.363199999988069}]",space,2.3201,,812.0158,Not at all,0,812.0177,,,[],,0,8,8,8,1,audio/Narrative7Situation8.wav,audio/Narrative8Situation8.wav,audio/Narrative5Situation8.wav,audio/Narrative6Situation8.wav,2,3,3,5,,,,,,,,,,,,,,,,,,,,,,,,,,,,,,,,,,,,,,,
,,,,,,631a68ee10ec68377cb03457,2024-02-08_15h20.15.017,group3.1-3.2-social-tom,2023.2.2,MacIntel,72.99270073,65c5074098b851296ff0b7ed,65c5412ded5b1be18443a018,,,,,,,,,,,,,,,,,,,,,,,,,,,,,812.0179,2,audio/Narrative6Situation9.wav,816.0272,,816.0273,825.9712,"[[5.4,800],[6.7,880],[7.1,959],[7.3,1039],[7.3,1119],[7.3,1199],[7.3,1279],[7.3,1359],[7.3,1439],[7.3,1519],[7.3,1599],[7.3,1680],[7.3,1759],[7.3,1839],[7.3,1919],[7.3,1999],[7.3,2078],[7.3,2158],[7.3,2238],[7.3,2318],[7.3,2398],[7.3,2478],[7.3,2558],[7.3,2639],[7.3,2718],[7.3,2798],[7.3,2878],[7.3,2958],[7.3,3038],[7.3,3118],[7.3,3198],[7.3,3278],[7.3,3358],[7.3,3438],[7.3,3518],[7.3,3597],[7.3,3678],[7.3,3757],[7.3,3838],[7.3,3918],[7.5,3998],[7.5,4078],[7.5,4158],[7.5,4239],[7.5,4318],[7.5,4398],[7.5,4478],[7.5,4558],[7.5,4637],[7.5,4718],[7.5,4798],[7.5,4878],[7.5,4958],[7.5,5038],[7.5,5118],[7.5,5198],[7.5,5278],[7.5,5358],[7.5,5438],[7.5,5518],[7.5,5598],[7.5,5679],[7.5,5758],[7.5,5838],[7.5,5918],[7.5,5998],[7.5,6078],[7.5,6158],[7.5,6238],[7.5,6317],[7.5,6398],[7.5,6478],[7.5,6558],[7.5,6638],[7.5,6718],[7.5,6798],[7.5,6878],[7.5,6958],[7.5,7038],[7.5,7116],[7.5,7196],[7.5,7276],[7.5,7356],[7.5,7436],[7.5,7516],[7.5,7597],[7.5,7676],[7.5,7756],[7.5,7836],[7.5,7917],[7.5,7997],[7.5,8076],[7.5,8157],[7.5,8236],[7.5,8316],[7.5,8396],[7.5,8476],[7.5,8556],[7.5,8636],[7.5,8717],[7.5,8796],[7.5,8876],[7.5,8956],[7.5,9037],[7.5,9117],[7.5,9196],[7.5,9276],[7.5,9356],[7.5,9437],[7.5,9516],[7.5,9596],[7.5,9676],[7.5,9756],[7.5,9837],[7.5,9918]]",1,0,825.9713,829.1429,2.865279516,1.2621,"[{""rating"":2.8652795155843123,""responseTime"":1.2620999999940068}]",space,2.6369,,829.1429,Definitely yes,100,829.145,,,[],,0,9,9,9,1,audio/Narrative7Situation9.wav,audio/Narrative8Situation9.wav,audio/Narrative5Situation9.wav,audio/Narrative6Situation9.wav,2,3,3,4,,,,,,,,,,,,,,,,,,,,,,,,,,,,,,,,,,,,,,,
,,,,,,631a68ee10ec68377cb03457,2024-02-08_15h20.15.017,group3.1-3.2-social-tom,2023.2.2,MacIntel,72.99270073,65c5074098b851296ff0b7ed,65c5412ded5b1be18443a018,,,,,,,,,,,,,,,,,,,,,,,,,,,,,829.1453,2,audio/Narrative5Situation1.wav,834.1552,,834.1552,847.4464,"[[3,640],[3.5,720],[4.2,800],[4.5,879],[4.5,959],[4.5,1040],[4.5,1119],[4.5,1199],[4.5,1279],[4.5,1359],[4.5,1440],[4.5,1520],[5.5,1600],[5.7,1680],[5.7,1759],[5.7,1840],[5.7,1920],[5.7,1999],[5.7,2080],[5.7,2159],[5.7,2240],[5.7,2320],[5.7,2399],[5.7,2479],[5.7,2559],[5.7,2639],[5.7,2719],[5.7,2800],[5.7,2880],[5.7,2960],[5.7,3040],[5.7,3120],[5.7,3199],[5.7,3279],[5.7,3360],[5.7,3439],[5.7,3519],[5.7,3599],[5.7,3680],[5.7,3759],[5.7,3839],[5.7,3919],[5.7,3998],[5.7,4078],[5.7,4158],[6.5,4238],[17.3,4318],[55.9,4398],[78.2,4478],[80.8,4558],[83.4,4641],[84.3,4718],[84.3,4798],[84.3,4878],[84.4,4958],[84.4,5038],[84.4,5118],[84.4,5198],[84.3,5278],[83.2,5358],[82.1,5438],[75.6,5518],[61.1,5598],[55,5705],[53.7,5785],[53.3,5865],[52,5944],[51.5,6024],[51.5,6105],[51.5,6185],[51.5,6265],[51.5,6344],[51.5,6425],[51.5,6504],[51.5,6584],[51.5,6665],[51.5,6745],[51.5,6824],[51.5,6904],[51.5,6984],[51.5,7064],[51.5,7144],[51.5,7225],[51.5,7304],[51.5,7384],[51.5,7464],[51.5,7544],[51.5,7625],[51.5,7704],[51.5,7784],[51.5,7865],[51.5,7945],[51.5,8024],[51.5,8104],[51.5,8184],[51.5,8264],[51.5,8345],[51.5,8424],[51.5,8504],[51.5,8585],[51.5,8664],[51.5,8745],[51.5,8824],[51.5,8904],[51.5,8984],[51.5,9064],[51.5,9143],[51.5,9223],[51.5,9303],[51.5,9384],[51.5,9463],[51.5,9543],[51.6,9623],[52.2,9703],[55.5,9783],[59.1,9863],[61.6,9943],[64,10023],[66.1,10103],[66.7,10183],[66.7,10263],[67.4,10343],[71.8,10423],[77.6,10503],[80,10583],[80,10663],[80,10743],[80,10823],[79.9,10904],[78.9,10983],[78.7,11063],[78.7,11144],[78.7,11224],[78.7,11304],[78.7,11383],[78.7,11464],[78.7,11544],[78.7,11624],[78.7,11703],[78.7,11784],[78.7,11863],[78.7,11943],[78.7,12024],[78.7,12103],[78.7,12184],[78.7,12264],[78.7,12343],[78.7,12424],[78.7,12504],[78.7,12583],[78.7,12663],[78.7,12743],[78.7,12823],[78.7,12903],[78.7,12984],[78.7,13064],[78.7,13143],[78.7,13224]]",1,0,847.4466,849.9639,53.89223099,1.86,"[{""rating"":53.89223098754883,""responseTime"":1.8600000000000136}]",space,1.9861,,849.964,Partially,50,849.9658,,,[],,0,10,10,10,1,audio/Narrative8Situation1.wav,audio/Narrative7Situation1.wav,audio/Narrative6Situation1.wav,audio/Narrative5Situation1.wav,5,2,2,5,,,,,,,,,,,,,,,,,,,,,,,,,,,,,,,,,,,,,,,
,,,,,,631a68ee10ec68377cb03457,2024-02-08_15h20.15.017,group3.1-3.2-social-tom,2023.2.2,MacIntel,72.99270073,65c5074098b851296ff0b7ed,65c5412ded5b1be18443a018,,,,,,,,,,,,,,,,,,,,,,,,,,,,,849.966,2,audio/Narrative5Situation2.wav,852.978,,852.978,882.436,"[[53,958],[54.4,1037],[54.8,1117],[54.8,1198],[54.8,1277],[54.8,1358],[54.8,1437],[54.8,1517],[54.8,1597],[54.8,1677],[54.8,1757],[54.8,1837],[54.8,1918],[54.8,1997],[54.8,2078],[54.8,2158],[54.8,2238],[54.8,2318],[54.8,2398],[54.8,2478],[54.8,2558],[54.8,2638],[54.8,2718],[54.8,2798],[54.8,2878],[54.8,2958],[54.8,3038],[54.8,3118],[54.8,3198],[54.8,3278],[54.8,3358],[54.8,3438],[54.8,3518],[54.8,3598],[54.8,3678],[54.8,3758],[54.8,3837],[54.8,3918],[54.8,3998],[54.8,4078],[54.8,4158],[54.8,4238],[54.8,4318],[54.8,4397],[54.8,4477],[54.8,4558],[54.8,4638],[54.8,4718],[54.8,4798],[54.8,4878],[54.8,4958],[54.8,5038],[54.8,5117],[54.8,5197],[54.8,5277],[54.8,5357],[54.8,5437],[54.8,5517],[54.8,5596],[54.8,5677],[54.8,5758],[54.8,5837],[54.8,5917],[54.8,5996],[54.8,6077],[54.8,6156],[54.8,6236],[54.8,6316],[54.8,6396],[54.8,6476],[54.8,6557],[54.8,6636],[54.8,6716],[54.8,6797],[54.8,6876],[54.8,6957],[54.8,7036],[54.8,7116],[54.8,7196],[54.8,7276],[54.8,7356],[54.8,7436],[54.8,7516],[54.8,7596],[54.8,7676],[54.8,7757],[54.8,7837],[54.8,7917],[54.8,7996],[54.8,8076],[54.8,8156],[54.8,8236],[54.8,8316],[54.8,8396],[54.8,8476],[54.8,8556],[54.8,8636],[54.8,8716],[54.8,8796],[54.8,8877],[54.8,8956],[54.8,9036],[54.8,9116],[54.8,9197],[54.8,9277],[54.8,9356],[54.8,9436],[54.8,9517],[54.8,9596],[54.8,9677],[54.8,9756],[54.8,9837],[54.8,9916],[54.8,9996],[54.8,10076],[54.8,10156],[54.8,10235],[54.8,10314],[54.8,10395],[54.8,10474],[54.8,10555],[54.8,10635],[54.8,10715],[54.8,10795],[58.5,10875],[72.4,10955],[77.5,11035],[78.2,11115],[78.4,11196],[83.4,11275],[85.2,11355],[85.2,11434],[85.2,11515],[85.2,11595],[85.2,11675],[85.2,11756],[85.2,11835],[85.2,11914],[85.2,11995],[85.2,12075],[85.2,12155],[85.2,12235],[85.2,12315],[85.2,12395],[85.2,12476],[85.2,12555],[85.2,12635],[85.2,12715],[85.2,12795],[85.2,12875],[85.2,12955],[85.2,13034],[85.2,13115],[85.2,13196],[85.2,13275],[85.2,13355],[85.2,13435],[85.2,13514],[85.2,13596],[85.2,13675],[85.2,13757],[85.2,13835],[85.2,13915],[85.2,13995],[85.2,14075],[85.2,14155],[85.2,14235],[85.2,14315],[85.2,14395],[85.2,14475],[85.2,14555],[85.2,14635],[85.2,14715],[85.2,14795],[85.2,14875],[85.2,14955],[85.2,15035],[85.2,15115],[85.2,15195],[85.2,15274],[85.2,15354],[85.2,15433],[85.2,15514],[85.2,15594],[85.2,15673],[85.2,15755],[85.2,15834],[85.2,15914],[85.2,15994],[85.2,16073],[85.2,16154],[85.2,16234],[85.2,16314],[85.2,16394],[85.2,16474],[85.2,16553],[85.2,16634],[85.2,16713],[85.2,16793],[85.2,16874],[85.2,16953],[85.2,17033],[85.2,17114],[85.2,17194],[85.2,17274],[85.2,17354],[85.2,17433],[85.2,17514],[85.2,17593],[85.2,17674],[85.2,17754],[85.2,17833],[85.2,17913],[85.2,17993],[85.2,18073],[85.2,18153],[85.2,18233],[85.2,18313],[85.2,18393],[85.2,18473],[85.2,18553],[85.2,18633],[85.2,18713],[85.2,18793],[85.2,18873],[85.2,18954],[85.2,19033],[85.6,19114],[85.9,19193],[85.9,19273],[85.9,19353],[85.9,19433],[85.9,19514],[85.9,19593],[85.9,19673],[85.9,19754],[85.9,19833],[85.9,19913],[85.9,19993],[85.9,20073],[85.9,20154],[85.9,20232],[85.9,20312],[85.9,20393],[85.9,20472],[85.9,20552],[85.9,20633],[85.9,20712],[85.9,20793],[85.9,20873],[85.9,20952],[85.9,21032],[85.9,21112],[85.9,21192],[85.9,21272],[85.9,21352],[85.9,21432],[85.9,21512],[85.9,21592],[85.9,21672],[85.9,21754],[85.9,21832],[85.9,21912],[85.9,21992],[85.9,22072],[85.9,22153],[85.9,22232],[85.9,22312],[85.9,22392],[85.9,22472],[85.9,22553],[85.9,22632],[85.9,22712],[85.9,22792],[85.9,22873],[85.9,22953],[85.9,23032],[85.9,23112],[85.9,23192],[85.9,23273],[85.9,23353],[85.9,23433],[85.9,23513],[85.9,23593],[85.9,23673],[86,23753],[86.3,23833],[86.4,23913],[86.4,23992],[86.4,24073],[86.5,24153],[86.5,24233],[86.5,24313],[86.6,24393],[86.6,24472],[86.6,24552],[86.6,24633],[86.6,24712],[86.6,24793],[86.6,24873],[86.6,24953],[86.6,25033],[86.6,25113],[86.6,25192],[86.6,25271],[86.6,25351],[86.6,25431],[86.6,25511],[86.6,25591],[86.6,25671],[86.6,25751],[86.6,25831],[86.6,25911],[86.6,25991],[86.6,26071],[86.6,26151],[86.6,26231],[86.6,26311],[86.6,26391],[86.6,26471],[86.6,26551],[86.6,26631],[86.6,26711],[86.6,26790],[86.6,26872],[86.6,26951],[86.6,27030],[87.3,27111],[88,27191],[88.1,27271],[88.2,27351],[88.2,27430],[88.2,27510],[88.2,27591],[88.2,27671],[88.2,27750],[88.2,27831],[88.2,27910],[88.2,27990],[88.2,28071],[88.2,28150],[88.2,28231],[88.2,28310],[88.2,28390],[88.2,28471],[88.2,28551],[88.2,28631],[88.2,28710],[88.2,28790],[88.2,28871],[88.2,28951],[88.2,29030],[88.2,29110],[88.2,29191],[88.2,29271],[88.2,29350],[88.2,29430]]",1,0,882.4361,884.7942,88.29750061,1.6292,"[{""rating"":88.29750061035156,""responseTime"":1.6291999999880318}]",space,1.8305,,884.7942,Partially,50,884.7955,,,[],,0,11,11,11,1,audio/Narrative8Situation2.wav,audio/Narrative7Situation2.wav,audio/Narrative6Situation2.wav,audio/Narrative5Situation2.wav,3,3,3,3,,,,,,,,,,,,,,,,,,,,,,,,,,,,,,,,,,,,,,,
,,,,,,631a68ee10ec68377cb03457,2024-02-08_15h20.15.017,group3.1-3.2-social-tom,2023.2.2,MacIntel,72.99270073,65c5074098b851296ff0b7ed,65c5412ded5b1be18443a018,,,,,,,,,,,,,,,,,,,,,,,,,,,,,884.7957,2,audio/Narrative5Situation3.wav,887.8078,,887.808,901.7108,"[[88.6,3358],[88.9,3438],[88.9,3518],[88.9,3598],[88.6,3678],[88.4,3759],[88.4,3838],[88.4,3918],[88.4,3998],[88.4,4078],[88.4,4159],[88.4,4238],[88.4,4318],[88.4,4397],[88.4,4479],[88.4,4558],[88.4,4639],[88.4,4717],[88.4,4798],[88.4,4878],[88.4,4958],[88.4,5038],[88.4,5118],[88.4,5198],[88.4,5278],[88.4,5358],[88.4,5437],[88.4,5517],[88.4,5596],[88.4,5676],[88.4,5756],[88.4,5836],[88.4,5916],[88.4,5996],[88.4,6077],[88.4,6156],[88.4,6237],[88.4,6317],[88.4,6396],[88.4,6477],[88.4,6556],[88.4,6636],[88.4,6716],[88.4,6796],[88.4,6876],[88.4,6956],[88.4,7037],[88.4,7116],[88.4,7196],[88.4,7277],[88.4,7357],[88.4,7437],[88.4,7516],[88.4,7596],[88.4,7676],[88.4,7757],[88.4,7836],[88.4,7917],[88.4,7996],[88.4,8076],[88.4,8156],[88.4,8236],[88.4,8316],[88.4,8396],[88.4,8477],[88.4,8556],[88.4,8636],[88.4,8717],[88.4,8796],[88.4,8876],[88.4,8956],[88.4,9037],[88.4,9117],[88.4,9197],[88.4,9277],[88.4,9357],[88.4,9437],[88.4,9516],[88.4,9597],[88.4,9676],[88.4,9757],[88.4,9837],[88.4,9916],[88.4,9997],[88.4,10077],[88.4,10157],[88.4,10237],[88.4,10317],[88.4,10396],[88.4,10476],[88.4,10556],[88.4,10635],[88.4,10715],[88.4,10795],[88.4,10876],[88.4,10955],[88.4,11036],[88.4,11116],[88.4,11196],[88.4,11276],[88.4,11356],[88.4,11436],[88.4,11516],[88.4,11596],[88.4,11676],[88.4,11756],[88.4,11836],[88.4,11915],[88.4,12049],[88.4,12129],[88.4,12208],[88.4,12288],[88.4,12368],[88.4,12449],[88.4,12529],[88.4,12608],[88.4,12689],[88.4,12769],[88.4,12849],[88.4,12928],[88.4,13008],[88.4,13089],[88.4,13168],[88.4,13249],[88.4,13328],[88.4,13409],[88.4,13488],[88.4,13569],[88.4,13649],[88.4,13728],[88.4,13808],[88.7,13888]]",1,0,901.7109,903.5088,90.18389384,1.0039,"[{""rating"":90.18389383951823,""responseTime"":1.00389999997617}]",space,1.2665,,903.5089,Definitely yes,100,903.5109,,,[],,0,12,12,12,1,audio/Narrative8Situation3.wav,audio/Narrative7Situation3.wav,audio/Narrative6Situation3.wav,audio/Narrative5Situation3.wav,4,8,5,3,,,,,,,,,,,,,,,,,,,,,,,,,,,,,,,,,,,,,,,
,,,,,,631a68ee10ec68377cb03457,2024-02-08_15h20.15.017,group3.1-3.2-social-tom,2023.2.2,MacIntel,72.99270073,65c5074098b851296ff0b7ed,65c5412ded5b1be18443a018,,,,,,,,,,,,,,,,,,,,,,,,,,,,,903.5111,2,audio/Narrative5Situation4.wav,904.5229,,904.5229,924.9174,"[[90.2,319],[90.1,399],[90.1,479],[90.1,559],[90.1,639],[90.1,719],[90.1,799],[90.1,879],[90.1,959],[90.1,1040],[90.1,1119],[90.1,1199],[90.1,1279],[90.1,1358],[90.1,1439],[90.1,1520],[90.1,1599],[90.1,1679],[90.1,1759],[90.1,1840],[90.1,1919],[90.1,2000],[90.1,2080],[90,2158],[90,2239],[90,2319],[90,2399],[90,2478],[90,2560],[90,2639],[90,2719],[90,2799],[90,2879],[90,2959],[90,3039],[90,3119],[90,3199],[90,3279],[90,3359],[89.9,3439],[89.9,3519],[89.9,3599],[89.9,3679],[89.9,3758],[89.9,3838],[89.9,3918],[89.8,3998],[89.8,4078],[89.8,4158],[89.8,4238],[89.8,4318],[89.8,4397],[89.8,4478],[89.8,4558],[89.8,4638],[89.8,4718],[89.8,4798],[89.8,4878],[89.8,4958],[89.8,5037],[89.8,5117],[89.8,5198],[89.8,5278],[89.8,5358],[89.8,5438],[89.8,5518],[89.8,5598],[89.8,5678],[89.8,5758],[89.8,5838],[89.8,5918],[88.4,5997],[77.3,6078],[53.1,6158],[28.3,6238],[21.3,6317],[19.4,6397],[13.9,6477],[11.3,6557],[10.7,6639],[9.7,6717],[9.6,6798],[9.6,6878],[9.6,6958],[9.6,7038],[9.6,7118],[9.6,7198],[9.6,7278],[9.6,7357],[9.6,7438],[9.6,7518],[9.6,7598],[9.6,7678],[9.6,7758],[9.6,7838],[9.6,7918],[9.6,7998],[9.6,8078],[9.6,8157],[9.6,8237],[9.6,8318],[9.6,8398],[9.6,8478],[9.6,8557],[9.6,8638],[9.6,8718],[9.6,8797],[9.6,8876],[9.6,8956],[9.6,9036],[9.6,9116],[9.6,9197],[9.6,9277],[9.6,9357],[9.6,9436],[9.6,9516],[9.6,9596],[9.6,9676],[9.6,9756],[9.6,9836],[9.6,9916],[9.6,9997],[9.6,10076],[9.6,10156],[9.8,10236],[9.8,10317],[9.8,10396],[9.8,10477],[9.8,10557],[9.8,10637],[9.8,10716],[9.8,10797],[9.8,10876],[9.8,10956],[9.8,11037],[9.8,11116],[9.8,11197],[9.8,11276],[9.8,11357],[9.8,11436],[9.8,11516],[9.8,11596],[9.8,11676],[9.8,11757],[9.8,11837],[9.8,11916],[9.8,11996],[9.8,12076],[9.8,12156],[9.8,12236],[9.8,12316],[9.8,12396],[9.8,12476],[9.8,12556],[9.8,12636],[9.8,12716],[9.8,12796],[9.8,12876],[9.8,12956],[9.8,13037],[9.8,13117],[9.8,13196],[9.8,13276],[9.8,13356],[9.8,13437],[9.8,13517],[9.8,13597],[9.8,13677],[9.8,13757],[9.8,13835],[9.8,13915],[9.8,13995],[9.8,14075],[9.8,14155],[9.8,14235],[9.8,14315],[9.8,14395],[9.8,14475],[9.8,14555],[9.8,14635],[9.8,14716],[9.8,14795],[9.8,14875],[9.8,14955],[9.8,15035],[19.5,15115],[60.2,15195],[88.4,15275],[92.1,15355],[92,15435],[91.9,15515],[91.7,15595],[91.5,15675],[91.5,15755],[91.5,15835],[91.5,15915],[91.5,15995],[91.5,16075],[91.5,16155],[91.5,16234],[91.5,16315],[91.5,16395],[91.5,16475],[91.5,16555],[91.5,16635],[91.5,16715],[91.5,16795],[91.5,16875],[91.5,16955],[91.5,17036],[91.5,17115],[91.5,17195],[91.5,17275],[91.5,17355],[91.5,17435],[91.5,17515],[91.5,17594],[91.5,17675],[91.5,17754],[91.5,17834],[91.5,17914],[91.5,17995],[91.5,18075],[91.5,18155],[91.5,18235],[91.5,18314],[91.5,18395],[91.5,18475],[91.5,18555],[91.5,18634],[91.5,18715],[91.5,18795],[91.5,18874],[91.5,18954],[91.5,19034],[91.5,19113],[91.5,19194],[91.5,19273],[91.5,19353],[91.5,19434],[91.5,19513],[91.5,19593],[91.5,19674],[91.5,19754],[91.5,19834],[91.5,19913],[91.5,19994],[91.5,20073],[91.5,20153],[91.5,20234],[91.5,20313],[91.5,20394]]",1,0,924.9175,927.9573,91.31352743,1.5486,"[{""rating"":91.31352742513022,""responseTime"":1.5485999999940532}]",space,2.5078,,927.9573,Partially,50,927.959,,,[],,0,13,13,13,1,audio/Narrative8Situation4.wav,audio/Narrative7Situation4.wav,audio/Narrative6Situation4.wav,audio/Narrative5Situation4.wav,3,3,2,1,,,,,,,,,,,,,,,,,,,,,,,,,,,,,,,,,,,,,,,
,,,,,,631a68ee10ec68377cb03457,2024-02-08_15h20.15.017,group3.1-3.2-social-tom,2023.2.2,MacIntel,72.99270073,65c5074098b851296ff0b7ed,65c5412ded5b1be18443a018,,,,,,,,,,,,,,,,,,,,,,,,,,,,,927.9592,2,audio/Narrative5Situation5.wav,932.9687,,932.9687,948.3908,"[[91.2,719],[89.9,798],[88.9,879],[88.9,959],[88.9,1038],[88.9,1119],[88.9,1199],[88.9,1279],[88.9,1358],[88.9,1438],[88.9,1518],[88.9,1598],[88,1678],[75.5,1758],[52.1,1838],[21.7,1919],[0.9,1998],[2,2238],[5.1,2319],[5.1,2399],[5.1,2478],[5.4,2558],[5.6,2638],[5.6,2718],[5.6,2799],[5.6,2878],[5.6,2958],[5.6,3038],[5.6,3118],[5.6,3199],[5.6,3279],[5.6,3358],[5.6,3438],[5.6,3519],[5.6,3599],[5.6,3678],[5.6,3759],[5.6,3838],[5.6,3918],[5.6,3999],[5.6,4079],[5.8,4158],[5.9,4239],[7,4318],[8.8,4398],[8.9,4479],[8.9,4559],[8.9,4639],[8.9,4719],[8.9,4798],[8.7,4878],[7.9,4958],[7.2,5038],[6.6,5118],[6.2,5199],[6.1,5278],[6.1,5358],[6.1,5437],[6.1,5517],[6.1,5597],[6.1,5676],[6.1,5756],[6.1,5837],[6.1,5917],[6.1,5997],[6.1,6077],[6.1,6156],[6.1,6237],[6.1,6317],[6.1,6397],[6.1,6487],[6.1,6570],[6.1,6650],[6.1,6730],[6.1,6810],[6.1,6890],[6.1,6970],[6.1,7050],[6.1,7130],[6.1,7210],[6.1,7290],[6.1,7371],[6.1,7450],[6.1,7530],[6.1,7610],[6.1,7690],[6.1,7770],[6.1,7850],[6.1,7930],[6.1,8010],[6.1,8090],[6.1,8170],[6.1,8250],[6.1,8330],[6.1,8410],[6.1,8490],[6.1,8571],[6.1,8650],[6.1,8730],[6.1,8835],[6.1,8904],[6.1,8984],[6.1,9064],[6.1,9144],[6.1,9224],[6.1,9304],[6.1,9384],[6.1,9463],[6.1,9544],[6.1,9624],[6.1,9703],[6.1,9783],[6.1,9864],[6.1,9944],[6.1,10024],[6.1,10104],[6.1,10184],[6.1,10264],[6.1,10344],[6.1,10423],[6.1,10503],[6.1,10582],[6.1,10663],[6.1,10742],[6.1,10823],[6.1,10902],[6.1,10983],[6.1,11062],[6.1,11143],[6.1,11223],[6.1,11303],[6.1,11383],[6.1,11462],[6.1,11542],[6.1,11622],[6.1,11702],[6.1,11782],[6.1,11863],[6.1,11943],[6.1,12023],[6.1,12102],[6.1,12182],[6.1,12263],[6.1,12343],[6.1,12422],[6.1,12502],[6.1,12583],[6.1,12663],[6.1,12743],[6.1,12822],[6.1,12902],[6.1,12983],[6.1,13062],[6.1,13143],[6.1,13222],[6.1,13303],[6.1,13383],[6.1,13462],[6.1,13542],[6.1,13622],[6.1,13702],[6.1,13783],[6.1,13862],[6.1,13942],[6.1,14022],[6.1,14103],[6.1,14182],[6.1,14262],[6.1,14343],[6.1,14422],[6.1,14502],[6.1,14582],[6.1,14662],[6.1,14742],[6.1,14822],[6.1,14902],[6.1,14982],[6.1,15063],[6.1,15143],[6.1,15223],[6.1,15303],[6.1,15382]]",1,0,948.3909,951.0032,6.068668365,0.7205,"[{""rating"":6.068668365478514,""responseTime"":0.7205000000000155}]",space,2.0853,,951.0033,Not at all,0,951.0061,,,[],,0,14,14,14,1,audio/Narrative8Situation5.wav,audio/Narrative7Situation5.wav,audio/Narrative6Situation5.wav,audio/Narrative5Situation5.wav,2,5,2,5,,,,,,,,,,,,,,,,,,,,,,,,,,,,,,,,,,,,,,,
