exp_question,consent.started,consent.stopped,consentResponse.keys,consentResponse.rt,consentResponse.duration,participantID,date,expName,psychopyVersion,OS,frameRate,STUDY_ID,SESSION_ID,opening1.started,opening1.stopped,keyEndingOpening1.keys,keyEndingOpening1.rt,keyEndingOpening1.duration,volumeAdjust.started,volumeAdjust.stopped,endingAdjust.keys,endingAdjust.rt,endingAdjust.duration,opening2.started,opening2.stopped,keyEndingOpening.keys,keyEndingOpening.rt,keyEndingOpening.duration,mouse.x,mouse.y,mouse.leftButton,mouse.midButton,mouse.rightButton,mouse.time,instructionLoop.thisRepN,instructionLoop.thisTrialN,instructionLoop.thisN,instructionLoop.thisIndex,instructionLoop.ran,readyForAudio.started,readyForAudio.stopped,fixation.started,run,audio_played,fixation.stopped,endPractice.keys,audioPre.started,audioPre.stopped,continuousResponses_audio,continuousSlider.response,continuousSlider.rt,intRating.started,intRating.stopped,intQuestionSlider.response,intQuestionSlider.rt,intQuestionSlider.history,confirmResponse.keys,confirmResponse.rt,confirmResponse.duration,catchQuestion.started,catch_label,catch_value,catchQuestion.stopped,catchQuestionSlider.response,catchQuestionSlider.rt,catchQuestionSlider.history,confirmResponse_2.keys,audioRunLoop.thisRepN,audioRunLoop.thisTrialN,audioRunLoop.thisN,audioRunLoop.thisIndex,audioRunLoop.ran,conditions1_1,conditions2_1,conditions1_2,conditions2_2,dur1_1,dur2_1,dur1_2,dur2_2,endPractice.rt,endPractice.duration,confirmResponse_2.rt,confirmResponse_2.duration,runIntervalBreak.started,runIntervalBreak.stopped,endingBreakKey.keys,endingBreakKey.rt,endingBreakKey.duration,connection.started,connection.stopped,connectionEnding.keys,connectionEnding.rt,connectionEnding.duration,readyForText.started,readyForText.stopped,textPre.started,run_dup,textPre.stopped,continuousResponses_text,textRunLoop.thisRepN,textRunLoop.thisTrialN,textRunLoop.thisN,textRunLoop.thisIndex,textRunLoop.ran,text1_1,text1_2,text2_1,text2_2,runBreakText.started,runBreakText.stopped,endingBreakKey_2.keys,endingBreakKey_2.rt,endingBreakKey_2.duration,ending.started,ending.stopped,endingEnding.keys,endingEnding.rt,endingEnding.duration
social,0.0008,14.4452,y,14.1278,,63483c4522d65d46028da7a7,2024-05-13_09h39.00.209,group3.1-3.2-social-tom,2023.2.2,Linux x86_64,60.05645307,65c5074098b851296ff0b7ed,664233f324a53585686eba9f,,,,,,,,,,,,,,,,,,,,,,,,,,,,,,,,,,,,,,,,,,,,,,,,,,,,,,,,,,,,,,,,,,,,,,,,,,,,,,,,,,,,,,,,,,,,,,,,,,,,,,,,,,
,,,,,,63483c4522d65d46028da7a7,2024-05-13_09h39.00.209,group3.1-3.2-social-tom,2023.2.2,Linux x86_64,60.05645307,65c5074098b851296ff0b7ed,664233f324a53585686eba9f,14.4459,355.263,space,340.7557,,,,,,,,,,,,,,,,,,,,,,,,,,,,,,,,,,,,,,,,,,,,,,,,,,,,,,,,,,,,,,,,,,,,,,,,,,,,,,,,,,,,,,,,,,,,,,,,,,,,,,
,,,,,,63483c4522d65d46028da7a7,2024-05-13_09h39.00.209,group3.1-3.2-social-tom,2023.2.2,Linux x86_64,60.05645307,65c5074098b851296ff0b7ed,664233f324a53585686eba9f,,,,,,355.2635,396.0645,space,40.4702,,,,,,,,,,,,,,,,,,,,,,,,,,,,,,,,,,,,,,,,,,,,,,,,,,,,,,,,,,,,,,,,,,,,,,,,,,,,,,,,,,,,,,,,,,,,,,,,,
,,,,,,63483c4522d65d46028da7a7,2024-05-13_09h39.00.209,group3.1-3.2-social-tom,2023.2.2,Linux x86_64,60.05645307,65c5074098b851296ff0b7ed,664233f324a53585686eba9f,,,,,,,,,,,396.0847,402.8968,space,6.7704,,[],[],[],[],[],[],0,0,0,0,1,,,,,,,,,,,,,,,,,,,,,,,,,,,,,,,,,,,,,,,,,,,,,,,,,,,,,,,,,,,,,,,,,,,,,,,,,,,,,,,,
,,,,,,63483c4522d65d46028da7a7,2024-05-13_09h39.00.209,group3.1-3.2-social-tom,2023.2.2,Linux x86_64,60.05645307,65c5074098b851296ff0b7ed,664233f324a53585686eba9f,,,,,,,,,,,402.9195,409.4767,space,6.312,,[],[],[],[],[],[],1,0,1,0,1,,,,,,,,,,,,,,,,,,,,,,,,,,,,,,,,,,,,,,,,,,,,,,,,,,,,,,,,,,,,,,,,,,,,,,,,,,,,,,,,
,,,,,,63483c4522d65d46028da7a7,2024-05-13_09h39.00.209,group3.1-3.2-social-tom,2023.2.2,Linux x86_64,60.05645307,65c5074098b851296ff0b7ed,664233f324a53585686eba9f,,,,,,,,,,,409.5002,411.5416,space,1.942,,[],[],[],[],[],[],2,0,2,0,1,,,,,,,,,,,,,,,,,,,,,,,,,,,,,,,,,,,,,,,,,,,,,,,,,,,,,,,,,,,,,,,,,,,,,,,,,,,,,,,,
,,,,,,63483c4522d65d46028da7a7,2024-05-13_09h39.00.209,group3.1-3.2-social-tom,2023.2.2,Linux x86_64,60.05645307,65c5074098b851296ff0b7ed,664233f324a53585686eba9f,,,,,,,,,,,411.5431,413.4635,space,1.8678,,[],[],[],[],[],[],3,0,3,0,1,,,,,,,,,,,,,,,,,,,,,,,,,,,,,,,,,,,,,,,,,,,,,,,,,,,,,,,,,,,,,,,,,,,,,,,,,,,,,,,,
,,,,,,63483c4522d65d46028da7a7,2024-05-13_09h39.00.209,group3.1-3.2-social-tom,2023.2.2,Linux x86_64,60.05645307,65c5074098b851296ff0b7ed,664233f324a53585686eba9f,,,,,,,,,,,413.4648,417.2036,space,3.6984,,[],[],[],[],[],[],4,0,4,0,1,,,,,,,,,,,,,,,,,,,,,,,,,,,,,,,,,,,,,,,,,,,,,,,,,,,,,,,,,,,,,,,,,,,,,,,,,,,,,,,,
,,,,,,63483c4522d65d46028da7a7,2024-05-13_09h39.00.209,group3.1-3.2-social-tom,2023.2.2,Linux x86_64,60.05645307,65c5074098b851296ff0b7ed,664233f324a53585686eba9f,,,,,,,,,,,,,,,,,,,,,,,,,,,417.2336,419.8067,419.9036,1,audio/Narrative13Situation2.wav,421.9055,,421.9059,451.662,"[[999,5],[999,181],[999,264],[999,347],[999,435],[999,514],[999,597],[999,686],[999,766],[999,850],[999,932],[999,1014],[999,1101],[999,1181],[999,1265],[999,1348],[999,1430],[999,1513],[999,1596],[999,1679],[999,1763],[999,1846],[999,1930],[999,2013],[999,2098],[999,2179],[999,2264],[999,2346],[999,2429],[999,2514],[999,2596],[999,2679],[999,2763],[999,2847],[999,2931],[999,3012],[999,3095],[999,3178],[999,3261],[999,3345],[999,3428],[999,3511],[999,3596],[999,3678],[999,3763],[999,3875],[999,3950],[999,4032],[999,4114],[999,4200],[999,4280],[999,4363],[999,4445],[999,4527],[999,4612],[999,4694],[999,4778],[999,4860],[999,4944],[999,5028],[999,5110],[999,5196],[51.3,5288],[50.9,5379],[50.8,5456],[50.8,5530],[50.8,5609],[50.8,5693],[50.8,5776],[50.8,5860],[50.8,5945],[50.8,6026],[48.9,6110],[37.3,6193],[16.3,6943],[12.2,7028],[11.1,7109],[9.2,7193],[7.8,7276],[6.3,7359],[4.8,7443],[4.6,7528],[4.6,7608],[4.6,7692],[4.6,7775],[4.6,7858],[4.6,7942],[4.5,8024],[18.5,8110],[32.7,8191],[36,8275],[36.2,8357],[36.2,8441],[36.2,8525],[36.2,8606],[36.2,8690],[36.2,8773],[36.2,8857],[36.2,8940],[36.2,9023],[36.2,9106],[36.2,9191],[36.2,9274],[36.2,9357],[36.2,9441],[36.2,9523],[36.2,9606],[36.2,9689],[36.2,9773],[36.2,9856],[36.2,9940],[36.2,10022],[36.2,10105],[36.2,10190],[36.2,10272],[36.2,10355],[36.2,10438],[36.2,10522],[36.2,10606],[36.2,10689],[36.2,10772],[36.2,10855],[45.6,10939],[49.2,11024],[49.4,11105],[49.3,11187],[43.4,11272],[38.1,11360],[37.6,11438],[37.6,11522],[37.7,11605],[38.1,11689],[38.1,11771],[38.1,11856],[38.1,11938],[38.1,12020],[38.1,12103],[38.1,12187],[38.1,12270],[47.6,12357],[52.1,12439],[53.5,12522],[54.4,12603],[55.4,12686],[55.4,12769],[55.4,12854],[55.4,12936],[55.4,13019],[55.4,13103],[55.4,13187],[55.4,13269],[55.4,13352],[55.4,13437],[69.2,13521],[75,13604],[75.9,13687],[76.1,13772],[76.5,13853],[76.7,13935],[76.8,14019],[75.7,14103],[75.4,14187],[75.4,14268],[75.4,14351],[75.4,14436],[75.4,14517],[75.4,14601],[75.4,14686],[75.4,14769],[79.9,14851],[84,14938],[85.1,15019],[85.4,15103],[85.3,15186],[84.3,15268],[83.6,15352],[83.5,15434],[83.9,15518],[83.9,15600],[82.6,15685],[82,15768],[81.8,15850],[81.8,15934],[81.7,16019],[81,16101],[80,16183],[79.6,16274],[79.5,16353],[79.5,16432],[79.4,16517],[79.4,16601],[79.4,16682],[79.4,16767],[79.4,16850],[79.4,16933],[79.4,17015],[79.4,17098],[79.3,17184],[79.3,17266],[79.3,17350],[79.3,17432],[79.3,17515],[79.3,17599],[79.3,17681],[79.3,17767],[79.3,17848],[79.3,17931],[79.3,18014],[79.3,18097],[79.3,18181],[79.3,18264],[79.3,18348],[79.3,18430],[79.3,18513],[79.3,18597],[78.8,18683],[78.2,18764],[78,18848],[78,18930],[78,19015],[78,19100],[77.9,19180],[77.9,19264],[77.9,19348],[77.9,19430],[77.9,19513],[77.9,19596],[77.9,19679],[77.9,19763],[77.9,19846],[77.9,19929],[77.9,20014],[77.9,20097],[77.9,20180],[77.9,20263],[77.9,20345],[77.9,20429],[77.9,20512],[77.9,20596],[77.9,20678],[77.9,20763],[77.9,20846],[77.9,20930],[77.9,21012],[77.9,21094],[77.9,21178],[77.9,21262],[77.9,21344],[77.9,21429],[77.9,21511],[77.9,21594],[77.9,21679],[77.9,21760],[77.9,21844],[77.9,21927],[77.9,22010],[77.9,22095],[77.9,22177],[77.9,22260],[77.9,22343],[77.9,22426],[77.9,22509],[77.9,22593],[77.9,22680],[77.9,22764],[77.9,22843],[77.9,22926],[77.9,23012],[77.9,23093],[77.9,23175],[74.5,23261],[70.2,23344],[68.5,23429],[67.7,23511],[67.5,23594],[67.4,23677],[67.4,23759],[67.4,23842],[67.4,23925],[67.4,24009],[67.3,24091],[67.3,24178],[67.3,24259],[67.3,24341],[67.3,24425],[67.3,24508],[67.3,24591],[67.3,24678],[71.2,24757],[73.3,24845],[73.5,24925],[73.6,25007],[73.6,25091],[73.6,25177],[73.6,25258],[73.6,25342],[73.6,25424],[73.6,25507],[73.6,25590],[73.6,25674],[73.6,25759],[73.6,25839],[73.6,25924],[73.6,26007],[73.6,26092],[73.6,26174],[73.6,26256],[73.6,26340],[73.6,26423],[73.6,26506],[73.6,26590],[73.6,26673],[75.1,26757],[81.8,26841],[86.7,26923],[87.9,27006],[88.1,27090],[87.5,27172],[86.3,27258],[85.9,27342],[85.8,27422],[85.7,27506],[85.6,27588],[85.6,27672],[85.6,27755],[85.6,27838],[85.6,27922],[85.6,28004],[85.6,28088],[85.6,28172],[85.6,28253],[85.6,28338],[85.6,28420],[85.6,28504],[85.6,28588],[82.4,28673],[80.6,28755],[79.7,28838],[78.3,28923],[77.6,29006],[77.5,29087],[77.4,29172],[77.4,29253],[77.4,29336],[77.4,29422],[77.4,29503],[77.4,29587],[77.4,29670],[77.4,29753]]",1,0,451.6636,458.7053,64.9869833,6.639,"[{""rating"":71.10350802302258,""responseTime"":3.7209000000059973},{""rating"":64.98698330338895,""responseTime"":6.63900000000001}]",space,6.5016,,458.706,Not at all,0,458.7187,,,[],,0,0,0,0,1,audio/Narrative13Situation2.wav,audio/Narrative13Situation2.wav,audio/Narrative13Situation2.wav,audio/Narrative13Situation2.wav,2,2,2,2,,,,,,,,,,,,,,,,,,,,,,,,,,,,,,,,,,,,,,,
,,,,,,63483c4522d65d46028da7a7,2024-05-13_09h39.00.209,group3.1-3.2-social-tom,2023.2.2,Linux x86_64,60.05645307,65c5074098b851296ff0b7ed,664233f324a53585686eba9f,,,,,,,,,,,,,,,,,,,,,,,,,,,,,458.7201,1,audio/Narrative8Situation1.wav,461.5855,space,461.5858,477.5179,"[[70.8,2128],[70.7,2213],[70.7,2295],[70.7,2378],[70.7,2460],[70.7,2544],[70.7,2627],[70.7,2711],[70.6,2793],[69.7,2877],[68.6,2962],[68.4,3043],[68.7,3127],[69.2,3212],[69.5,3293],[69.6,3376],[69.6,3460],[69.9,3543],[70.4,3626],[71,3710],[72,3793],[73,3876],[73.4,3961],[73.4,4042],[73.4,4126],[73.4,4208],[73.4,4292],[73.4,4375],[73.4,4459],[73.4,4542],[73.4,4625],[73.4,4709],[73.4,4792],[73.4,4875],[73.4,4958],[73.4,5042],[73.4,5124],[73.4,5208],[73.4,5291],[73.4,5375],[73.4,5457],[73.4,5543],[73.4,5626],[73.4,5707],[73.4,5791],[73.4,5874],[73.4,5958],[73.4,6040],[73.4,6123],[73.4,6206],[73.4,6290],[73.4,6373],[73.4,6456],[73.4,6541],[73.4,6623],[73.4,6706],[73.4,6789],[73.4,6872],[73.4,6956],[73.4,7040],[73.4,7122],[73.4,7206],[73.4,7289],[73.4,7373],[73.4,7455],[73.4,7538],[73.4,7622],[73.4,7705],[73.4,7789],[73.4,7872],[73.4,7955],[73.4,8038],[73.4,8122],[73.4,8206],[73.4,8288],[73.4,8371],[73.4,8455],[73.4,8538],[73.4,8622],[73.4,8704],[73.4,8787],[73.4,8870],[73.4,8954],[73.4,9037],[73.4,9120],[73.4,9203],[73.4,9287],[73.4,9370],[73.4,9453],[73.4,9537],[73.4,9620],[73.4,9705],[73.4,9786],[73.4,9871],[73.4,9954],[73.4,10036],[73.4,10120],[73.4,10205],[73.4,10286],[73.4,10370],[73.4,10452],[73.4,10536],[73.4,10619],[73.4,10702],[73.4,10787],[73.4,10870],[73.4,10952],[73.4,11035],[73.4,11119],[73.4,11203],[73.4,11285],[73.4,11368],[73.4,11451],[73.4,11535],[73.4,11619],[73.4,11703],[73.4,11802],[73.4,11886],[75.2,11970],[75.9,12060],[77.2,12146],[79.6,12230],[82.9,12313],[84.8,12397],[85.2,12480],[85.3,12552],[85.3,12634],[85.3,12717],[85.3,12800],[85.3,12887],[85.3,12968],[85.3,13050],[85.3,13138],[85.3,13216],[85.3,13301],[85.3,13383],[85.3,13466],[85.3,13549],[85.3,13634],[85.3,13715],[85.3,13800],[85.3,13882],[85.3,13967],[85.3,14051],[85.3,14132],[85.3,14216],[85.3,14300],[85.3,14382],[85.3,14465],[85.3,14551],[85.3,14633],[85.3,14717],[85.3,14800],[85.3,14882],[85.3,14964],[85.3,15050],[85.3,15131],[85.3,15214],[85.3,15299],[85.3,15383],[85.3,15464],[85.3,15547],[85.3,15631],[85.3,15714],[85.3,15799],[85.3,15881]]",1,0,477.5186,485.1427,92.76520684,5.4681,"[{""rating"":83.20699155041807,""responseTime"":3.185299999982135},{""rating"":86.55457085048529,""responseTime"":4.052599999994015},{""rating"":87.95265984749872,""responseTime"":4.901499999999999},{""rating"":92.76520684221308,""responseTime"":5.468099999994024}]",space,7.0694,,485.1428,Partially,50,485.155,,,[],,0,1,1,1,1,audio/Narrative7Situation1.wav,audio/Narrative8Situation1.wav,audio/Narrative5Situation1.wav,audio/Narrative6Situation1.wav,2,5,5,2,2.8408,,,,,,,,,,,,,,,,,,,,,,,,,,,,,,,,,,,,,,
,,,,,,63483c4522d65d46028da7a7,2024-05-13_09h39.00.209,group3.1-3.2-social-tom,2023.2.2,Linux x86_64,60.05645307,65c5074098b851296ff0b7ed,664233f324a53585686eba9f,,,,,,,,,,,,,,,,,,,,,,,,,,,,,485.1562,1,audio/Narrative8Situation2.wav,488.173,,488.1736,498.3014,"[[999,22],[999,100],[999,183],[999,266],[999,350],[999,432],[999,515],[999,598],[999,681],[999,765],[999,849],[999,931],[999,1017],[59.6,1105],[59.7,1185],[59.9,1272],[60.1,1353],[60.2,1438],[60.3,1518],[60.3,1599],[60.3,1682],[60.3,1764],[52.1,1850],[51,1936],[50.9,2020],[50.7,2102],[46.3,2187],[42,2271],[41.2,2352],[41.2,2430],[41.2,2513],[41.2,2598],[15.9,2685],[14.7,2767],[14.4,2851],[14.3,2937],[14.3,3017],[14.3,3097],[14.3,3180],[14.3,3263],[16.5,3349],[20.1,3436],[23.6,3523],[24.2,3604],[24.4,3684],[24.4,3763],[24.4,3846],[24.4,3929],[24.4,4013],[24.4,4094],[25.3,4184],[25.7,4265],[25.9,4348],[26.4,4435],[27.1,4516],[27.7,4600],[28.3,4685],[28.9,4769],[29.3,4849],[29.6,4929],[29.8,5014],[30.3,5095],[30.8,5182],[30.9,5263],[31.2,5348],[31.3,5432],[31.3,5512],[31.4,5595],[31.4,5677],[31.5,5763],[31.5,5843],[31.7,5929],[32,6013],[32.1,6100],[32.1,6176],[32.2,6259],[32.3,6347],[32.3,6427],[32.4,6511],[32.4,6593],[32.4,6679],[32.4,6758],[32.4,6844],[32.4,6926],[32.4,7010],[32.4,7092],[32.4,7176],[32.4,7262],[32.4,7342],[32.4,7426],[32.4,7509],[32.4,7592],[32.4,7675],[32.4,7758],[32.4,7843],[32.4,7924],[32.4,8011],[32.4,8094],[32.4,8174],[32.4,8261],[32.4,8342],[32.4,8435],[32.4,8514],[14.5,8597],[11.7,8690],[11.7,8765],[11.7,8841],[11.7,8923],[11.7,9010],[13.2,9095],[13.5,9178],[13.6,9263],[13.6,9340],[13.6,9423],[13.6,9506],[13.6,9590],[13.6,9674],[13.6,9756],[13.6,9839],[13.6,9922],[13.6,10005],[13.6,10089]]",1,0,498.3027,543.903,11.55307204,42.6664,"[{""rating"":11.553072041455614,""responseTime"":1.559900000005996},{""rating"":11.553072041455614,""responseTime"":42.66640000000598}]",space,45.0607,,543.9032,Definitely yes,100,543.915,,,[],,0,2,2,2,1,audio/Narrative7Situation2.wav,audio/Narrative8Situation2.wav,audio/Narrative5Situation2.wav,audio/Narrative6Situation2.wav,3,3,3,3,,,,,,,,,,,,,,,,,,,,,,,,,,,,,,,,,,,,,,,
,,,,,,63483c4522d65d46028da7a7,2024-05-13_09h39.00.209,group3.1-3.2-social-tom,2023.2.2,Linux x86_64,60.05645307,65c5074098b851296ff0b7ed,664233f324a53585686eba9f,,,,,,,,,,,,,,,,,,,,,,,,,,,,,543.916,1,audio/Narrative8Situation3.wav,547.931,,547.9311,570.3113,"[[20.8,1200],[22.2,1282],[22.5,1365],[22.8,1467],[22.9,1552],[23.2,1637],[23.5,1724],[23.5,1799],[22.5,1885],[21.5,1973],[20.6,2059],[19.4,2140],[18.7,2221],[18.7,2297],[18.7,2383],[18.7,2464],[18.7,2547],[18.7,2630],[12.7,2719],[12.1,2799],[12,2886],[12,2969],[12,3047],[12,3130],[12,3214],[12,3297],[12,3379],[18.4,3464],[25.9,3549],[28,3632],[28.3,3717],[28.3,3806],[28.3,3882],[28.3,3964],[28.3,4046],[29.5,4129],[33.6,4218],[34.4,4299],[34.6,4381],[36.5,4464],[39.2,4553],[43.3,4633],[48,4715],[51.4,4797],[51.9,4885],[51.9,4961],[51.9,5044],[51.9,5127],[57,5214],[62.7,5297],[64.6,5380],[65.2,5466],[65.2,5548],[64.9,5630],[64.9,5711],[65.1,5794],[65.8,5880],[66,5962],[66,6044],[66,6127],[66,6211],[66,6294],[66,6377],[66,6460],[67.8,6554],[69.4,6637],[72.7,6717],[74.6,6797],[74.7,6877],[74.7,6960],[74.7,7046],[74.7,7130],[78.4,7211],[80.4,7297],[81.1,7383],[81.6,7463],[81.8,7548],[81.9,7625],[81.9,7709],[81.9,7793],[81.9,7876],[81.9,7961],[81.9,8041],[81.9,8124],[81.9,8208],[81.9,8292],[81.9,8375],[83.1,8464],[83.7,8550],[84.9,8629],[93,8720],[94.8,8803],[96.9,8883],[97.5,8968],[97.5,9042],[97.6,9124],[97.6,9207],[97.6,9290],[97.6,9373],[97.6,9456],[97.6,9540],[97.6,9624],[98.3,9709],[98.9,9790],[99,9878],[99.1,9960],[98.1,10042],[95.8,10125],[94.7,10212],[94.2,10301],[94.1,10383],[94.1,10458],[94.1,10539],[94.1,10622],[94.1,10706],[94.1,10790],[94.1,10874],[94.1,10956],[94.1,11039],[94.1,11123],[94.1,11208],[94.1,11289],[94.1,11372],[94.1,11456],[94.1,11541],[94.1,11622],[94.1,11706],[94.1,11788],[94.1,11871],[94.1,11956],[94.1,12042],[94.1,12125],[94.1,12204],[94.1,12287],[94.1,12372],[94.1,12455],[94.1,12539],[94.1,12621],[94.1,12704],[94.1,12787],[94.1,12871],[94.1,12955],[94.1,13038],[94.1,13120],[94.1,13204],[94.1,13288],[94.1,13371],[94.1,13453],[94.1,13537],[94.1,13621],[94.1,13703],[94.1,13786],[94.1,13870],[94.1,13955],[94.1,14037],[94.1,14119],[94.1,14204],[94.1,14287],[94.1,14369],[94.1,14453],[95,14564],[95.4,14647],[95.4,14726],[95.4,14802],[95.4,14886],[95.4,14971],[95.4,15052],[95.4,15137],[95.4,15218],[95.4,15304],[95.4,15389],[95.4,15467],[95.4,15551],[95.4,15635],[95.4,15718],[95.4,15801],[95.4,15884],[95.4,15968],[95.4,16050],[95.4,16134],[95.4,16217],[95.4,16302],[95.4,16383],[95.4,16467],[95.4,16550],[95.4,16633],[95.4,16716],[95.4,16800],[95.4,16886],[95.4,16967],[95.4,17050],[95.4,17133],[95.4,17216],[95.4,17302],[95.4,17383],[95.4,17467],[95.4,17551],[95.4,17634],[95.4,17716],[95.4,17799],[95.4,17884],[95.4,17966],[95.4,18048],[95.4,18132],[95.4,18216],[95.4,18298],[95.4,18385],[95.4,18466],[95.4,18551],[95.4,18631],[95.4,18714],[95.4,18798],[95.4,18884],[95.4,18964],[95.4,19047],[95.4,19130],[95.4,19215],[95.4,19298],[95.4,19383],[95.4,19466],[95.4,19547],[95.4,19630],[95.4,19713],[95.4,19797],[95.4,19880],[95.4,19963],[95.4,20047],[95.4,20130],[95.4,20213],[95.4,20299],[95.4,20381],[95.4,20463],[95.4,20546],[95.4,20629],[95.4,20713],[95.4,20804],[95.4,20884],[95.4,20965],[95.4,21046],[95.4,21130],[95.4,21212],[95.4,21296],[95.4,21379],[95.4,21461],[95.4,21545],[95.4,21629],[95.4,21712],[95.4,21795],[95.4,21879],[95.4,21963],[95.4,22045],[95.4,22128],[95.4,22211],[95.4,22296],[95.4,22379]]",1,0,570.312,633.8321,95.40918813,2.1359,"[{""rating"":95.4091881320617,""responseTime"":2.135900000005904}]",space,62.9711,,633.8323,Definitely yes,100,633.861,,,[],,0,3,3,3,1,audio/Narrative7Situation3.wav,audio/Narrative8Situation3.wav,audio/Narrative5Situation3.wav,audio/Narrative6Situation3.wav,8,4,3,5,,,,,,,,,,,,,,,,,,,,,,,,,,,,,,,,,,,,,,,
,,,,,,63483c4522d65d46028da7a7,2024-05-13_09h39.00.209,group3.1-3.2-social-tom,2023.2.2,Linux x86_64,60.05645307,65c5074098b851296ff0b7ed,664233f324a53585686eba9f,,,,,,,,,,,,,,,,,,,,,,,,,,,,,633.8618,1,audio/Narrative8Situation4.wav,636.8624,,636.8626,651.0497,"[[999,2],[999,85],[999,164],[999,247],[999,331],[999,414],[999,497],[999,580],[999,663],[999,748],[999,830],[999,914],[999,997],[999,1080],[999,1163],[999,1246],[999,1330],[999,1414],[999,1496],[999,1580],[999,1663],[999,1746],[999,1830],[999,1914],[999,1995],[999,2079],[999,2163],[999,2246],[999,2329],[999,2413],[999,2495],[999,2578],[999,2662],[999,2746],[999,2828],[999,2912],[999,2996],[999,3078],[999,3161],[999,3245],[999,3328],[999,3411],[999,3495],[999,3578],[999,3661],[999,3744],[999,3827],[999,3910],[999,3993],[999,4078],[999,4160],[999,4243],[999,4327],[999,4411],[999,4493],[999,4577],[999,4660],[999,4744],[999,4826],[999,4910],[999,4994],[999,5077],[999,5161],[999,5244],[999,5328],[999,5411],[999,5493],[76.9,5576],[79.6,5759],[79.6,5842],[79.8,5926],[80.7,6009],[81.8,6093],[83,6180],[84.4,6261],[88.6,6343],[90,6426],[90.6,6510],[90.9,6610],[94,6700],[94.6,6780],[94.8,6863],[95.4,6946],[96.3,7024],[96.6,7111],[96.6,7190],[100,7277],[100,7357],[100,7440],[100,7524],[100,7607],[100,7690],[100,7774],[100,7860],[100,7940],[100,8024],[100,8106],[100,8190],[100,8273],[100,8357],[100,8441],[100,8525],[100,8606],[100,8689],[100,8773],[100,8857],[100,8939],[100,9024],[100,9108],[100,9189],[100,9272],[100,9356],[100,9440],[100,9525],[100,9606],[100,9689],[100,9772],[100,9855],[100,9938],[100,10022],[100,10105],[100,10188],[100,10272],[100,10355],[100,10437],[100,10521],[100,10604],[100,10688],[100,10772],[100,10854],[100,10939],[100,11020],[100,11103],[100,11187],[100,11270],[100,11353],[100,11438],[100,11520],[100,11603],[100,11686],[100,11771],[100,11852],[100,11938],[100,12019],[100,12102],[100,12186],[100,12271],[100,12352],[100,12436],[100,12520],[100,12603],[100,12686],[100,12768],[100,12851],[100,12936],[100,13018],[100,13101],[100,13186],[100,13279],[100,13355],[100,13437],[100,13518],[100,13601],[100,13686],[100,13768],[100,13851],[100,13935],[100,14018],[100,14102],[100,14186]]",1,0,651.0505,720.9784,95.10931606,5.0923,"[{""rating"":95.10931605512232,""responseTime"":5.092299999982174}]",space,69.3826,,720.9785,Definitely yes,100,721.0072,,,[],,0,4,4,4,1,audio/Narrative7Situation4.wav,audio/Narrative8Situation4.wav,audio/Narrative5Situation4.wav,audio/Narrative6Situation4.wav,3,3,1,2,,,,,,,,,,,,,,,,,,,,,,,,,,,,,,,,,,,,,,,
,,,,,,63483c4522d65d46028da7a7,2024-05-13_09h39.00.209,group3.1-3.2-social-tom,2023.2.2,Linux x86_64,60.05645307,65c5074098b851296ff0b7ed,664233f324a53585686eba9f,,,,,,,,,,,,,,,,,,,,,,,,,,,,,721.0085,1,audio/Narrative8Situation5.wav,723.0099,,723.0099,731.27,"[[999,1],[999,91],[999,167],[999,249],[999,333],[999,417],[999,499],[999,582],[999,665],[999,748],[999,832],[999,915],[999,998],[999,1081],[999,1165],[999,1248],[999,1334],[999,1416],[999,1499],[999,1582],[999,1664],[999,1747],[999,1831],[999,1915],[999,1997],[999,2080],[999,2164],[999,2247],[999,2332],[999,2414],[999,2497],[999,2580],[999,2666],[999,2748],[999,2830],[999,2914],[999,2997],[999,3082],[84.5,3167],[86.8,3250],[88.2,3331],[89.4,3413],[91,3498],[93.8,3580],[95.5,3664],[95.7,3747],[95.8,3829],[95.8,3912],[96.5,3997],[97.6,4080],[98.2,4164],[99.4,4247],[99.5,4328],[99.5,4412],[99.5,4495],[99.5,4578],[99.5,4661],[100,4745],[100,4828],[100,4912],[100,4994],[100,5078],[100,5161],[100,5244],[100,5328],[100,5411],[100,5494],[100,5577],[100,5660],[100,5744],[100,5827],[100,5910],[100,5993],[100,6076],[100,6160],[100,6244],[100,6326],[100,6409],[100,6493],[100,6577],[100,6659],[100,6743],[100,6826],[100,6909],[100,6992],[100,7075],[100,7159],[100,7242],[100,7326],[100,7409],[100,7492],[100,7575],[100,7660],[100,7742],[100,7826],[100,7908],[100,7991],[100,8075],[100,8158],[100,8242]]",1,0,731.2712,738.2379,99.60403437,6.4709,"[{""rating"":99.60403436840812,""responseTime"":6.4709000000059405}]",space,6.4247,,738.2381,Not at all,0,738.2496,,,[],,0,5,5,5,1,audio/Narrative7Situation5.wav,audio/Narrative8Situation5.wav,audio/Narrative5Situation5.wav,audio/Narrative6Situation5.wav,5,2,5,2,,,,,,,,,,,,,,,,,,,,,,,,,,,,,,,,,,,,,,,
,,,,,,63483c4522d65d46028da7a7,2024-05-13_09h39.00.209,group3.1-3.2-social-tom,2023.2.2,Linux x86_64,60.05645307,65c5074098b851296ff0b7ed,664233f324a53585686eba9f,,,,,,,,,,,,,,,,,,,,,,,,,,,,,738.2507,1,audio/Narrative8Situation6.wav,740.2612,,740.2613,746.7207,"[[91.4,4261],[90.8,4344],[90.6,4427],[91.2,4512],[94.3,4593],[95.7,4677],[96,4761],[96.1,4843],[98.4,4928],[99.8,5012],[99.9,5093],[99.4,5176],[98.7,5260],[98.6,5342],[99.2,5428],[100,5510],[100,5593],[100,5675],[100,5759],[100,5842],[100,5925],[100,6008],[100,6092],[100,6176],[100,6258],[100,6346],[100,6425]]",1,0,746.7212,761.7401,99.7009936,14.6453,"[{""rating"":99.7009935965906,""responseTime"":1.024099999994064},{""rating"":99.7009935965906,""responseTime"":14.645299999982171}]",space,14.4692,,761.7404,Not at all,0,761.7478,,,[],,0,6,6,6,1,audio/Narrative7Situation6.wav,audio/Narrative8Situation6.wav,audio/Narrative5Situation6.wav,audio/Narrative6Situation6.wav,3,2,3,2,,,,,,,,,,,,,,,,,,,,,,,,,,,,,,,,,,,,,,,
,,,,,,63483c4522d65d46028da7a7,2024-05-13_09h39.00.209,group3.1-3.2-social-tom,2023.2.2,Linux x86_64,60.05645307,65c5074098b851296ff0b7ed,664233f324a53585686eba9f,,,,,,,,,,,,,,,,,,,,,,,,,,,,,761.7487,1,audio/Narrative8Situation7.wav,764.7532,,764.7551,776.8414,"[[79.4,93],[78.7,718],[78.1,809],[78,879],[78.3,962],[82.4,1047],[82.8,1130],[82.8,1212],[82.8,1296],[82.8,1379],[82.8,1462],[63.8,1547],[51.3,1629],[50.4,1714],[50.3,1795],[50.3,1880],[50.3,1962],[50.3,2045],[50.3,2128],[50.3,2212],[50.3,2295],[50.3,2379],[50.3,2461],[50.2,2544],[50.2,2628],[50.1,2711],[50.1,2795],[50.1,2877],[50.1,2960],[49.6,3044],[48.5,3128],[48.2,3211],[48.1,3293],[48.1,3378],[48,3460],[48,3545],[48,3626],[46.5,3712],[45.7,3793],[44.3,3876],[44.1,3960],[44.1,4043],[44.1,4127],[44.1,4209],[44.1,4293],[40.4,4377],[38.3,4460],[37.9,4544],[37.9,4625],[37.9,4709],[37.9,4792],[37.9,4875],[34.7,4960],[33.4,5042],[32.7,5125],[32.4,5208],[32.4,5291],[32.4,5375],[32.4,5458],[32.4,5541],[31.1,5625],[30.8,5708],[30.8,5791],[30.6,5876],[30.5,5958],[30.4,6041],[30.4,6124],[30.4,6208],[30.3,6290],[30.1,6374],[30,6458],[30.2,6541],[31.1,6625],[32.6,6708],[34.7,6790],[35.9,6874],[36.3,6957],[36.3,7040],[36.3,7123],[36.3,7207],[36.3,7289],[36.3,7373],[36.3,7457],[36.3,7542],[36.3,7622],[36.3,7706],[36.3,7789],[36.3,7872],[36.3,7956],[36.3,8039],[36.3,8123],[36.3,8206],[36.3,8288],[36.3,8373],[36.3,8455],[36.3,8539],[36.7,8624],[36.8,8706],[37.3,8789],[38,8872],[41.1,8955],[42.4,9039],[42.9,9121],[43.2,9207],[45.4,9288],[47.4,9372],[47.9,9460],[49.4,9538],[50.4,9621],[50.6,9706],[50.6,9787],[50.6,9872],[50.6,9954],[50.6,10037],[50.6,10121],[50.6,10203],[50.3,10290],[50.1,10371],[50.2,10454],[51.1,10538],[52,10621],[53.8,10704],[55.3,10786],[56.1,10870],[56.2,10954],[56.2,11036],[56.2,11119],[56.2,11203],[56.2,11287],[56.2,11369],[56.2,11453],[56.2,11535],[56.2,11619],[56.2,11702],[56.2,11785],[56.2,11868],[56.2,11952],[56.2,12035]]",1,0,776.842,782.2196,42.31669773,3.4821,"[{""rating"":42.31669773016997,""responseTime"":3.482099999994034}]",space,4.8464,,782.2202,Definitely yes,100,782.2303,,,[],,0,7,7,7,1,audio/Narrative7Situation7.wav,audio/Narrative8Situation7.wav,audio/Narrative5Situation7.wav,audio/Narrative6Situation7.wav,5,3,4,5,,,,,,,,,,,,,,,,,,,,,,,,,,,,,,,,,,,,,,,
,,,,,,63483c4522d65d46028da7a7,2024-05-13_09h39.00.209,group3.1-3.2-social-tom,2023.2.2,Linux x86_64,60.05645307,65c5074098b851296ff0b7ed,664233f324a53585686eba9f,,,,,,,,,,,,,,,,,,,,,,,,,,,,,782.2312,1,audio/Narrative8Situation8.wav,785.2335,,785.2336,798.0865,"[[999,1],[999,82],[999,165],[999,249],[999,332],[999,415],[999,500],[999,581],[999,667],[999,751],[999,835],[999,932],[999,1014],[42.4,1097],[43.2,1181],[43.4,1265],[43.8,1348],[43.9,1433],[44.7,1514],[47.7,1598],[48.4,1681],[48.6,1763],[48.6,1847],[48.7,1929],[49.2,2014],[50,2096],[50.3,2181],[50.3,2263],[50.3,2346],[50.3,2429],[50.3,2512],[50.3,2595],[50.3,2679],[50.3,2762],[50.3,2846],[50.3,2929],[50.3,3012],[50.3,3096],[50.3,3180],[50.3,3263],[50.3,3345],[50.3,3428],[50.3,3511],[50.3,3595],[44.2,3678],[39.2,3761],[38.3,3844],[38.2,3928],[38.2,4012],[38.2,4094],[38.2,4177],[36.1,4262],[31.9,4344],[28.7,4429],[27.6,4513],[27.5,4595],[27.5,4677],[27.5,4760],[25.9,4844],[22.3,4927],[21.7,5011],[21.7,5093],[21.7,5176],[21.7,5260],[21.7,5343],[15.6,5426],[14.4,5510],[14.4,5593],[14.4,5678],[14.4,5759],[14.4,5842],[13,5926],[10.4,6009],[10.1,6094],[10.1,6176],[10.3,6259],[10.5,6344],[10.6,6426],[10.6,6508],[11.5,6593],[13.6,6677],[13.9,6759],[14,6842],[14,6925],[14.1,7008],[14.1,7091],[14.1,7174],[14.1,7258],[14.1,7341],[14.1,7425],[14.1,7507],[14.1,7591],[14.1,7674],[14.1,7758],[14.1,7841],[14.1,7923],[14.1,8007],[14.1,8090],[14.1,8173],[14.1,8257],[14.1,8340],[14.1,8423],[16.9,8507],[18,8590],[18.4,8673],[19.4,8757],[21.9,8840],[23.6,8923],[24.4,9006],[26,9091],[28.4,9173],[30.6,9256],[31.8,9339],[32.2,9422],[32.2,9506],[32.2,9589],[32.2,9672],[47.3,9755],[62.8,9840],[63.6,9922],[63.6,10005],[63.6,10088],[63.6,10172],[63.6,10255],[63.4,10339],[62.8,10424],[62.8,10507],[63.9,10588],[64.8,10672],[65.2,10757],[65.5,10838],[65.6,10921],[65.6,11004],[65.7,11087],[65.7,11170],[65.7,11254],[65.7,11337],[65.7,11420],[65.7,11504],[65.8,11587],[66.6,11672],[67.3,11755],[67.4,11837],[67.4,11920],[67.4,12006],[67.4,12087],[67.4,12170],[67.4,12253],[67.1,12336],[65.8,12421],[65.1,12503],[64.2,12587],[62.3,12670],[61.6,12753],[61.3,12836]]",1,0,798.0877,2573.8225,52.96703982,1773.3125,"[{""rating"":52.96703982125125,""responseTime"":2.091700000017795},{""rating"":52.96703982125125,""responseTime"":1773.3125}]",space,1775.1883,,2573.8227,Partially,50,2573.836,,,[],,0,8,8,8,1,audio/Narrative7Situation8.wav,audio/Narrative8Situation8.wav,audio/Narrative5Situation8.wav,audio/Narrative6Situation8.wav,2,3,3,5,,,,,,,,,,,,,,,,,,,,,,,,,,,,,,,,,,,,,,,
,,,,,,63483c4522d65d46028da7a7,2024-05-13_09h39.00.209,group3.1-3.2-social-tom,2023.2.2,Linux x86_64,60.05645307,65c5074098b851296ff0b7ed,664233f324a53585686eba9f,,,,,,,,,,,,,,,,,,,,,,,,,,,,,2573.8386,1,audio/Narrative8Situation9.wav,2576.8546,,2576.8547,2588.176,"[[999,2],[999,86],[999,164],[999,247],[999,333],[999,427],[999,526],[999,597],[999,680],[999,763],[999,847],[999,930],[999,1013],[999,1096],[999,1179],[999,1263],[999,1347],[999,1429],[999,1512],[999,1596],[999,1679],[999,1762],[999,1845],[999,1928],[999,2011],[999,2095],[999,2178],[999,2261],[999,2347],[999,2429],[999,2512],[999,2597],[68.4,2698],[68.4,2779],[68.4,2862],[68.4,2944],[68.4,3027],[68.4,3110],[72.7,3194],[80.9,3278],[83.5,3360],[84.3,3444],[84.5,3529],[84.5,3610],[85.6,3696],[88.6,3778],[89.6,3862],[89.6,3943],[89.6,4027],[89.6,4111],[89.6,4193],[89.6,4276],[89.6,4359],[90.3,4443],[91.8,4529],[92.3,4612],[92.4,4693],[92.7,4776],[94.1,4860],[94.8,4943],[94.9,5025],[94.9,5109],[95,5192],[95.2,5275],[95.8,5359],[96.2,5442],[96.4,5525],[96.6,5608],[96.7,5691],[96.7,5774],[96.7,5858],[96.7,5941],[96.1,6025],[94.7,6108],[94.5,6191],[94.4,6281],[94.4,6358],[94.2,6445],[93.6,6526],[93.3,6609],[92.8,6695],[91.8,6778],[90.7,6858],[90.3,6944],[90.2,7024],[90.2,7108],[90.2,7190],[90.2,7274],[90.2,7356],[90.3,7440],[90.9,7524],[91.9,7609],[92.2,7695],[92.5,7777],[92.9,7859],[93.7,7943],[93.9,8026],[94,8107],[94,8189],[94,8273],[94,8356],[94,8441],[94,8523],[94,8606],[93.9,8689],[93.9,8772],[93.9,8856],[93.9,8939],[93.9,9022],[93.9,9105],[93.9,9188],[93.9,9273],[93.9,9354],[93.9,9438],[93.9,9521],[93.9,9605],[93.2,9689],[90.9,9771],[90.1,9854],[89.8,9937],[89.8,10020],[89.8,10104],[89.8,10187],[89.8,10270],[89.8,10353],[89.9,10438],[89.9,10521],[89.9,10603],[89.9,10687],[89.9,10770],[89.9,10853],[89.9,10939],[89.9,11019],[89.9,11103],[89.9,11186],[89.9,11269]]",1,0,2588.1766,2592.5064,81.03945561,3.9885,"[{""rating"":63.97795407030718,""responseTime"":2.63799999999992},{""rating"":77.46369388968265,""responseTime"":3.3704999999999927},{""rating"":81.03945561498546,""responseTime"":3.988499999999931}]",space,3.7808,,2592.5066,Partially,50,2592.5129,,,[],,0,9,9,9,1,audio/Narrative7Situation9.wav,audio/Narrative8Situation9.wav,audio/Narrative5Situation9.wav,audio/Narrative6Situation9.wav,2,3,3,4,,,,,,,,,,,,,,,,,,,,,,,,,,,,,,,,,,,,,,,
,,,,,,63483c4522d65d46028da7a7,2024-05-13_09h39.00.209,group3.1-3.2-social-tom,2023.2.2,Linux x86_64,60.05645307,65c5074098b851296ff0b7ed,664233f324a53585686eba9f,,,,,,,,,,,,,,,,,,,,,,,,,,,,,2592.5136,1,audio/Narrative7Situation1.wav,2594.5195,,2594.5197,2650.4473,"[[70.9,2181],[71.2,2265],[71.3,2347],[71.3,2430],[71.4,2514],[71.4,2597],[71.4,2682],[71.4,2763],[71.4,2846],[71.4,2929],[71.4,3012],[71.4,3099],[71.2,3181],[70.9,3262],[70.7,3346],[70.6,3429],[70.6,3512],[70.6,3595],[70.6,3680],[70.6,3762],[70.6,3845],[70.6,3928],[70.6,4013],[70.6,4094],[70.6,4179],[70.6,4262],[70.6,4345],[70.6,4428],[70.6,4511],[70.6,4594],[70.6,4677],[70.6,4762],[70.6,4845],[70.6,4928],[70.6,5010],[70.6,5093],[70.6,5178],[70.6,5261],[70.6,5344],[70.6,5427],[70.6,5510],[70.6,5595],[70.6,5678],[60.4,5766],[56.4,5844],[55.9,5927],[55.9,6010],[57,6096],[54.5,6178],[44,6260],[43.7,6343],[43.7,6425],[43.7,6510],[43.7,6592],[29,6694],[26.4,6812],[25.7,6894],[24.8,6977],[23.9,7058],[23.7,7145],[23.6,7228],[23.6,7313],[23.6,7392],[23.6,7474],[23.6,7561],[23.6,7641],[23.6,7724],[23.6,7809],[23.6,7891],[23.6,7975],[24.5,8061],[27.5,8144],[31.4,8234],[40.4,8320],[44.6,8403],[45.1,8477],[45.1,8557],[45.1,8640],[45.1,8723],[45.1,8808],[45.1,8892],[45.7,8976],[46.9,9065],[47.6,9148],[48.7,9229],[49.7,9311],[49.8,9393],[49.8,9474],[49.8,9556],[49.8,9640],[49.8,9724],[49.8,9806],[49.8,9888],[49.8,9972],[49.8,10058],[49.8,10139],[49.8,10224],[49.8,10306],[49.8,10389],[49.8,10473],[49.8,10554],[49.8,10638],[49.8,10722],[49.8,10805],[49.8,10888],[49.8,10972],[49.8,11054],[49.8,11139],[49.8,11220],[49.8,11305],[49.8,11387],[50.4,11471],[51.6,11555],[52.2,11648],[52.3,11721],[52.3,11804],[52.3,11889],[52.3,11971],[52.3,12055],[52.5,12137],[52.9,12224],[53,12309],[53.1,12392],[53.1,12472],[53.1,12553],[53.1,12636],[53.1,12719],[53.1,12805],[53.1,12888],[53.1,12969],[53.1,13052],[53.1,13139],[46.1,13223],[44.7,13314],[44.6,13397],[44.6,13471],[44.6,13552],[44.6,13634],[44.6,13720],[44.6,13805],[44.6,13887],[44.6,13967],[44.6,14053],[44.6,14134],[44.6,14222],[44.6,14303],[44.6,14387],[44.6,14470],[44.6,14554],[44.6,14633],[44.6,14718],[44.6,14800],[46.1,14884],[51.1,14969],[57.2,15052],[58.3,15136],[58.6,15217],[58.7,15303],[58.7,15383],[58.7,15467],[58.7,15556],[58.7,15633],[58.7,15717],[58.7,15800],[58.7,15883],[58.7,15968],[58.7,16050],[58.7,16133],[58.7,16225],[58.7,16305],[58.7,16382],[58.7,16465],[58.7,16548],[58.7,16633],[58.7,16715],[58.7,16799],[58.7,16884],[59.1,16966],[60.5,17057],[60.7,17140],[60.7,17221],[60.8,17298],[60.8,17382],[60.8,17465],[60.8,17548],[60.8,17631],[60.8,17716],[60.8,17798],[60.8,17881],[60.8,17964],[60.8,18047],[60.8,18130],[60.8,18215],[60.8,18299],[60.8,18381],[60.8,18464],[60.8,18547],[60.8,18630],[60.8,18714],[60.8,18798],[60.8,18880],[60.8,18966],[60.8,19046],[60.8,19130],[60.8,19214],[60.8,19296],[60.8,19380],[60.8,19463],[60.8,19547],[60.8,19632],[60.8,19712],[60.8,19795],[60.8,19882],[60.8,19962],[60.8,20046],[60.8,20131],[60.8,20212],[60.8,20297],[60.8,20380],[60.8,20461],[60.8,20546],[60.8,20628],[60.8,20711],[60.8,20794],[60.8,20879],[60.8,20962],[60.8,21045],[60.8,21127],[60.8,21211],[60.8,21294],[60.8,21380],[61,21477],[61,21562],[61.1,21645],[61.1,21731],[61.1,21810],[61.1,21895],[61.1,21976],[61.1,22060],[61.1,22143],[61.1,22226],[61.1,22311],[61.1,22394],[61.1,22477],[61.1,22559],[61.1,22644],[61.1,22726],[61.7,22814],[62,22898],[62,22976],[62,23059],[62,23142],[62,23225],[62,23309],[62,23394],[62,23476],[62,23560],[62,23643],[62,23726],[62,23810],[62,23892],[62,23976],[62,24059],[62,24144],[62,24226],[62,24308],[62,24394],[62,24475],[62,24558],[62,24646],[62,24725],[62,24809],[62,24891],[62,24976],[62,25057],[62,25141],[62,25223],[62,25309],[62,25390],[62,25473],[62,25556],[62,25640],[62,25723],[62,25806],[62,25891],[62,25974],[62,26062],[62,26141],[62,26223],[62,26307],[62,26389],[62,26472],[62,26556],[62,26639],[62,26724],[62,26806],[62,26889],[62,26974],[62,27056],[62,27138],[62,27225],[62,27305],[62,27389],[62,27472],[62,27556],[62,27638],[62,27724],[62,27804],[62,27889],[62,27971],[62,28056],[62,28137],[62,28222],[62,28304],[62,28387],[62,28471],[62,28557],[62,28637],[62,28723],[62,28804],[62,28888],[62,28970],[62,29054],[62,29137],[62,29221],[62,29303],[62,29386],[62,29470],[62,29552],[62,29636],[62,29722],[62,29802],[62,29888],[62,29969],[62,30052],[62,30136],[62,30221],[62,30304],[62,30388],[62,30471],[62,30554],[62,30635],[62,30718],[62,30802],[62,30889],[62,30969],[62,31056],[62,31137],[62,31218],[62,31301],[62,31384],[62,31467],[62,31550],[62,31635],[62,31720],[62,31800],[62,31883],[62,31967],[62,32050],[62,32133],[62,32217],[62,32300],[62,32383],[62,32467],[62,32552],[62,32633],[62,32717],[62,32799],[62,32884],[62,32969],[62,33049],[62,33133],[62,33215],[62,33299],[62,33382],[65.7,33488],[67.9,33568],[68.9,33653],[69.2,33733],[69.2,33816],[69.3,33903],[70.1,33986],[70.7,34074],[71.1,34153],[71.4,34232],[71.4,34315],[71.4,34400],[71.4,34481],[71.4,34567],[71.4,34650],[71.4,34731],[71.4,34815],[71.4,34898],[71.4,34980],[71.4,35065],[71.4,35148],[71.4,35232],[71.4,35314],[71.4,35397],[71.4,35480],[71.4,35564],[71.4,35650],[71.4,35730],[71.4,35813],[71.4,35897],[71.4,35980],[71.4,36063],[71.4,36154],[71.4,36239],[71.4,36320],[71.4,36400],[71.4,36480],[71.4,36566],[71.4,36646],[71.4,36732],[71.4,36814],[71.4,36895],[71.4,36979],[71.4,37063],[71.4,37146],[71.4,37230],[71.4,37312],[71.4,37395],[71.4,37479],[71.4,37564],[71.4,37648],[71.4,37728],[71.4,37813],[71.4,37895],[71.4,37980],[71.4,38062],[71.4,38144],[71.4,38229],[71.4,38311],[71.4,38394],[71.4,38478],[71.4,38560],[71.4,38645],[71.4,38728],[71.4,38811],[71.4,38913],[71.4,38999],[71.4,39079],[71.4,39160],[71.4,39244],[71.4,39327],[71.4,39412],[71.4,39493],[71.4,39579],[71.4,39659],[71.4,39742],[71.4,39826],[71.4,39911],[71.4,39993],[71.4,40077],[71.4,40176],[71.4,40259],[71.4,40342],[71.4,40426],[71.4,40510],[71.4,40594],[71.4,40675],[71.4,40760],[71.4,40842],[71.4,40930],[71.4,41011],[71.4,41094],[71.4,41177],[71.4,41258],[71.4,41341],[71.4,41424],[71.4,41507],[71.4,41591],[71.4,41674],[71.4,41757],[71.4,41840],[71.4,41923],[71.4,42007],[71.4,42090],[71.4,42173],[71.4,42257],[71.4,42341],[71.4,42424],[71.4,42507],[71.4,42590],[71.4,42673],[71.4,42756],[71.4,42840],[71.4,42923],[71.4,43006],[71.4,43089],[71.4,43172],[71.4,43256],[71.4,43339],[71.4,43422],[71.4,43532],[71.8,43607],[72.1,43690],[72.6,43774],[73.1,43881],[73.3,43959],[73.5,44038],[74,44124],[74.6,44210],[75.5,44295],[76.1,44381],[76.9,44465],[77.5,44550],[78.1,44629],[78.5,44711],[78.6,44792],[78.6,44872],[78.6,44955],[78.6,45039],[78.6,45120],[78.6,45204],[78.6,45287],[78.6,45371],[78.6,45456],[78.6,45538],[78.6,45621],[78.6,45704],[78.6,45787],[78.6,45870],[78.6,45954],[79,46037],[79.6,46128],[79.9,46215],[80,46297],[80.4,46377],[80.8,46466],[80.9,46542],[80.9,46623],[80.9,46706],[80.9,46787],[81,46873],[81,46954],[81,47035],[81,47119],[81,47202],[81,47285],[81,47369],[81,47451],[81,47535],[81,47621],[81,47704],[81,47786],[81,47868],[81,47951],[81,48036],[81,48118],[81,48201],[81,48286],[81,48367],[81,48451],[81,48534],[81,48617],[81,48701],[81,48785],[81,48867],[81,48952],[81,49046],[81,49122],[81,49202],[81,49283],[81,49369],[81,49453],[81,49536],[81,49621],[81,49720],[81,49800],[81,49883],[81,49967],[81,50054],[81,50132],[81,50215],[81,50301],[81,50383],[81,50466],[81,50552],[81,50632],[81,50716],[81,50804],[81,50882],[81,50965],[81,51048],[81,51131],[81,51216],[81,51298],[81,51382],[81,51467],[81,51550],[81,51632],[81,51714],[81,51798],[81,51881],[81,51965],[81,52047],[81,52131],[81,52214],[81,52297],[81,52381],[81,52464],[81,52547],[81,52630],[81,52713],[81,52797],[81,52882],[81,52963],[81,53047],[81,53130],[81,53213],[81,53296],[81,53379],[81,53463],[81,53545],[81,53629],[81,53715],[81,53796],[81,53879],[81,53965],[81,54045],[81,54130],[81,54215],[81,54296],[81,54380],[81,54463],[81,54545],[81,54631],[81,54712],[81,54794],[81,54878],[81,54964],[81,55044],[81,55128],[81,55214],[81,55294],[81,55377],[81,55463],[81,55545],[81,55627],[81,55714],[81,55820],[81,55894]]",1,0,2650.4487,2651.8955,80.94421803,0.218,"[{""rating"":80.94421803257391,""responseTime"":0.2179999999998472}]",space,0.9017,,2651.8956,Definitely yes,100,2651.906,,,[],,0,10,10,10,1,audio/Narrative8Situation1.wav,audio/Narrative7Situation1.wav,audio/Narrative6Situation1.wav,audio/Narrative5Situation1.wav,5,2,2,5,,,,,,,,,,,,,,,,,,,,,,,,,,,,,,,,,,,,,,,
,,,,,,63483c4522d65d46028da7a7,2024-05-13_09h39.00.209,group3.1-3.2-social-tom,2023.2.2,Linux x86_64,60.05645307,65c5074098b851296ff0b7ed,664233f324a53585686eba9f,,,,,,,,,,,,,,,,,,,,,,,,,,,,,2651.9068,1,audio/Narrative7Situation2.wav,2654.9105,,2654.9109,2662.4028,"[[81,947],[77.8,1698],[77.7,1779],[77.7,1864],[77.7,1947],[77.7,2029],[72.9,2113],[70.6,2196],[70.2,2281],[70.1,2364],[70.1,2445],[70.1,2529],[70.1,2612],[70.1,2696],[70.1,2779],[70.1,2862],[70.1,2945],[70.1,3028],[70.1,3111],[70.1,3196],[69.6,3284],[69.3,3364],[69.3,3445],[69.2,3529],[69.2,3612],[69.1,3696],[68.5,3779],[67.5,3863],[67.3,3947],[67.2,4031],[66.9,4112],[66.5,4195],[66,4278],[65.2,4361],[64.8,4444],[68,4528],[74.8,4611],[77.5,4694],[77.8,4780],[79.5,4860],[82.7,4946],[84.1,5030],[84.9,5113],[85.4,5193],[85.4,5276],[85.4,5361],[85.4,5443],[89.4,5526],[92.8,5609],[93.6,5694],[93.8,5777],[93.9,5859],[93.9,5942],[93.9,6025],[93.9,6109],[93.9,6193],[93.9,6278],[93.9,6358],[93.9,6442],[93.9,6527],[93.9,6610],[93.9,6692],[93.9,6781],[93.9,6860],[93.9,6947],[93.9,7026],[93.9,7109],[93.9,7192],[93.9,7277],[93.9,7358],[93.9,7442]]",1,0,2662.4033,2664.4341,91.88541367,1.6395,"[{""rating"":91.88541367298151,""responseTime"":1.6395000000002256}]",space,1.4996,,2664.4342,Not at all,0,2664.4454,,,[],,0,11,11,11,1,audio/Narrative8Situation2.wav,audio/Narrative7Situation2.wav,audio/Narrative6Situation2.wav,audio/Narrative5Situation2.wav,3,3,3,3,,,,,,,,,,,,,,,,,,,,,,,,,,,,,,,,,,,,,,,
,,,,,,63483c4522d65d46028da7a7,2024-05-13_09h39.00.209,group3.1-3.2-social-tom,2023.2.2,Linux x86_64,60.05645307,65c5074098b851296ff0b7ed,664233f324a53585686eba9f,,,,,,,,,,,,,,,,,,,,,,,,,,,,,2664.4463,1,audio/Narrative7Situation3.wav,2672.4643,,2672.4644,2681.7183,"[[96.2,2526],[94.7,2608],[93.2,2691],[91.6,2777],[90.2,2859],[89.7,2942],[89.6,3024],[89.6,3107],[89.6,3190],[89.6,3274],[89.6,3357],[89.6,3440],[89.6,3524],[89.6,3607],[83.9,3690],[78.1,3775],[77.4,3857],[77.3,3941],[77.1,4023],[77.1,4110],[77,4190],[77,4273],[77,4357],[77,4439],[77,4523],[77,4607],[77,4689],[77,4772],[77,4856],[77,4939],[76.2,5023],[75.9,5105],[75.8,5189],[75.8,5272],[76.6,5355],[78,5440],[78.7,5524],[78.8,5605],[78.8,5689],[78.8,5772],[78.8,5855],[78.8,5938],[78.8,6021],[78.8,6105],[78.8,6190],[78.8,6272],[78.8,6354],[78.8,6437],[78.8,6521],[78.8,6604],[78.8,6687],[78.8,6771],[78.8,6853],[78.8,6937],[78.8,7021],[78.8,7103],[78.8,7188],[78.8,7271],[78.8,7354],[78.8,7436],[78.8,7520],[78.8,7603],[78.8,7687],[78.8,7769],[78.8,7853],[78.8,7937],[78.8,8020],[78.8,8102],[78.8,8186],[78.8,8269],[78.8,8352],[78.8,8436],[78.8,8519],[77.8,8622],[76.4,8708],[75.5,8793],[75.3,8873],[75.3,8957],[75.2,9036],[75.1,9122]]",1,0,2681.7187,2686.5799,54.76998911,3.6887,"[{""rating"":54.76998910693502,""responseTime"":3.6887000000178887}]",space,4.3235,,2686.5801,Not at all,0,2686.5858,,,[],,0,12,12,12,1,audio/Narrative8Situation3.wav,audio/Narrative7Situation3.wav,audio/Narrative6Situation3.wav,audio/Narrative5Situation3.wav,4,8,5,3,,,,,,,,,,,,,,,,,,,,,,,,,,,,,,,,,,,,,,,
,,,,,,63483c4522d65d46028da7a7,2024-05-13_09h39.00.209,group3.1-3.2-social-tom,2023.2.2,Linux x86_64,60.05645307,65c5074098b851296ff0b7ed,664233f324a53585686eba9f,,,,,,,,,,,,,,,,,,,,,,,,,,,,,2686.5868,1,audio/Narrative7Situation4.wav,2689.5907,,2689.5908,2701.3317,"[[55.6,111],[55.6,185],[55.6,267],[55.6,350],[55.6,436],[55.6,517],[55.6,607],[55.6,683],[52.5,768],[50.7,851],[50.3,936],[50.1,1023],[50.1,1106],[50.1,1186],[51.2,1269],[54.1,1353],[54.9,1438],[55.5,1521],[56.6,1612],[57.7,1689],[58.6,1771],[59.2,1855],[59.7,1937],[60.2,2024],[60.7,2106],[61.1,2189],[61.2,2271],[61.3,2349],[61.3,2431],[61.3,2518],[61.3,2599],[61.3,2682],[61.3,2765],[61.3,2849],[61.3,2931],[61.3,3028],[61.3,3105],[61.3,3187],[61.3,3288],[61.3,3369],[59.8,3474],[59.2,3556],[59.1,3635],[59.1,3714],[59,3797],[58.2,3886],[56.6,3968],[56,4048],[55.4,4143],[55.3,4213],[55.3,4297],[55.3,4381],[55.3,4463],[55.3,4546],[55.3,4633],[55.3,4713],[55.3,4798],[55.3,4879],[55.3,4963],[55.3,5046],[55.9,5130],[57.8,5216],[58.3,5297],[58.4,5387],[58.4,5468],[58.4,5545],[58.4,5631],[58.4,5711],[58.5,5797],[58.5,5881],[58.5,5961],[58.5,6047],[58.5,6128],[58.5,6212],[58.5,6302],[58.5,6379],[58.5,6461],[58.5,6545],[58.5,6629],[58.5,6711],[58.5,6795],[58.5,6877],[58.5,6960],[58.5,7044],[58.5,7127],[58.5,7210],[58.5,7295],[58.5,7377],[58.5,7461],[58.5,7544],[58.5,7626],[58.5,7710],[58.5,7794],[58.5,7878],[58.5,7960],[58.5,8043],[58.5,8126],[58.5,8211],[58.5,8296],[58.5,8378],[58.5,8459],[58.5,8543],[58.5,8626],[58.5,8709],[58.5,8792],[58.5,8875],[58.5,8958],[58.5,9042],[58.5,9125],[58.5,9211],[58.5,9292],[58.5,9375],[58.5,9461],[58.5,9541],[58.5,9627],[58.5,9708],[58.5,9792],[58.5,9875],[58.5,9957],[58.5,10042],[58.5,10125],[58.5,10207],[58.5,10291],[58.5,10376],[58.5,10460],[58.5,10540],[58.5,10623],[58.5,10707],[58.5,10790],[58.5,10876],[58.5,10958],[58.5,11040],[58.5,11124],[58.5,11212],[58.5,11289],[58.5,11373],[58.5,11456],[58.5,11539],[58.5,11624],[58.5,11708]]",1,0,2701.3325,2703.0476,58.45275836,0.5882,"[{""rating"":58.452758357466436,""responseTime"":0.5881999999878644}]",space,1.176,,2703.0477,Partially,50,2703.0666,,,[],,0,13,13,13,1,audio/Narrative8Situation4.wav,audio/Narrative7Situation4.wav,audio/Narrative6Situation4.wav,audio/Narrative5Situation4.wav,3,3,2,1,,,,,,,,,,,,,,,,,,,,,,,,,,,,,,,,,,,,,,,
,,,,,,63483c4522d65d46028da7a7,2024-05-13_09h39.00.209,group3.1-3.2-social-tom,2023.2.2,Linux x86_64,60.05645307,65c5074098b851296ff0b7ed,664233f324a53585686eba9f,,,,,,,,,,,,,,,,,,,,,,,,,,,,,2703.0675,1,audio/Narrative7Situation5.wav,2708.0746,,2708.0747,2716.5823,"[[62.8,866],[60.6,1201],[60.9,1283],[61.5,1364],[61.9,1448],[62.2,1534],[63.3,1615],[66.8,1699],[69.6,1781],[70.1,1866],[70.1,1947],[70.1,2032],[70.1,2114],[70.1,2198],[70.1,2280],[70.1,2365],[70.1,2446],[70.1,2529],[70.1,2613],[70.1,2696],[70.1,2780],[70.1,2865],[70.1,2946],[70.1,3030],[70.1,3114],[70.1,3196],[70.1,3281],[70.1,3363],[70.1,3446],[70.1,3529],[70.1,3612],[70.1,3699],[70.1,3780],[70.1,3862],[70.1,3945],[70.1,4030],[70.1,4113],[70.1,4195],[70.1,4278],[70.1,4362],[70.1,4447],[70.1,4529],[70.1,4612],[70.1,4698],[70.1,4779],[70.1,4861],[70.1,4945],[70.1,5029],[70.1,5112],[70.1,5194],[70.1,5278],[70.1,5360],[70.1,5446],[70.1,5528],[70.1,5611],[70.1,5694],[70.1,5777],[70.1,5861],[70.1,5943],[70.1,6027],[70.1,6109],[70.1,6192],[70.1,6278],[70.1,6359],[70.1,6442],[70.1,6526],[70.1,6609],[70.1,6693],[70.1,6775],[70.1,6860],[70.1,6944],[70.1,7026],[70.1,7110],[70.1,7192],[70.1,7275],[70.1,7359],[70.1,7443],[70.2,7541],[70.2,7608],[70.2,7691],[70.2,7775],[70.1,7858],[61,7942],[57.6,8026],[57.5,8108],[57.5,8192],[57.7,8276],[58,8360],[58.2,8443]]",1,0,2716.5826,2724.3584,31.36205073,3.4235,"[{""rating"":43.93646873287277,""responseTime"":1.3453000000122302},{""rating"":32.979062268968,""responseTime"":2.1219000000060078},{""rating"":22.413579615230617,""responseTime"":2.7279000000062297},{""rating"":31.362050726542908,""responseTime"":3.423500000000331}]",space,7.229,,2724.3586,Partially,50,2724.3837,,,[],,0,14,14,14,1,audio/Narrative8Situation5.wav,audio/Narrative7Situation5.wav,audio/Narrative6Situation5.wav,audio/Narrative5Situation5.wav,2,5,2,5,,,,,,,,,,,,,,,,,,,,,,,,,,,,,,,,,,,,,,,
,,,,,,63483c4522d65d46028da7a7,2024-05-13_09h39.00.209,group3.1-3.2-social-tom,2023.2.2,Linux x86_64,60.05645307,65c5074098b851296ff0b7ed,664233f324a53585686eba9f,,,,,,,,,,,,,,,,,,,,,,,,,,,,,2724.3844,1,audio/Narrative7Situation6.wav,2727.3897,,2727.3901,2737.379,"[[34.1,2514],[34.9,2597],[36.5,2680],[37.8,2763],[38.2,2845],[39.2,2931],[40.5,3012],[41,3096],[41.1,3179],[41.1,3261],[41.1,3345],[41.1,3431],[41.1,3512],[41.1,3594],[41.1,3678],[41.1,3763],[41.1,3844],[41.1,3928],[41.1,4014],[41.1,4097],[41.1,4179],[41.1,4261],[41.1,4344],[41.1,4429],[41.1,4511],[41.1,4595],[41.1,4677],[41.1,4761],[42,4845],[42.6,4927],[42.8,5011],[42.9,5095],[42.9,5176],[43,5260],[45.7,5343],[51.2,5442],[55.1,5526],[57.7,5609],[59.1,5692],[61.4,5778],[64.6,5860],[66.4,5943],[67,6025],[67,6108],[67,6192],[67,6275],[67,6358],[67,6441],[67,6526],[67,6608],[67,6691],[67,6775],[67,6858],[67,6942],[67,7024],[67,7108],[67.8,7192],[68.8,7275],[69.9,7357],[71.5,7441],[73.2,7524],[74.2,7608],[74.8,7690],[75,7774],[75,7857],[75,7940],[75,8024],[75,8107],[75,8189],[75,8274],[75,8356],[75,8440],[75,8523],[75,8606],[75,8690],[75,8774],[75,8857],[75,8940],[75,9023],[75,9106],[75,9189],[75,9272],[75,9355],[75.2,9440],[75.7,9524],[75.9,9606],[75.9,9689],[75.9,9772],[75.9,9855],[75.9,9938]]",1,0,2737.3795,2739.5943,88.69964494,1.8069,"[{""rating"":88.69964494015908,""responseTime"":1.8068999999763946}]",space,1.6685,,2739.5944,Not at all,0,2739.6076,,,[],,0,15,15,15,1,audio/Narrative8Situation6.wav,audio/Narrative7Situation6.wav,audio/Narrative6Situation6.wav,audio/Narrative5Situation6.wav,2,3,2,3,,,,,,,,,,,,,,,,,,,,,,,,,,,,,,,,,,,,,,,
,,,,,,63483c4522d65d46028da7a7,2024-05-13_09h39.00.209,group3.1-3.2-social-tom,2023.2.2,Linux x86_64,60.05645307,65c5074098b851296ff0b7ed,664233f324a53585686eba9f,,,,,,,,,,,,,,,,,,,,,,,,,,,,,2739.6108,1,audio/Narrative7Situation7.wav,2744.6215,,2744.6217,2761.7883,"[[80.5,3241],[80.5,3314],[80.5,3396],[80.5,3479],[80.5,3564],[80.2,3647],[79.1,3729],[77.9,3813],[76.9,3896],[76.7,3980],[76.6,4062],[76.6,4145],[76.6,4228],[76.6,4311],[76.6,4396],[76.6,4479],[76.6,4561],[76.6,4645],[76.6,4728],[76.6,4811],[76.6,4894],[76.6,4978],[76.6,5061],[76.6,5144],[76.6,5229],[76.6,5312],[76.6,5394],[76.6,5477],[76.6,5562],[76.6,5645],[76.6,5727],[76.6,5810],[76.6,5893],[76.6,5976],[75.8,6061],[75.1,6143],[74.8,6227],[74.7,6309],[74.7,6393],[74.7,6476],[74.6,6559],[74.6,6643],[74.6,6726],[74.6,6809],[74.6,6892],[74.6,6976],[74.6,7059],[74.6,7143],[74.6,7226],[74.6,7309],[74.6,7392],[74.6,7475],[74.6,7558],[74.6,7642],[74.6,7725],[74.6,7808],[74.6,7892],[74.6,7974],[74.6,8059],[74.6,8141],[74.6,8226],[74.6,8308],[68.8,8391],[67.2,8474],[67,8558],[66.9,8642],[66.9,8724],[66.9,8807],[66.9,8890],[66.9,8973],[66.9,9058],[66.9,9140],[67,9224],[67,9306],[67,9390],[67,9475],[67,9558],[67.1,9640],[67.1,9723],[67.1,9806],[67.1,9890],[67.1,9974],[67.1,10056],[67.1,10140],[67.1,10223],[67.1,10306],[67.1,10389],[67.1,10472],[67.1,10556],[67.1,10639],[67.1,10722],[67.1,10806],[67.1,10889],[67.1,10972],[67.1,11055],[67.1,11138],[67.1,11221],[67.1,11305],[67.1,11388],[67.1,11471],[67.1,11555],[67.1,11639],[67.8,11721],[68.8,11805],[69.1,11888],[69.2,11971],[69.3,12055],[69.3,12138],[69.3,12221],[69.3,12305],[69.3,12387],[69.3,12470],[69.3,12553],[69.3,12638],[69.3,12721],[69.3,12805],[69.3,12887],[69.3,12970],[69.3,13054],[69.3,13137],[69.3,13219],[69.3,13303],[69.3,13387],[69.3,13469],[69.3,13554],[69.3,13638],[69.3,13719],[69.3,13802],[69.3,13885],[69.4,13969],[69.8,14052],[70,14137],[70,14218],[70,14302],[70,14385],[70,14468],[70.1,14552],[70.5,14636],[70.9,14719],[71.6,14803],[74.6,14886],[78.7,14969],[80.1,15054],[80.3,15137],[80.4,15217],[80.4,15301],[80.4,15384],[80.4,15469],[80.4,15551],[82.4,15634],[84.1,15717],[84.8,15801],[86.5,15885],[88.9,15967],[89.2,16051],[89.2,16134],[89.2,16217],[89.2,16301],[89.2,16383],[89.2,16468],[89.2,16550],[89.2,16633],[89.2,16716],[89.2,16800],[89.2,16883],[89.2,16966],[89.2,17049],[89.2,17132]]",1,0,2761.7889,2763.5042,89.18611446,1.3746,"[{""rating"":89.18611445640015,""responseTime"":1.3745999999941887}]",space,1.1707,,2763.5044,Not at all,0,2763.5118,,,[],,0,16,16,16,1,audio/Narrative8Situation7.wav,audio/Narrative7Situation7.wav,audio/Narrative6Situation7.wav,audio/Narrative5Situation7.wav,3,5,5,4,,,,,,,,,,,,,,,,,,,,,,,,,,,,,,,,,,,,,,,
,,,,,,63483c4522d65d46028da7a7,2024-05-13_09h39.00.209,group3.1-3.2-social-tom,2023.2.2,Linux x86_64,60.05645307,65c5074098b851296ff0b7ed,664233f324a53585686eba9f,,,,,,,,,,,,,,,,,,,,,,,,,,,,,2763.5128,1,audio/Narrative7Situation8.wav,2765.5191,,2765.5191,2775.5425,"[[999,1],[999,84],[999,165],[999,249],[999,333],[999,417],[999,498],[999,582],[999,667],[71.7,751],[68.9,836],[68.7,915],[68.4,998],[67.7,1082],[67.4,1165],[67.3,1248],[67.3,1331],[67.3,1414],[67.3,1497],[67.3,1580],[64.5,1665],[63.3,1750],[63,1830],[62.6,1914],[59.7,1997],[53.8,2081],[47.8,2163],[46.3,2246],[46.2,2329],[46.2,2413],[46.2,2498],[46.2,2579],[46.2,2663],[50.4,2748],[56.2,2830],[58,2913],[59,2999],[59.3,3080],[59.3,3162],[59.3,3246],[59.3,3329],[59.3,3411],[59.3,3496],[60.3,3579],[61,3662],[61.4,3746],[61.7,3829],[61.8,3911],[61.9,3995],[62.3,4078],[62.4,4162],[62.5,4244],[62.5,4327],[62.5,4410],[62.5,4494],[62.5,4578],[62.5,4662],[62.5,4744],[62.5,4827],[62.5,4911],[62.5,4993],[62.5,5077],[62.5,5161],[62.8,5244],[65,5328],[66.5,5410],[67.5,5495],[67.5,5576],[67.5,5660],[67.5,5744],[67.5,5827],[70.8,5910],[76.6,5993],[77.4,6075],[77.4,6159],[77.4,6243],[77.4,6327],[77.4,6409],[77.4,6492],[77.4,6575],[77.4,6658],[77.4,6743],[77.4,6825],[77.4,6908],[77.4,6992],[78.3,7076],[80.5,7159],[81.3,7241],[81.6,7324],[81.6,7407],[81.6,7492],[81.6,7574],[81.6,7658],[81.6,7741],[81.6,7824],[81.6,7907],[81.6,7990],[81.6,8074],[81.6,8158],[81.6,8241],[81.6,8324],[81.6,8407],[81.6,8491],[81.6,8573],[81.6,8657],[81.6,8741],[81.6,8824],[81.6,8907],[81.6,8989],[81.6,9073],[81.6,9155],[81.6,9240],[81.6,9325],[81.6,9406],[81.6,9490],[81.6,9572],[81.6,9657],[81.6,9741],[81.6,9824],[81.6,9905],[81.6,9989]]",1,0,2775.543,2778.3061,80.90063787,1.9566,"[{""rating"":76.83563107639448,""responseTime"":1.2979000000059386},{""rating"":80.90063786836343,""responseTime"":1.956599999993614}]",space,2.2127,,2778.3063,Definitely yes,100,2778.316,,,[],,0,17,17,17,1,audio/Narrative8Situation8.wav,audio/Narrative7Situation8.wav,audio/Narrative6Situation8.wav,audio/Narrative5Situation8.wav,3,2,5,3,,,,,,,,,,,,,,,,,,,,,,,,,,,,,,,,,,,,,,,
,,,,,,63483c4522d65d46028da7a7,2024-05-13_09h39.00.209,group3.1-3.2-social-tom,2023.2.2,Linux x86_64,60.05645307,65c5074098b851296ff0b7ed,664233f324a53585686eba9f,,,,,,,,,,,,,,,,,,,,,,,,,,,,,2778.317,1,audio/Narrative7Situation9.wav,2780.3216,,2780.3216,2788.9633,"[[80.9,598],[80.8,681],[80.3,765],[73.3,849],[72.9,933],[72.9,1014],[72.9,1098],[73,1181],[73,1264],[73.1,1349],[73.2,1431],[73.2,1514],[73.2,1616],[73.2,1698],[74.1,1780],[74.7,1865],[75.5,1946],[76.7,2031],[77.1,2115],[77.1,2196],[77.1,2278],[77.1,2365],[77.1,2446],[77.1,2529],[77.1,2612],[77.1,2695],[77.1,2778],[77.1,2862],[77.1,2945],[77.1,3028],[77.1,3111],[77.1,3194],[77.1,3278],[77.1,3361],[77.1,3444],[77.1,3529],[77.1,3611],[77.1,3695],[77.1,3779],[77.1,3860],[77.1,3944],[77.1,4027],[77.1,4110],[77.1,4194],[77.1,4277],[77.1,4360],[77.1,4443],[77.1,4527],[77.1,4611],[77.1,4693],[77.1,4776],[77.1,4859],[77.1,4943],[77.1,5026],[77.1,5113],[77.1,5192],[77.1,5276],[77.1,5359],[77.1,5443],[77.1,5526],[77.1,5609],[77.1,5692],[77.1,5777],[77.1,5860],[77.1,5942],[77.1,6025],[77.1,6108],[77.1,6192],[77.1,6276],[77.1,6360],[77.1,6441],[79.1,6544],[80.4,6627],[82,6714],[83.3,6793],[85.1,6878],[86.7,6961],[87.7,7049],[88.2,7125],[88.3,7207],[88.3,7291],[88.3,7374],[88.3,7457],[88.3,7540],[88.3,7623],[88.3,7710],[88.3,7792],[88.3,7874],[88.3,7956],[89.4,8045],[89.6,8124],[89.7,8210],[90,8292],[91.4,8376],[93,8459],[93.8,8549],[93.9,8625]]",1,0,2788.9644,2789.9617,93.99121171,0.5822,"[{""rating"":93.99121171287213,""responseTime"":0.5821999999880063}]",space,0.446,,2789.9618,Partially,50,2800.6694,50.19277661,7.516,"[{""rating"":50.192776607971915,""responseTime"":7.516000000000076}]",space,0,18,18,18,1,audio/Narrative8Situation9.wav,audio/Narrative7Situation9.wav,audio/Narrative6Situation9.wav,audio/Narrative5Situation9.wav,3,2,4,3,,,10.1628,,,,,,,,,,,,,,,,,,,,,,,,,,,,,,,,,,,,
,,,,,,63483c4522d65d46028da7a7,2024-05-13_09h39.00.209,group3.1-3.2-social-tom,2023.2.2,Linux x86_64,60.05645307,65c5074098b851296ff0b7ed,664233f324a53585686eba9f,,,,,,,,,,,,,,,,,,,,,,,,,,,2805.2075,2807.7763,2807.8903,2,audio/Narrative13Situation2.wav,2807.8906,,2807.8907,2837.634,"[[51.9,4847],[53.3,4932],[54.2,5020],[54.7,5101],[55,5184],[55.1,5267],[55.1,5351],[55.1,5429],[52.8,5514],[51.2,5617],[50.7,5697],[50.5,5782],[50.5,5867],[50.5,5946],[50.5,6030],[50.5,6113],[50.5,6196],[45.5,6286],[42.6,6370],[41.8,6457],[41.3,6539],[39.8,6619],[37.6,6705],[35.5,6791],[33.3,6872],[31.9,6952],[31.5,7037],[31.5,7118],[31.5,7197],[31.5,7279],[31.5,7363],[31.5,7447],[31.7,7532],[31.7,7618],[31.1,7694],[29.8,7783],[29.3,7869],[29.1,7951],[29.1,8031],[29.1,8111],[29.1,8193],[29.1,8279],[29.1,8361],[29.1,8444],[30.9,8527],[33.8,8612],[35.6,8694],[36.3,8781],[36.6,8863],[36.9,8948],[42.8,9032],[46.2,9110],[46.9,9193],[47.1,9280],[47.9,9360],[51.7,9450],[53.6,9532],[54.2,9613],[54.2,9693],[54.2,9778],[54.2,9859],[57,9944],[68.3,10035],[70.9,10119],[71.3,10201],[71.4,10279],[71.4,10358],[71.4,10441],[71.4,10524],[71.4,10608],[74.8,10695],[76.3,10781],[77,10861],[77.5,10947],[77.9,11030],[78,11108],[78.1,11198],[78.1,11277],[78.1,11357],[78.1,11442],[78.1,11524],[78.1,11607],[78.1,11691],[78.2,11775],[79,11862],[79.6,11943],[80.2,12026],[81.4,12113],[82.8,12194],[84,12277],[84.4,12356],[84.6,12445],[85.5,12525],[86.6,12609],[87.1,12694],[87.6,12775],[89.1,12864],[89.8,12950],[90.5,13029],[91.4,13112],[91.7,13195],[91.7,13272],[91.7,13356],[91.7,13442],[91.7,13526],[91.7,13607],[91.7,13689],[91.7,13774],[91.7,13860],[91.7,13939],[91.7,14021],[91.7,14105],[91.7,14188],[91.7,14271],[91.7,14357],[91.7,14440],[91.7,14521],[91.7,14606],[91.7,14688],[91.7,14771],[91.7,14856],[91.7,14938],[91.7,15022],[91.7,15103],[91.7,15187],[91.7,15271],[91.7,15356],[91.7,15437],[91.7,15523],[91.7,15607],[91.7,15687],[91.7,15770],[91.7,15853],[91.7,15936],[91.7,16019],[91.7,16103],[91.7,16187],[91.7,16271],[91.7,16352],[91.7,16435],[91.7,16520],[91.7,16605],[91.7,16687],[91.7,16770],[91.7,16852],[91.7,16936],[91.7,17018],[91.7,17101],[91.7,17188],[91.7,17268],[91.7,17356],[91.7,17434],[91.7,17518],[91.7,17601],[91.7,17684],[91.7,17767],[91.7,17850],[91.7,17934],[91.7,18017],[91.7,18102],[91.7,18184],[91.7,18269],[91.7,18350],[91.7,18433],[91.7,18517],[91.7,18600],[91.7,18684],[91.7,18767],[91.7,18850],[91.7,18933],[91.7,19016],[91.7,19101],[91.7,19183],[91.7,19266],[91.7,19349],[91.7,19433],[91.7,19517],[91.7,19599],[91.7,19682],[91.7,19766],[91.7,19849],[91.7,19933],[91.7,20015],[91.7,20099],[91.7,20182],[91.7,20265],[91.7,20349],[91.7,20432],[91.7,20515],[91.7,20598],[91.7,20684],[91.7,20765],[91.7,20848],[91.7,20933],[91.7,21015],[91.7,21098],[91.7,21181],[91.7,21264],[91.7,21347],[91.7,21431],[91.7,21514],[91.7,21598],[91.7,21681],[91.7,21764],[91.7,21847],[91.7,21930],[91.7,22013],[91.7,22096],[91.7,22180],[91.7,22263],[91.7,22346],[91.7,22430],[91.7,22514],[91.7,22596],[91.7,22680],[91.7,22763],[91.7,22846],[91.7,22930],[91.7,23012],[91.7,23096],[91.7,23179],[91.7,23262],[91.7,23347],[91.7,23429],[91.7,23513],[91.7,23596],[91.7,23679],[91.7,23762],[91.7,23845],[91.7,23928],[91.7,24013],[91.7,24095],[91.7,24179],[91.7,24263],[91.7,24344],[91.7,24428],[91.7,24511],[91.7,24596],[91.7,24677],[91.7,24761],[91.7,24844],[91.7,24927],[91.7,25011],[91.7,25094],[91.7,25177],[91.7,25260],[91.7,25343],[91.7,25427],[91.7,25511],[91.7,25593],[91.7,25676],[91.7,25760],[91.7,25844],[91.7,25927],[91.7,26010],[91.7,26092],[91.7,26177],[91.7,26260],[91.7,26344],[91.7,26426],[91.7,26509],[91.7,26592],[91.7,26675],[91.7,26761],[91.7,26842],[91.7,26925],[91.7,27010],[91.7,27092],[91.7,27175],[91.7,27259],[91.7,27342],[91.7,27437],[91.7,27525],[91.7,27608],[91.7,27693],[91.7,27775],[91.7,27859],[91.7,27941],[91.7,28025],[91.7,28108],[91.7,28192],[91.7,28274],[91.7,28360],[91.7,28441],[91.7,28524],[91.7,28609],[91.7,28691],[91.7,28777],[91.7,28858],[91.7,28942],[91.7,29023],[91.7,29107],[91.7,29189],[91.7,29273],[91.7,29357],[91.7,29439],[91.7,29523],[91.7,29609],[91.7,29690]]",1,0,2837.6355,2837.6642,,,[],,,,2837.6644,Not at all,0,2837.6746,,,[],,0,0,0,0,1,audio/Narrative13Situation2.wav,audio/Narrative13Situation2.wav,audio/Narrative13Situation2.wav,audio/Narrative13Situation2.wav,2,2,2,2,,,,,2800.6725,2805.1819,space,3.9811,,,,,,,,,,,,,,,,,,,,,,,,,,,,,,,
,,,,,,63483c4522d65d46028da7a7,2024-05-13_09h39.00.209,group3.1-3.2-social-tom,2023.2.2,Linux x86_64,60.05645307,65c5074098b851296ff0b7ed,664233f324a53585686eba9f,,,,,,,,,,,,,,,,,,,,,,,,,,,,,2837.6759,2,audio/Narrative6Situation1.wav,2839.6786,,2839.6787,2866.2533,[],1,0,2866.2537,3360.7408,92.27611463,19.8557,"[{""rating"":92.27611463194711,""responseTime"":19.85569999998779}]",space,493.9448,,3360.741,Definitely yes,100,3360.7704,,,[],,0,1,1,1,1,audio/Narrative7Situation1.wav,audio/Narrative8Situation1.wav,audio/Narrative5Situation1.wav,audio/Narrative6Situation1.wav,2,5,5,2,,,,,,,,,,,,,,,,,,,,,,,,,,,,,,,,,,,,,,,
,,,,,,63483c4522d65d46028da7a7,2024-05-13_09h39.00.209,group3.1-3.2-social-tom,2023.2.2,Linux x86_64,60.05645307,65c5074098b851296ff0b7ed,664233f324a53585686eba9f,,,,,,,,,,,,,,,,,,,,,,,,,,,,,3360.7712,2,audio/Narrative6Situation2.wav,3363.7823,,3363.7825,3392.2913,"[[25.7,9158],[24,9260],[23.5,9344],[24.3,9424],[25.7,9507],[29.4,9593],[39.3,9675],[39.5,9756],[39.5,9840],[39.5,9923],[39.5,10006],[39.5,10089],[39.5,10173],[38.3,10256],[36.2,10339],[36,10424],[35.9,10506],[35.9,10590],[35.9,10672],[35.9,10756],[35.9,10839],[35.9,10922],[35.9,11006],[35.9,11089],[35.9,11172],[35.9,11255],[35.9,11338],[33.8,11424],[33.1,11507],[33,11590],[33,11672],[33,11755],[33,11838],[33,11921],[33,12004],[33,12088],[33,12171],[33,12255],[33,12337],[33,12421],[33,12504],[33,12588],[33,12672],[33,12753],[33,12837],[33,12920],[33,13003],[33,13086],[33,13169],[33,13254],[33,13336],[33,13420],[33,13503],[33,13586],[33,13669],[33,13753],[33,13836],[33,13919],[33,14002],[33,14085],[33,14169],[33,14252],[33,14336],[33,14419],[33,14502],[33,14586],[33,14669],[33,14752],[33,14835],[33,14918],[33,15001],[33,15085],[33,15168],[33,15251],[33,15334],[33,15418],[33,15501],[33,15585],[33,15669],[33,15750],[33,15834],[33,15917],[33,16001],[33,16083],[33,16167],[33,16250],[33,16333],[33,16417],[35.6,16500],[65.8,16605],[67.2,16683],[67.4,16766],[67.4,16851],[63.2,16937],[61.8,17018],[61.6,17106],[61.6,17184],[61.6,17266],[61.5,17353],[60.7,17437],[60.6,17519],[60.6,17600],[60.6,17686],[60.6,17765],[60.6,17849],[60.6,17933],[60.6,18017],[60.6,18098],[63.8,18183],[67.8,18273],[68.5,18356],[68.9,18438],[75.6,18521]]",1,0,3392.2918,3397.1498,65.1605075,4.2177,"[{""rating"":85.40153479824768,""responseTime"":2.3817000000180997},{""rating"":78.04836962052906,""responseTime"":3.019999999999982},{""rating"":70.19786603200625,""responseTime"":3.6712000000179614},{""rating"":65.16050749793492,""responseTime"":4.217700000017885}]",space,4.3131,,3397.15,Not at all,0,3397.1599,,,[],,0,2,2,2,1,audio/Narrative7Situation2.wav,audio/Narrative8Situation2.wav,audio/Narrative5Situation2.wav,audio/Narrative6Situation2.wav,3,3,3,3,,,,,,,,,,,,,,,,,,,,,,,,,,,,,,,,,,,,,,,
,,,,,,63483c4522d65d46028da7a7,2024-05-13_09h39.00.209,group3.1-3.2-social-tom,2023.2.2,Linux x86_64,60.05645307,65c5074098b851296ff0b7ed,664233f324a53585686eba9f,,,,,,,,,,,,,,,,,,,,,,,,,,,,,3397.1607,2,audio/Narrative6Situation3.wav,3402.1654,,3402.1664,3414.7825,"[[999,24],[999,117],[999,195],[999,278],[999,361],[999,444],[999,528],[999,611],[999,695],[999,786],[999,864],[999,945],[999,1027],[999,1111],[999,1195],[999,1277],[999,1360],[999,1444],[999,1531],[999,1614],[999,1694],[60.7,1779],[64.7,1862],[64.7,1943],[64.7,2031],[64.7,2109],[64.7,2196],[64.1,2279],[63.9,2361],[64.5,2452],[65,2537],[65.1,2615],[65.1,2695],[65.1,2777],[65.1,2858],[65.1,2945],[65.1,3026],[65.8,3113],[66.8,3197],[67.7,3284],[68.4,3361],[69.4,3447],[70.1,3530],[70.3,3617],[70.3,3695],[70.3,3775],[70.3,3857],[65.8,3945],[64.9,4033],[64.6,4114],[64.6,4191],[64.6,4274],[68.1,4358],[69,4443],[69,4530],[46.8,4609],[37.3,4693],[35.4,4780],[34.6,4866],[31.6,4949],[30.8,5023],[30.8,5109],[30.8,5191],[30.8,5273],[30.8,5356],[30.8,5441],[30.8,5522],[30.8,5608],[30.8,5692],[30.8,5772],[30.8,5856],[30.8,5939],[30.8,6023],[30.8,6105],[30.8,6190],[30.8,6272],[30.8,6359],[30.8,6439],[30.8,6521],[30.8,6606],[30.8,6688],[30.8,6771],[30.8,6854],[30.8,6939],[30.8,7021],[30.8,7105],[30.8,7187],[30.8,7271],[30.8,7354],[30.8,7437],[30.8,7520],[30.8,7607],[30.8,7692],[30.8,7771],[30.8,7854],[30.8,7940],[30.8,8021],[30.8,8104],[30.8,8187],[30.8,8270],[30.8,8355],[30.8,8439],[30.8,8521],[30.8,8603],[30.8,8687],[30.8,8770],[30.8,8858],[30.8,8936],[30.8,9022],[30.8,9103],[30.8,9186],[30.8,9269],[30.8,9352],[30.8,9435],[30.8,9519],[30.8,9602],[30.8,9686],[30.8,9770],[30.8,9853],[30.8,9935],[30.8,10020],[30.8,10102],[30.8,10186],[30.8,10270],[30.8,10353],[30.8,10435],[30.8,10518],[30.8,10601],[30.8,10684],[30.8,10771],[30.8,10852],[30.8,10935],[30.8,11019],[30.8,11101],[30.8,11185],[30.8,11268],[30.8,11350],[30.8,11433],[30.8,11519],[30.8,11601],[30.8,11683],[30.8,11769],[30.8,11850],[30.8,11934],[30.8,12017],[30.8,12099],[30.8,12184],[30.8,12266],[30.8,12349],[30.8,12433],[30.8,12516],[30.8,12599]]",1,0,3414.783,3557.4442,30.35401104,8.4931,"[{""rating"":30.35401103752571,""responseTime"":8.493099999993774}]",space,142.1117,,3557.4445,Partially,50,3557.4753,,,[],,0,3,3,3,1,audio/Narrative7Situation3.wav,audio/Narrative8Situation3.wav,audio/Narrative5Situation3.wav,audio/Narrative6Situation3.wav,8,4,3,5,,,,,,,,,,,,,,,,,,,,,,,,,,,,,,,,,,,,,,,
,,,,,,63483c4522d65d46028da7a7,2024-05-13_09h39.00.209,group3.1-3.2-social-tom,2023.2.2,Linux x86_64,60.05645307,65c5074098b851296ff0b7ed,664233f324a53585686eba9f,,,,,,,,,,,,,,,,,,,,,,,,,,,,,3557.4764,2,audio/Narrative6Situation4.wav,3559.4946,,3559.4947,3572.1124,"[[62.9,4092],[65,4175],[67,4261],[68,4342],[68.7,4425],[68.8,4508],[68.8,4591],[68.8,4675],[68.8,4758],[68.8,4840],[68.8,4925],[68.8,5007],[68.8,5091],[68.8,5174],[59.2,5258],[40,5341],[32.7,5424],[29.6,5509],[29.6,5590],[29.6,5673],[29.6,5758],[29.6,5841],[29.6,5924],[29.6,6006],[29.6,6090],[29.6,6175],[29.6,6256],[29.6,6340],[29.6,6422],[29.6,6506],[29.6,6590],[29.6,6672],[29.6,6756],[29.6,6839],[29.6,6922],[29.6,7005],[29.6,7088],[29.6,7172],[29.6,7256],[29.6,7339],[29.6,7422],[29.6,7505],[29.6,7589],[29.6,7672],[29.6,7757],[29.6,7838],[29.6,7921],[29.6,8004],[29.6,8088],[29.6,8171],[29.6,8254],[29.6,8338],[29.6,8421],[29.6,8505],[29.6,8587],[29.6,8670],[29.6,8754],[29.6,8837],[29.6,8920],[29.6,9006],[29.6,9087],[29.6,9170],[29.6,9253],[29.6,9336],[29.6,9420],[29.6,9503],[29.6,9586],[29.6,9670],[29.6,9752],[29.6,9837],[29.6,9919],[29.6,10002],[29.6,10086],[29.6,10169],[29.6,10252],[29.6,10336],[29.6,10419],[29.6,10504],[29.6,10585],[29.6,10670],[29.6,10752],[29.6,10836],[29.6,10919],[29.6,11002],[29.6,11085],[29.6,11168],[29.6,11251],[29.6,11335],[29.6,11418],[29.6,11502],[29.6,11584],[29.6,11668],[29.6,11751],[29.6,11834],[29.5,11937],[30,12017],[30.6,12107],[33.1,12192],[34.3,12278],[34.5,12356],[34.6,12440],[34.6,12516],[34.6,12601]]",1,0,3572.1128,3573.294,34.55748964,0.333,"[{""rating"":34.55748963794778,""responseTime"":0.3330000000000837}]",space,0.6543,,3573.2941,Partially,50,3573.3004,,,[],,0,4,4,4,1,audio/Narrative7Situation4.wav,audio/Narrative8Situation4.wav,audio/Narrative5Situation4.wav,audio/Narrative6Situation4.wav,3,3,1,2,,,,,,,,,,,,,,,,,,,,,,,,,,,,,,,,,,,,,,,
,,,,,,63483c4522d65d46028da7a7,2024-05-13_09h39.00.209,group3.1-3.2-social-tom,2023.2.2,Linux x86_64,60.05645307,65c5074098b851296ff0b7ed,664233f324a53585686eba9f,,,,,,,,,,,,,,,,,,,,,,,,,,,,,3573.3013,2,audio/Narrative6Situation5.wav,3575.309,,3575.3091,3583.2525,"[[35,2667],[38.1,2764],[39.5,2847],[47.1,2931],[59.9,3597],[59.9,3680],[61.1,3763],[62.3,3846],[63.2,3929],[64,4012],[64.7,4097],[65,4179],[65.1,4263],[65.1,4346],[65.1,4428],[65.1,4514],[65.1,4595],[65.1,4679],[65.1,4761],[65.1,4845],[65.1,4928],[65.1,5011],[65.1,5094],[65.1,5178],[65.1,5261],[65.1,5344],[65.1,5428],[65.1,5511],[65.1,5593],[65.1,5677],[65.1,5760],[65.1,5845],[65.1,5928],[65.1,6010],[65.1,6094],[65.1,6176],[65.1,6260],[65.1,6343],[65.1,6426],[65.1,6510],[65.1,6592],[65.1,6676],[65.1,6760],[65.1,6842],[65.1,6926],[65.1,7009],[65.1,7092],[65.1,7176],[65.1,7259],[65.1,7342],[65.1,7425],[65.1,7509],[65.1,7592],[65.1,7675],[65.1,7758],[65.1,7843],[65.1,7924]]",1,0,3583.2529,3584.97,66.28077597,1.243,"[{""rating"":66.28077596500933,""responseTime"":1.2429999999999382}]",space,1.1663,,3584.9702,Not at all,0,3584.9806,,,[],,0,5,5,5,1,audio/Narrative7Situation5.wav,audio/Narrative8Situation5.wav,audio/Narrative5Situation5.wav,audio/Narrative6Situation5.wav,5,2,5,2,,,,,,,,,,,,,,,,,,,,,,,,,,,,,,,,,,,,,,,
,,,,,,63483c4522d65d46028da7a7,2024-05-13_09h39.00.209,group3.1-3.2-social-tom,2023.2.2,Linux x86_64,60.05645307,65c5074098b851296ff0b7ed,664233f324a53585686eba9f,,,,,,,,,,,,,,,,,,,,,,,,,,,,,3584.9824,2,audio/Narrative6Situation6.wav,3586.9987,,3586.9988,3598.1065,"[[41.9,6392],[42.2,6476],[42.6,6559],[42.4,6643],[42.1,6725],[42.1,6808],[42.1,6891],[42.2,6976],[42.7,7058],[43.5,7142],[44.7,7226],[45.7,7310],[46.4,7392],[47.7,7475],[48.9,7562],[49.5,7662],[49.7,7744],[49.8,7824],[49.8,7907],[49.8,7994],[49.8,8074],[49.8,8157],[49.8,8240],[49.8,8323],[49.8,8406],[49.8,8491],[49.8,8573],[49.8,8657],[49.8,8743],[49.8,8824],[49.8,8907],[49.8,8991],[49.8,9074],[49.8,9155],[49.8,9240],[49.8,9323],[49.8,9406],[49.8,9489],[49.8,9572],[49.8,9656],[49.8,9738],[49.8,9822],[49.8,9905],[49.8,9990],[49.8,10072],[49.8,10158],[49.8,10239],[49.8,10321],[49.8,10405],[49.8,10488],[49.8,10574],[49.8,10656],[49.8,10738],[49.8,10821],[49.8,10904],[49.8,11000],[49.8,11072]]",1,0,3598.1069,3599.1204,49.77091708,0.6096,"[{""rating"":49.77091707858223,""responseTime"":0.6095999999938613}]",space,0.4715,,3599.1206,Definitely yes,100,3599.1306,,,[],,0,6,6,6,1,audio/Narrative7Situation6.wav,audio/Narrative8Situation6.wav,audio/Narrative5Situation6.wav,audio/Narrative6Situation6.wav,3,2,3,2,,,,,,,,,,,,,,,,,,,,,,,,,,,,,,,,,,,,,,,
,,,,,,63483c4522d65d46028da7a7,2024-05-13_09h39.00.209,group3.1-3.2-social-tom,2023.2.2,Linux x86_64,60.05645307,65c5074098b851296ff0b7ed,664233f324a53585686eba9f,,,,,,,,,,,,,,,,,,,,,,,,,,,,,3599.1316,2,audio/Narrative6Situation7.wav,3604.1485,,3604.1486,3629.0098,"[[999,23],[999,101],[999,183],[999,264],[999,348],[999,431],[999,514],[999,598],[999,682],[999,765],[999,848],[32,932],[36.2,1098],[41.1,1182],[45.9,1264],[50.9,1347],[51.4,1430],[51.4,1514],[51.4,1597],[51.4,1680],[51.4,1763],[51.4,1846],[51.4,1930],[52.1,2015],[52.2,2096],[52.4,2181],[53.2,2263],[53.9,2348],[54.3,2429],[54.8,2514],[54.9,2595],[54.9,2679],[54.9,2763],[54.9,2846],[54.9,2929],[54.9,3012],[54.9,3096],[54.9,3178],[54.9,3262],[54.4,3347],[53.2,3430],[52.3,3511],[31.1,5032],[31.1,5115],[31.1,5194],[31.1,5279],[31.1,5360],[31.1,5443],[31.1,5527],[31.1,5611],[31.1,5695],[31.1,5776],[31.1,5859],[31.1,5942],[31.1,6027],[31.1,6110],[31.1,6192],[31.1,6275],[31.1,6361],[31.1,6443],[31.1,6525],[31.1,6608],[31.1,6692],[31.1,6774],[31.1,6859],[31.1,6942],[68.1,7031],[87.6,7112],[87.6,7192],[87.6,7278],[87.6,7360],[87.6,7443],[87.6,7524],[87.6,7608],[85.2,7693],[70,7859],[67,7941],[65.3,8030],[64.8,8114],[64.8,8193],[64.8,8275],[64.8,8356],[63.5,8447],[62.9,8528],[62.8,8609],[62.8,8689],[64.2,8773],[66.9,8861],[69.6,8944],[71,9025],[72.6,9110],[73.7,9193],[73.9,9282],[73.9,9355],[73.9,9439],[73.9,9523],[73.9,9606],[73.9,9688],[73.9,9772],[73.9,9856],[73.9,9938],[81.9,10029],[83.9,10115],[84,10194],[84,10272],[84,10355],[84,10442],[84,10522],[84,10605],[84.6,10688],[84.7,10771],[84.7,10854],[84.7,10937],[84.7,11021],[84.7,11106],[84.7,11189],[84.7,11271],[84.7,11356],[84.7,11437],[84.7,11521],[84.7,11604],[84.7,11691],[84.7,11770],[84.7,11858],[84.7,11938],[84.7,12019],[84.7,12103],[84.7,12186],[84.7,12269],[84.7,12353],[84.7,12437],[84.7,12520],[84.7,12605],[84.7,12687],[84.7,12769],[84.7,12853],[84.7,12935],[84.7,13018],[84.7,13105],[84.7,13187],[84.7,13269],[84.7,13352],[84.7,13435],[84.7,13518],[84.7,13601],[84.7,13684],[84.7,13771],[84.7,13851],[84.7,13936],[84.7,14020],[84.7,14102],[84.7,14184],[84.7,14267],[84.7,14351],[84.7,14434],[84.7,14520],[84.7,14602],[84.7,14685],[84.7,14767],[84.7,14851],[84.7,14933],[84.7,15017],[84.7,15100],[84.7,15183],[84.7,15268],[84.7,15351],[84.7,15434],[84.7,15516],[84.7,15600],[84.7,15682],[84.7,15766],[84.7,15849],[84.7,15932],[84.7,16019],[84.7,16100],[84.7,16182],[84.7,16266],[84.7,16349],[84.7,16434],[84.7,16518],[84.7,16599],[84.7,16685],[84.7,16765],[84.7,16848],[84.7,16936],[84.7,17015],[84.7,17098],[84.7,17181],[84.7,17264],[84.7,17348],[84.7,17431],[84.7,17514],[84.7,17597],[84.7,17682],[84.7,17765],[84.7,17849],[84.7,17932],[84.7,18016],[84.7,18098],[84.7,18183],[84.7,18265],[84.7,18349],[84.7,18430],[84.7,18513],[84.7,18598],[84.7,18682],[84.7,18763],[84.7,18854],[84.7,18938],[84.7,19022],[84.7,19096],[84.7,19181],[84.7,19263],[84.7,19346],[84.7,19431],[84.7,19514],[84.7,19595],[84.7,19679],[84.7,19763],[84.7,19847],[84.7,19929],[84.7,20015],[84.7,20096],[84.7,20178],[84.7,20262],[84.7,20345],[84.7,20432],[84.7,20512],[84.7,20595],[84.7,20678],[84.7,20762],[84.7,20844],[84.7,20929],[84.7,21012],[84.7,21096],[84.7,21177],[84.7,21263],[84.7,21344],[84.7,21429],[84.7,21510],[84.7,21598],[84.7,21677],[84.7,21762],[84.7,21844],[84.7,21927],[84.7,22011],[84.7,22096],[84.7,22176],[84.7,22260],[84.7,22344],[84.7,22427],[84.7,22511],[84.7,22594],[84.7,22676],[84.7,22759],[84.7,22845],[84.7,22926],[84.7,23009],[84.7,23094],[84.7,23175],[84.7,23263],[84.7,23345],[84.7,23425],[84.7,23510],[84.7,23592],[84.7,23675],[84.7,23760],[84.7,23842],[84.7,23928],[84.7,24008],[84.7,24091],[84.7,24174],[84.7,24259],[84.7,24341],[84.7,24426],[84.7,24508],[84.7,24591],[84.7,24675],[84.7,24760],[84.7,24841]]",1,0,3629.0104,3634.0859,90.25729993,4.4535,"[{""rating"":84.3212020769995,""responseTime"":2.65469999998777},{""rating"":90.25729992885611,""responseTime"":4.453500000000076}]",space,4.5345,,3634.0861,Partially,50,3634.0959,,,[],,0,7,7,7,1,audio/Narrative7Situation7.wav,audio/Narrative8Situation7.wav,audio/Narrative5Situation7.wav,audio/Narrative6Situation7.wav,5,3,4,5,,,,,,,,,,,,,,,,,,,,,,,,,,,,,,,,,,,,,,,
,,,,,,63483c4522d65d46028da7a7,2024-05-13_09h39.00.209,group3.1-3.2-social-tom,2023.2.2,Linux x86_64,60.05645307,65c5074098b851296ff0b7ed,664233f324a53585686eba9f,,,,,,,,,,,,,,,,,,,,,,,,,,,,,3634.0967,2,audio/Narrative6Situation8.wav,3639.1136,,3639.1138,3645.9573,[],1,0,3645.9575,3650.405,1.16523266,3.2714,"[{""rating"":5.122443509514629,""responseTime"":2.5032000000178414},{""rating"":1.1652326599964402,""responseTime"":3.271400000005997}]",space,3.9082,,3650.4053,Not at all,0,3650.4206,,,[],,0,8,8,8,1,audio/Narrative7Situation8.wav,audio/Narrative8Situation8.wav,audio/Narrative5Situation8.wav,audio/Narrative6Situation8.wav,2,3,3,5,,,,,,,,,,,,,,,,,,,,,,,,,,,,,,,,,,,,,,,
,,,,,,63483c4522d65d46028da7a7,2024-05-13_09h39.00.209,group3.1-3.2-social-tom,2023.2.2,Linux x86_64,60.05645307,65c5074098b851296ff0b7ed,664233f324a53585686eba9f,,,,,,,,,,,,,,,,,,,,,,,,,,,,,3650.4217,2,audio/Narrative6Situation9.wav,3654.4321,,3654.4323,3664.389,"[[999,24],[999,117],[999,199],[999,284],[999,365],[999,448],[999,534],[999,617],[999,698],[999,785],[999,867],[999,952],[999,1031],[999,1114],[999,1199],[999,1280],[999,1364],[999,1448],[999,1531],[999,1615],[999,1697],[999,1780],[999,1865],[999,1947],[999,2030],[999,2113],[999,2198],[999,2280],[999,2363],[999,2446],[999,2530],[999,2614],[999,2696],[999,2779],[999,2864],[999,2947],[999,3029],[999,3113],[999,3196],[999,3279],[999,3362],[999,3446],[999,3529],[999,3612],[999,3698],[999,3779],[999,3864],[999,3945],[999,4027],[999,4112],[999,4195],[999,4280],[999,4362],[999,4445],[999,4528],[999,4612],[999,4695],[999,4778],[999,4861],[24.5,4966],[24.5,5046],[24.5,5127],[24.5,5210],[24.2,5296],[23.9,5381],[23.7,5461],[23.3,5548],[23.3,5630],[23.5,5711],[23.7,5793],[23.8,5876],[24.1,5961],[24.2,6042],[24.2,6127],[24.2,6209],[24.2,6293],[24.2,6376],[24.2,6462],[24.2,6543],[24.2,6626],[24.2,6709],[24.2,6796],[24.2,6875],[24.2,6958],[24.2,7042],[24.2,7125],[24.2,7209],[24.2,7292],[24.2,7375],[24.2,7458],[24.2,7541],[24.2,7625],[24.2,7708],[24.2,7791],[24.2,7874],[24.2,7957],[24.2,8042],[24.2,8124],[24.2,8207],[24.2,8291],[24.2,8374],[24.2,8457],[24.2,8540],[24.2,8623],[24.2,8706],[24.2,8790],[24.2,8873],[24.2,8957],[24.2,9039],[24.2,9123],[24.2,9206],[24.2,9290],[24.2,9373],[24.2,9456],[24.2,9539],[24.2,9625],[24.2,9706],[24.2,9789],[24.2,9872],[24.2,9956]]",1,0,3664.3895,3666.4887,1.949486557,1.1671,"[{""rating"":1.9494865565528319,""responseTime"":1.1671000000237655}]",space,1.5598,,3666.4889,Definitely yes,100,3666.4984,,,[],,0,9,9,9,1,audio/Narrative7Situation9.wav,audio/Narrative8Situation9.wav,audio/Narrative5Situation9.wav,audio/Narrative6Situation9.wav,2,3,3,4,,,,,,,,,,,,,,,,,,,,,,,,,,,,,,,,,,,,,,,
,,,,,,63483c4522d65d46028da7a7,2024-05-13_09h39.00.209,group3.1-3.2-social-tom,2023.2.2,Linux x86_64,60.05645307,65c5074098b851296ff0b7ed,664233f324a53585686eba9f,,,,,,,,,,,,,,,,,,,,,,,,,,,,,3666.4991,2,audio/Narrative5Situation1.wav,3671.5151,,3671.5155,3684.8031,"[[999,25],[999,116],[999,200],[999,282],[999,365],[999,448],[999,533],[999,615],[999,698],[999,781],[999,864],[999,948],[999,1032],[999,1114],[999,1199],[999,1281],[999,1365],[999,1448],[999,1531],[999,1614],[999,1699],[48.8,2281],[49.6,2363],[49.6,2446],[49.6,2529],[49.6,2612],[49.6,2697],[49.6,2780],[49.6,2862],[49.6,2947],[49.6,3030],[49.6,3112],[49.6,3200],[49.6,3279],[49.6,3363],[49.6,3445],[49.6,3529],[49.6,3612],[49.6,3697],[49.6,3778],[49.6,3861],[49.6,3946],[49.6,4031],[49.6,4113],[34.8,4196],[21,4278],[20.7,4363],[20.7,4448],[20.7,4528],[20.7,4612],[20.7,4697],[20.7,4778],[20.7,4862],[20.7,4945],[20.7,5028],[20.7,5110],[20.7,5193],[20.7,5277],[20.7,5360],[20.7,5444],[20.7,5526],[20.7,5610],[31.2,5700],[35.1,5787],[35.3,5868],[35.3,5952],[35.3,6030],[35.3,6112],[35.3,6193],[35.3,6277],[35.3,6359],[35.3,6442],[35.3,6525],[35.3,6609],[35.3,6701],[35.3,6779],[35.3,6858],[35.3,6942],[35.3,7027],[35.3,7109],[35.3,7192],[35.3,7275],[35.3,7360],[35.3,7441],[35.3,7525],[35.3,7610],[35.3,7692],[35.3,7775],[35.3,7860],[35.3,7941],[35.3,8024],[35.3,8110],[35.3,8193],[35.3,8274],[35.3,8357],[35.3,8441],[35.3,8525],[35.3,8608],[35.3,8691],[35.3,8775],[35.3,8857],[35.3,8940],[35.3,9026],[35.3,9107],[35.3,9190],[35.3,9274],[35.3,9356],[35.3,9441],[35.3,9523],[35.3,9605],[35.3,9689],[35.3,9774],[35.3,9856],[35.3,9942],[35.3,10022],[35.3,10107],[35.3,10189],[35.3,10273],[35.3,10355],[35.3,10438],[35.3,10523],[35.3,10605],[35.3,10693],[35.3,10774],[35.3,10856],[35.3,10940],[35.3,11022],[35.3,11104],[35.3,11188],[35.3,11272],[35.3,11354],[35.3,11438],[35.3,11523],[35.3,11607],[35.3,11690],[35.3,11770],[35.3,11855],[35.3,11937],[35.3,12021],[35.3,12105],[35.3,12188],[35.3,12273],[35.3,12355],[35.3,12436],[35.3,12520],[35.3,12603],[35.3,12686],[35.3,12771],[35.3,12853],[35.3,12936],[35.3,13019],[35.3,13103],[35.3,13186],[35.3,13269]]",1,0,3684.8038,3688.6856,49.67383717,3.5289,"[{""rating"":49.67383717429434,""responseTime"":3.528900000005706}]",space,3.3428,,3688.6859,Partially,50,3688.6958,,,[],,0,10,10,10,1,audio/Narrative8Situation1.wav,audio/Narrative7Situation1.wav,audio/Narrative6Situation1.wav,audio/Narrative5Situation1.wav,5,2,2,5,,,,,,,,,,,,,,,,,,,,,,,,,,,,,,,,,,,,,,,
,,,,,,63483c4522d65d46028da7a7,2024-05-13_09h39.00.209,group3.1-3.2-social-tom,2023.2.2,Linux x86_64,60.05645307,65c5074098b851296ff0b7ed,664233f324a53585686eba9f,,,,,,,,,,,,,,,,,,,,,,,,,,,,,3688.6968,2,audio/Narrative5Situation2.wav,3691.7116,,3691.7117,3721.1759,"[[49.2,5927],[25.7,6860],[25.5,6947],[25.7,7028],[25.9,7112],[26,7194],[26,7276],[26.2,7363],[26.5,7460],[26.6,7542],[26.6,7625],[26.7,7709],[26.7,7792],[26.7,7878],[26.7,7958],[26.7,8042],[26.7,8127],[26.7,8209],[26.7,8292],[26.8,8375],[27.8,8462],[28.8,8542],[29.4,8630],[29.7,8708],[29.9,8791],[30.1,8880],[30.3,8966],[30.3,9043],[30.3,9126],[30.3,9208],[30.3,9290],[30.3,9376],[30.3,9457],[30.3,9541],[30.3,9623],[30.3,9708],[30.3,9791],[30.3,9873],[30.3,9957],[30.3,10041],[30.3,10125],[30.3,10207],[30.3,10290],[30.3,10375],[30.3,10456],[30.3,10540],[30.3,10623],[30.3,10706],[30.3,10792],[30.3,10872],[30.3,10956],[30.3,11039],[30.3,11123],[30.3,11205],[30.3,11289],[30.3,11371],[30.3,11458],[30.3,11539],[30.3,11621],[30.3,11705],[30.3,11789],[30.3,11871],[30.3,11954],[30.3,12041],[30.3,12121],[30.3,12204],[30.3,12290],[30.3,12370],[30.3,12454],[30.3,12537],[30.3,12620],[30.3,12704],[33.3,12817],[35.5,12898],[37.3,12979],[38.6,13059],[38.8,13136],[38.8,13221],[38.8,13307],[39.6,13389],[44.1,13473],[45.4,13559],[45.7,13638],[45.7,13720],[45.8,13806],[46.1,13893],[49.2,13972],[50,14056],[50.1,14136],[50.1,14220],[50.1,14303],[50.1,14385],[50.1,14469],[50.1,14553],[50.1,14636],[50.1,14720],[51.1,14806],[52.1,14888],[52.5,14970],[52.6,15052],[52.6,15137],[52.6,15220],[52.6,15302],[52.6,15385],[52.6,15468],[52.6,15551],[52.6,15635],[52.6,15717],[52.6,15801],[52.6,15883],[52.6,15967],[52.6,16050],[52.6,16133],[52.6,16217],[52.6,16300],[52.6,16383],[52.6,16466],[52.6,16550],[52.6,16633],[52.6,16716],[52.6,16800],[52.6,16884],[52.6,16966],[52.6,17052],[52.6,17133],[52.6,17217],[52.6,17300],[52.6,17383],[52.6,17470],[52.6,17549],[52.6,17632],[52.6,17717],[52.6,17800],[52.6,17882],[52.6,17967],[52.6,18048],[52.6,18133],[52.6,18218],[52.6,18299],[52.6,18385],[52.6,18465],[52.6,18548],[52.6,18631],[52.6,18714],[52.6,18798],[52.6,18881],[52.6,18964],[52.6,19047],[52.6,19133],[52.6,19215],[52.6,19298],[52.6,19383],[52.6,19464],[52.6,19547],[52.6,19633],[52.6,19715],[52.6,19797],[52.6,19882],[52.6,19963],[52.6,20046],[52.6,20129],[52.6,20215],[52.6,20296],[52.6,20383],[52.6,20467],[52.6,20549],[52.6,20630],[52.6,20713],[52.6,20795],[52.6,20881],[52.6,20962],[52.6,21045],[52.6,21130],[52.6,21212],[52.6,21298],[52.6,21379],[52.6,21463],[52.6,21545],[52.6,21628],[52.6,21713],[52.6,21796],[52.6,21878],[52.6,21961],[52.6,22045],[52.6,22128],[52.6,22212],[52.6,22294],[52.6,22378],[52.6,22461],[52.6,22544],[52.6,22629],[52.6,22710],[52.6,22794],[52.6,22878],[52.6,22960],[52.6,23044],[52.6,23127],[52.6,23213],[52.6,23296],[52.6,23376],[52.6,23460],[52.6,23543],[52.6,23628],[52.6,23710],[52.6,23794],[52.6,23879],[52.6,23960],[52.6,24043],[52.6,24126],[52.6,24210],[52.6,24293],[52.6,24375],[52.6,24459],[52.6,24542],[52.6,24625],[52.6,24709],[52.6,24793],[52.6,24880],[52.6,24958],[52.6,25042],[52.6,25126],[52.6,25208],[52.6,25291],[52.6,25377],[52.6,25459],[52.6,25541],[52.6,25624],[52.6,25707],[52.6,25791],[52.6,25875],[52.6,25960],[52.6,26041],[52.6,26125],[52.6,26207],[52.6,26291],[52.6,26373],[52.6,26458],[52.6,26540],[52.6,26624],[52.6,26707],[52.6,26790],[52.6,26876],[52.6,26959],[52.6,27039],[52.6,27125],[52.6,27207],[52.6,27289],[52.6,27374],[52.6,27458],[52.6,27540],[52.6,27622],[52.6,27706],[52.6,27789],[52.6,27875],[52.6,27955],[52.6,28039],[52.6,28122],[52.6,28205],[52.6,28288],[52.6,28372],[52.6,28455],[52.6,28538],[52.6,28622],[52.6,28705],[52.6,28789],[52.6,28871],[52.6,28956],[52.6,29038],[61.5,29141],[63.3,29221],[64.2,29312],[64.4,29393]]",1,0,3721.1767,3729.0108,66.23492709,3.2697,"[{""rating"":66.23492709001661,""responseTime"":3.2696999999880063}]",space,7.3082,,3729.011,Definitely yes,100,3737.0355,100,7.5843,"[{""rating"":99.66084867884828,""responseTime"":6.099900000006073},{""rating"":100,""responseTime"":6.867999999999938},{""rating"":100,""responseTime"":7.58429999998225}]",space,0,11,11,11,1,audio/Narrative8Situation2.wav,audio/Narrative7Situation2.wav,audio/Narrative6Situation2.wav,audio/Narrative5Situation2.wav,3,3,3,3,,,7.4816,,,,,,,,,,,,,,,,,,,,,,,,,,,,,,,,,,,,
,,,,,,63483c4522d65d46028da7a7,2024-05-13_09h39.00.209,group3.1-3.2-social-tom,2023.2.2,Linux x86_64,60.05645307,65c5074098b851296ff0b7ed,664233f324a53585686eba9f,,,,,,,,,,,,,,,,,,,,,,,,,,,,,3737.0366,2,audio/Narrative5Situation3.wav,3740.0479,,3740.0481,3753.9607,"[[99.2,1748],[67.6,3346],[67.8,3429],[61.3,3514],[53.9,3596],[53.4,3679],[53.2,3763],[52.7,3847],[52.6,3930],[52.8,4012],[53.6,4095],[54.5,4180],[55.3,4262],[55.5,4346],[55.7,4431],[55.7,4512],[55.7,4595],[55.7,4678],[55.7,4761],[55.7,4844],[55.7,4927],[55.7,5011],[55.7,5094],[55.7,5178],[55.7,5260],[55.7,5344],[55.7,5427],[55.7,5510],[55.7,5594],[55.7,5677],[55.7,5760],[55.7,5843],[55.7,5927],[56.2,6013],[59.6,6093],[60.4,6177],[60.7,6262],[60.8,6343],[60.8,6426],[60.8,6509],[60.8,6592],[60.8,6676],[60.8,6759],[60.8,6842],[60.8,6927],[60.8,7009],[60.8,7092],[60.8,7177],[60.8,7259],[60.8,7343],[60.8,7425],[60.8,7508],[60.8,7591],[60.8,7675],[60.8,7758],[60.8,7841],[60.8,7926],[60.8,8008],[60.8,8092],[60.8,8175],[60.8,8258],[60.8,8341],[60.8,8424],[60.8,8507],[60.8,8591],[60.8,8674],[60.8,8757],[60.8,8841],[60.8,8923],[60.8,9008],[60.8,9090],[60.8,9173],[60.8,9257],[60.8,9340],[60.8,9423],[60.8,9506],[60.8,9589],[60.8,9673],[60.8,9757],[60.8,9840],[60.8,9922],[64.4,10027],[65.1,10111],[65.2,10189],[65.3,10273],[65.3,10356],[65.3,10438],[65.3,10522],[65.3,10605],[65.3,10690],[65,10775],[64.6,10858],[64.5,10941],[64.5,11026],[64.5,11107],[64.5,11189],[64.5,11271],[64.5,11355],[64.5,11438],[64.5,11521],[64.5,11604],[64.5,11688],[64.5,11771],[64.5,11854],[64.5,11938],[64.5,12022],[64.5,12106],[64.5,12189],[64.5,12271],[64.5,12354],[64.5,12437],[64.5,12520],[64.5,12604],[64.5,12688],[64.5,12770],[64.5,12853],[64.5,12936],[64.5,13020],[64.5,13104],[64.5,13186],[64.5,13269],[64.5,13352],[64.5,13435],[64.5,13519],[64.5,13602],[65.4,13692],[66.3,13778],[66.9,13862]]",1,0,3753.9618,3756.7151,68.43387904,0.982,"[{""rating"":68.43387903823154,""responseTime"":0.9819999999999709}]",space,2.22,,3756.7153,Not at all,0,3756.7274,,,[],,0,12,12,12,1,audio/Narrative8Situation3.wav,audio/Narrative7Situation3.wav,audio/Narrative6Situation3.wav,audio/Narrative5Situation3.wav,4,8,5,3,,,,,,,,,,,,,,,,,,,,,,,,,,,,,,,,,,,,,,,
,,,,,,63483c4522d65d46028da7a7,2024-05-13_09h39.00.209,group3.1-3.2-social-tom,2023.2.2,Linux x86_64,60.05645307,65c5074098b851296ff0b7ed,664233f324a53585686eba9f,,,,,,,,,,,,,,,,,,,,,,,,,,,,,3756.7284,2,audio/Narrative5Situation4.wav,3757.7303,,3757.7305,3778.1275,"[[999,1],[999,83],[999,166],[999,250],[999,332],[999,415],[999,500],[999,583],[999,666],[999,748],[999,832],[999,915],[999,999],[999,1082],[999,1166],[999,1248],[999,1331],[999,1416],[999,1498],[999,1581],[999,1664],[999,1747],[999,1833],[999,1915],[999,1998],[999,2082],[999,2165],[999,2248],[48,2332],[48.8,2416],[49.9,2499],[50.2,2581],[50.3,2665],[50.4,2747],[50.4,2830],[50.4,2913],[50.4,2996],[50.4,3080],[50.4,3164],[50.4,3246],[50.4,3331],[50.4,3413],[50.4,3497],[50.4,3581],[50.4,3663],[50.4,3747],[50.4,3830],[50.4,3913],[50.4,3996],[50.4,4080],[50.4,4163],[50.4,4246],[50.4,4330],[50.4,4413],[50.4,4497],[47,4578],[39.5,4663],[33.2,4745],[32.7,4829],[32.7,4911],[32.7,4995],[32.7,5078],[32.7,5161],[26.2,5246],[25.2,5328],[25,5412],[25,5495],[25,5578],[25,5662],[25,5745],[25,5827],[23.4,5911],[20.9,5996],[20.7,6078],[20.7,6161],[20.7,6244],[20.7,6327],[20.7,6411],[13.8,6494],[12.9,6579],[11.9,6661],[10.8,6744],[9.1,6828],[8.7,6911],[8.7,6994],[8.7,7077],[8.7,7160],[8.7,7243],[8.7,7326],[8.7,7409],[8.5,7493],[8.2,7577],[8.8,7660],[9.4,7742],[9.7,7826],[9.8,7909],[9.4,7992],[8.5,8076],[8.2,8159],[7.8,8243],[7.4,8325],[7.3,8409],[7.2,8492],[7.2,8575],[7.2,8658],[7.2,8741],[7.2,8824],[7.2,8908],[7.2,8991],[7.2,9075],[7.2,9159],[7.2,9241],[7.2,9324],[7.2,9407],[8.6,9491],[18,9574],[20.8,9657],[20.8,9740],[20.8,9825],[20.8,9907],[24.6,9991],[39.3,10074],[39.7,10156],[39.7,10240],[39.7,10324],[39.7,10406],[39.7,10490],[39.7,10573],[40.3,10656],[41.4,10740],[42.4,10823],[42.6,10906],[42.6,10990],[42.6,11073],[42.6,11156],[42.6,11241],[44.1,11322],[45.4,11405],[45.9,11489],[46,11573],[46,11655],[46,11738],[46,11822],[46,11904],[46,11989],[47.1,12073],[48.4,12156],[49.3,12239],[50.3,12322],[51.4,12405],[56.4,12489],[58.2,12572],[58.8,12655],[58.8,12737],[58.8,12821],[58.8,12904],[58.8,12987],[58.8,13071],[58.8,13153],[58.8,13236],[58.9,13338],[59,13420],[59.1,13503],[59.2,13586],[59.3,13669],[59.3,13752],[59.3,13836],[59.3,13920],[59.3,14012],[59.3,14095],[59.3,14169],[59.3,14253],[59.3,14335],[59.3,14420],[59.3,14501],[59.3,14585],[59.3,14672],[59.3,14751],[59.3,14835],[59.3,14918],[59.3,15002],[59.3,15085],[59.3,15167],[59.3,15251],[59.3,15335],[59.3,15417],[59.3,15501],[59.3,15584],[59.3,15668],[59.3,15752],[59.3,15833],[59.3,15917],[59.3,16000],[59.3,16083],[59.3,16167],[59.3,16250],[59.3,16333],[59.3,16417],[59.3,16500],[59.3,16585],[59.3,16666],[59.3,16749],[59.3,16833],[59.3,16916],[59.3,17000],[59.8,17083],[61.1,17167],[69.9,17250],[71,17333],[71.1,17416],[71.1,17499],[71.1,17582],[71.1,17665],[71.1,17748],[71.1,17832],[71.3,17915],[71.9,17998],[72.1,18082],[72.1,18165],[72.1,18248],[72.1,18333],[72.2,18414],[72.2,18498],[72.2,18581],[72.2,18664],[73.1,18748],[73.8,18831],[74.9,18915],[77.3,18999],[79.5,19081],[80.6,19164],[80.7,19247],[80.7,19330],[80.7,19413],[80.7,19498],[80.7,19581],[80.7,19663],[80.7,19746],[80.7,19830],[80.7,19913],[80.7,19996],[80.7,20080],[80.7,20163],[80.7,20247],[80.7,20330]]",1,0,3778.1278,3781.1085,82.28953939,1.2143,"[{""rating"":82.28953939121621,""responseTime"":1.214299999981904}]",space,2.432,,3781.1087,Definitely yes,100,3781.1188,,,[],,0,13,13,13,1,audio/Narrative8Situation4.wav,audio/Narrative7Situation4.wav,audio/Narrative6Situation4.wav,audio/Narrative5Situation4.wav,3,3,2,1,,,,,,,,,,,,,,,,,,,,,,,,,,,,,,,,,,,,,,,
,,,,,,63483c4522d65d46028da7a7,2024-05-13_09h39.00.209,group3.1-3.2-social-tom,2023.2.2,Linux x86_64,60.05645307,65c5074098b851296ff0b7ed,664233f324a53585686eba9f,,,,,,,,,,,,,,,,,,,,,,,,,,,,,3781.1197,2,audio/Narrative5Situation5.wav,3786.1203,,3786.1205,3801.5303,"[[60.5,2363],[55.5,2448],[54.9,2530],[54.9,2613],[54.9,2695],[54.9,2779],[48.8,2863],[41,2946],[38.4,3028],[38.4,3112],[38.4,3195],[38.4,3278],[28.9,3361],[15.6,3446],[15.3,3530],[15.2,3611],[18.9,3695],[22.7,3778],[25,3862],[30.3,3945],[32.3,4028],[32.3,4111],[32.3,4194],[32.3,4278],[32.3,4361],[32.3,4444],[32.3,4528],[32.3,4612],[32.3,4694],[32.3,4777],[32.3,4860],[32.3,4943],[32.3,5026],[32.3,5111],[29.8,5194],[24.5,5277],[24.1,5361],[24.1,5443],[24.1,5527],[24.1,5610],[24.1,5693],[24.1,5776],[24.1,5859],[24.1,5943],[24.1,6025],[24.1,6109],[24.1,6193],[24.3,6277],[24.3,6359],[24.6,6442],[25.6,6528],[26,6611],[26.6,6693],[27.4,6778],[28.1,6858],[28.5,6943],[28.6,7024],[29,7108],[30,7193],[30.6,7275],[31.2,7358],[32.4,7443],[33.2,7524],[33.6,7608],[34.2,7692],[34.4,7774],[34.4,7857],[34.4,7940],[34.4,8023],[34.4,8108],[34.4,8191],[34.4,8273],[34.9,8358],[35.3,8441],[35.7,8525],[35.9,8606],[35.9,8691],[35.9,8773],[35.9,8857],[35.9,8940],[35.9,9023],[35.9,9106],[35.9,9189],[35.9,9272],[35.9,9357],[35.9,9439],[35.9,9522],[35.9,9606],[35.9,9689],[35.9,9772],[35.9,9855],[35.9,9938],[35.9,10022],[35.9,10106],[35.9,10188],[35.9,10271],[35.9,10354],[35.9,10438],[35.9,10521],[35.9,10605],[35.9,10688],[35.9,10771],[35.9,10855],[35.9,10938],[35.9,11021],[35.9,11105],[35.9,11187],[35.9,11270],[35.9,11353],[35.9,11437],[35.9,11520],[35.9,11603],[35.9,11687],[35.9,11770],[35.9,11855],[35.9,11937],[35.9,12020],[35.9,12104],[35.9,12187],[35.9,12269],[35.9,12354],[35.9,12436],[35.9,12519],[35.9,12602],[35.9,12686],[35.9,12769],[35.9,12854],[35.9,12936],[35.9,13019],[35.9,13102],[35.9,13185],[35.9,13270],[35.9,13352],[35.9,13435],[35.9,13518],[35.9,13602],[35.9,13686],[35.9,13769],[35.9,13852],[35.9,13935],[35.9,14018],[35.9,14102],[35.9,14184],[35.9,14267],[35.9,14351],[35.9,14434],[35.9,14519],[35.9,14602],[35.9,14684],[35.9,14769],[35.9,14851],[35.9,14934],[35.9,15018],[35.9,15100],[37.5,15184],[43.1,15290],[48.9,15377]]",1,0,3801.5308,3805.3217,46.53024876,2.6389,"[{""rating"":57.87101103344532,""responseTime"":1.6702000000177577},{""rating"":46.53024876285926,""responseTime"":2.638900000005833}]",space,3.2534,,3805.3219,Definitely yes,100,3805.3283,,,[],,0,14,14,14,1,audio/Narrative8Situation5.wav,audio/Narrative7Situation5.wav,audio/Narrative6Situation5.wav,audio/Narrative5Situation5.wav,2,5,2,5,,,,,,,,,,,,,,,,,,,,,,,,,,,,,,,,,,,,,,,
,,,,,,63483c4522d65d46028da7a7,2024-05-13_09h39.00.209,group3.1-3.2-social-tom,2023.2.2,Linux x86_64,60.05645307,65c5074098b851296ff0b7ed,664233f324a53585686eba9f,,,,,,,,,,,,,,,,,,,,,,,,,,,,,3805.3292,2,audio/Narrative5Situation6.wav,3808.3312,,3808.3313,3814.0274,"[[30.9,2113],[30.9,2197],[30.9,2281],[30.9,2363],[30.9,2447],[30.9,2530],[28.1,2613],[27.7,2697],[27.7,2780],[27.7,2862],[27.7,2946],[27.7,3029],[27.7,3114],[27.7,3197],[27.7,3279],[27.7,3362],[27.7,3446],[27.7,3529],[27.7,3612],[27.7,3695],[27.7,3778],[27.7,3863],[27.7,3946],[27.7,4028],[27.7,4112],[27.7,4195],[27.7,4278],[27.7,4362],[27.7,4446],[27.7,4528],[27.7,4612],[27.7,4695],[27.7,4777],[27.7,4861],[27.7,4944],[27.7,5027],[27.7,5111],[27.7,5193],[27.7,5278],[27.7,5360],[28.6,5457],[29.6,5527],[30.4,5611],[31.8,5695]]",1,0,3814.0277,3818.306,56.30547187,3.2537,"[{""rating"":49.78761865157485,""responseTime"":2.58969999998817},{""rating"":56.30547187252631,""responseTime"":3.25369999998793}]",space,3.7331,,3818.3066,Partially,50,3818.3164,,,[],,0,15,15,15,1,audio/Narrative8Situation6.wav,audio/Narrative7Situation6.wav,audio/Narrative6Situation6.wav,audio/Narrative5Situation6.wav,2,3,2,3,,,,,,,,,,,,,,,,,,,,,,,,,,,,,,,,,,,,,,,
,,,,,,63483c4522d65d46028da7a7,2024-05-13_09h39.00.209,group3.1-3.2-social-tom,2023.2.2,Linux x86_64,60.05645307,65c5074098b851296ff0b7ed,664233f324a53585686eba9f,,,,,,,,,,,,,,,,,,,,,,,,,,,,,3818.317,2,audio/Narrative5Situation7.wav,3822.3175,,3822.3176,3843.3815,"[[51.3,1036],[50,1124],[49.8,1204],[49.9,1284],[50.2,1368],[50.4,1452],[51.5,1539],[52.9,1618],[54.7,1705],[61.8,1786],[64.2,1868],[64.5,1948],[64.4,2031],[60.7,2114],[60,2200],[59.5,2282],[59.4,2365],[59.4,2447],[59.4,2532],[59.4,2615],[59.4,2697],[59.4,2780],[59.4,2866],[59.4,2947],[59.4,3031],[59.4,3113],[59.4,3197],[59.4,3279],[59.4,3362],[59.4,3446],[59.4,3530],[59.4,3613],[59.4,3695],[59.4,3778],[59.4,3862],[59.4,3947],[59.4,4030],[59.4,4112],[59.4,4197],[59.4,4278],[59.4,4361],[59.4,4451],[59.4,4530],[59.4,4611],[59.4,4696],[59.4,4778],[59.4,4862],[59.4,4945],[59.4,5028],[59.4,5112],[59.4,5199],[59.4,5277],[59.4,5363],[59.4,5444],[59.4,5527],[59.4,5610],[59.4,5693],[59.4,5778],[59.4,5862],[59.4,5944],[59.4,6028],[59.4,6111],[59.4,6193],[59.4,6277],[59.4,6360],[59.4,6443],[59.4,6526],[59.4,6609],[59.4,6693],[59.4,6777],[59.4,6863],[59.4,6942],[59.4,7026],[59.4,7109],[59.4,7194],[59.4,7276],[59.4,7359],[59.4,7442],[59.4,7525],[59.4,7609],[59.4,7692],[59.4,7775],[59.4,7860],[59.4,7941],[59.4,8024],[59.4,8108],[59.4,8193],[59.4,8274],[59.4,8360],[59.4,8443],[59.4,8524],[59.4,8607],[59.4,8690],[59.4,8774],[59.4,8857],[59.4,8940],[59.4,9024],[59.4,9110],[59.4,9190],[59.4,9273],[59.4,9356],[59.4,9440],[59.4,9524],[59.4,9607],[59.4,9689],[59.4,9773],[59.4,9856],[59.4,9939],[59.4,10023],[59.4,10105],[59.4,10189],[59.4,10276],[59.4,10355],[59.4,10440],[59.4,10524],[59.4,10605],[59.4,10688],[59.4,10772],[59.4,10855],[59.4,10939],[59.4,11022],[59.4,11105],[59.4,11188],[59.4,11273],[59.4,11355],[59.4,11439],[59.4,11521],[59.4,11606],[59.4,11688],[59.4,11771],[59.4,11857],[59.4,11938],[49.9,12050],[39.8,12620],[39.9,12712],[40.1,12797],[40.4,12881],[40.7,12957],[40.7,13040],[40.7,13122],[39.9,13205],[39.8,13288],[39.8,13369],[39.8,13455],[39.8,13537],[39.8,13620],[39.8,13703],[39.8,13786],[39.8,13869],[39.8,13952],[39.8,14035],[39.8,14118],[39.8,14201],[39.8,14285],[39.8,14369],[39.8,14451],[39.7,14536],[39.7,14618],[39.7,14701],[39.7,14788],[39.7,14868],[39.7,14953],[39.7,15035],[39.7,15117],[39.7,15204],[39.7,15285],[39.7,15368],[39.7,15452],[39.7,15534],[39.7,15617],[39.7,15700],[39.7,15784],[39.7,15869],[39.7,15951],[39.7,16033],[39.7,16117],[39.7,16200],[39.7,16283],[39.7,16369],[39.7,16452],[39.7,16534],[39.7,16616],[39.7,16703],[39.7,16783],[39.7,16867],[39.7,16952],[39.7,17032],[39.7,17117],[39.7,17200],[39.7,17282],[39.7,17365],[39.7,17452],[39.7,17533],[39.7,17617],[39.7,17698],[39.7,17782],[39.7,17867],[39.7,17948],[39.7,18031],[39.7,18118],[39.7,18198],[39.7,18282],[39.7,18365],[39.7,18448],[39.7,18532],[39.7,18615],[39.7,18698],[39.7,18780],[39.7,18864],[39.7,18949],[39.7,19037],[39.7,19114],[39.7,19197],[39.7,19281],[39.7,19363],[39.7,19447],[39.7,19530],[39.7,19616],[39.7,19698],[39.7,19779],[39.7,19866],[39.7,19946],[39.7,20032],[39.7,20113],[39.7,20196],[39.7,20280],[39.7,20362],[39.7,20447],[39.7,20530],[39.7,20612],[39.7,20697],[39.7,20782],[39.7,20863],[39.7,20946],[39.7,21029]]",1,0,3843.3823,3844.7121,31.47028915,0.8562,"[{""rating"":31.470289148046955,""responseTime"":0.8562000000179069}]",space,0.8011,,3844.7123,Partially,50,3844.7196,,,[],,0,16,16,16,1,audio/Narrative8Situation7.wav,audio/Narrative7Situation7.wav,audio/Narrative6Situation7.wav,audio/Narrative5Situation7.wav,3,5,5,4,,,,,,,,,,,,,,,,,,,,,,,,,,,,,,,,,,,,,,,
,,,,,,63483c4522d65d46028da7a7,2024-05-13_09h39.00.209,group3.1-3.2-social-tom,2023.2.2,Linux x86_64,60.05645307,65c5074098b851296ff0b7ed,664233f324a53585686eba9f,,,,,,,,,,,,,,,,,,,,,,,,,,,,,3844.7206,2,audio/Narrative5Situation8.wav,3847.7257,,3847.726,3856.5507,"[[44.8,3249],[46.7,3331],[48.4,3413],[50.7,3499],[54.1,3580],[56.3,3663],[56.6,3746],[56.7,3829],[56.7,3912],[56.7,3996],[56.8,4080],[56.8,4163],[56.8,4246],[56.8,4330],[47.4,4415],[36.1,4496],[32,4579],[31.6,4674],[31.5,4774],[31.5,4845],[31.4,4929],[31.4,5012],[31.4,5095],[31.4,5177],[32.3,5261],[32.8,5345],[32.9,5427],[33.2,5514],[34.1,5595],[34.8,5677],[35.3,5760],[35.6,5844],[35.8,5927],[35.8,6011],[35.8,6093],[35.8,6176],[35.8,6260],[35.8,6343],[35.8,6426],[35.8,6510],[35.8,6594],[35.8,6676],[35.8,6759],[35.8,6843],[35.8,6926],[35.8,7009],[35.8,7092],[35.8,7176],[35.8,7259],[35.8,7341],[35.8,7427],[35.8,7509],[35.8,7592],[35.8,7675],[35.8,7758],[35.8,7841],[35.8,7924],[35.8,8008],[35.8,8091],[35.8,8174],[35.8,8258],[35.8,8346],[35.8,8424],[35.8,8509],[35.8,8590],[35.8,8674],[35.8,8757]]",1,0,3856.5513,3859.3664,7.983774533,2.0911,"[{""rating"":7.983774532867405,""responseTime"":2.091099999994185}]",space,2.2691,,3859.3667,Partially,50,3859.3753,,,[],,0,17,17,17,1,audio/Narrative8Situation8.wav,audio/Narrative7Situation8.wav,audio/Narrative6Situation8.wav,audio/Narrative5Situation8.wav,3,2,5,3,,,,,,,,,,,,,,,,,,,,,,,,,,,,,,,,,,,,,,,
