exp_question,consent.started,consent.stopped,consentResponse.keys,consentResponse.rt,consentResponse.duration,participantID,date,expName,psychopyVersion,OS,frameRate,STUDY_ID,SESSION_ID,opening1.started,opening1.stopped,keyEndingOpening1.keys,keyEndingOpening1.rt,keyEndingOpening1.duration,volumeAdjust.started,volumeAdjust.stopped,endingAdjust.keys,endingAdjust.rt,endingAdjust.duration,opening2.started,opening2.stopped,keyEndingOpening.keys,keyEndingOpening.rt,keyEndingOpening.duration,mouse.x,mouse.y,mouse.leftButton,mouse.midButton,mouse.rightButton,mouse.time,instructionLoop.thisRepN,instructionLoop.thisTrialN,instructionLoop.thisN,instructionLoop.thisIndex,instructionLoop.ran,readyForAudio.started,readyForAudio.stopped,fixation.started,run,audio_played,fixation.stopped,endPractice.keys,audioPre.started,audioPre.stopped,continuousResponses_audio,continuousSlider.response,continuousSlider.rt,intRating.started,intRating.stopped,intQuestionSlider.response,intQuestionSlider.rt,intQuestionSlider.history,confirmResponse.keys,confirmResponse.rt,confirmResponse.duration,catchQuestion.started,catch_label,catch_value,catchQuestion.stopped,catchQuestionSlider.response,catchQuestionSlider.rt,catchQuestionSlider.history,confirmResponse_2.keys,audioRunLoop.thisRepN,audioRunLoop.thisTrialN,audioRunLoop.thisN,audioRunLoop.thisIndex,audioRunLoop.ran,conditions1_1,conditions2_1,conditions1_2,conditions2_2,dur1_1,dur2_1,dur1_2,dur2_2,endPractice.rt,endPractice.duration,confirmResponse_2.rt,confirmResponse_2.duration,runIntervalBreak.started,runIntervalBreak.stopped,endingBreakKey.keys,endingBreakKey.rt,endingBreakKey.duration,connection.started,connection.stopped,connectionEnding.keys,connectionEnding.rt,connectionEnding.duration,readyForText.started,readyForText.stopped,textPre.started,run_dup,textPre.stopped,continuousResponses_text,textRunLoop.thisRepN,textRunLoop.thisTrialN,textRunLoop.thisN,textRunLoop.thisIndex,textRunLoop.ran,text1_1,text1_2,text2_1,text2_2,runBreakText.started,runBreakText.stopped,endingBreakKey_2.keys,endingBreakKey_2.rt,endingBreakKey_2.duration,ending.started,ending.stopped,endingEnding.keys,endingEnding.rt,endingEnding.duration
social,0.0004,6.4746,y,6.1429,,63d141f0a7b0e7ea9526e89d,2024-05-13_11h50.21.532,group3.1-3.2-social-tom,2023.2.2,Win32,57.80346821,65c5074098b851296ff0b7ed,664235387894182f22ce78b6,,,,,,,,,,,,,,,,,,,,,,,,,,,,,,,,,,,,,,,,,,,,,,,,,,,,,,,,,,,,,,,,,,,,,,,,,,,,,,,,,,,,,,,,,,,,,,,,,,,,,,,,,,
,,,,,,63d141f0a7b0e7ea9526e89d,2024-05-13_11h50.21.532,group3.1-3.2-social-tom,2023.2.2,Win32,57.80346821,65c5074098b851296ff0b7ed,664235387894182f22ce78b6,6.4757,13.6168,space,7.061,,,,,,,,,,,,,,,,,,,,,,,,,,,,,,,,,,,,,,,,,,,,,,,,,,,,,,,,,,,,,,,,,,,,,,,,,,,,,,,,,,,,,,,,,,,,,,,,,,,,,,
,,,,,,63d141f0a7b0e7ea9526e89d,2024-05-13_11h50.21.532,group3.1-3.2-social-tom,2023.2.2,Win32,57.80346821,65c5074098b851296ff0b7ed,664235387894182f22ce78b6,,,,,,13.6172,21.5067,space,7.5772,,,,,,,,,,,,,,,,,,,,,,,,,,,,,,,,,,,,,,,,,,,,,,,,,,,,,,,,,,,,,,,,,,,,,,,,,,,,,,,,,,,,,,,,,,,,,,,,,
,,,,,,63d141f0a7b0e7ea9526e89d,2024-05-13_11h50.21.532,group3.1-3.2-social-tom,2023.2.2,Win32,57.80346821,65c5074098b851296ff0b7ed,664235387894182f22ce78b6,,,,,,,,,,,21.527,31.6578,space,10.0815,,[],[],[],[],[],[],0,0,0,0,1,,,,,,,,,,,,,,,,,,,,,,,,,,,,,,,,,,,,,,,,,,,,,,,,,,,,,,,,,,,,,,,,,,,,,,,,,,,,,,,,
,,,,,,63d141f0a7b0e7ea9526e89d,2024-05-13_11h50.21.532,group3.1-3.2-social-tom,2023.2.2,Win32,57.80346821,65c5074098b851296ff0b7ed,664235387894182f22ce78b6,,,,,,,,,,,31.6593,52.2726,space,20.3347,,[],[],[],[],[],[],1,0,1,0,1,,,,,,,,,,,,,,,,,,,,,,,,,,,,,,,,,,,,,,,,,,,,,,,,,,,,,,,,,,,,,,,,,,,,,,,,,,,,,,,,
,,,,,,63d141f0a7b0e7ea9526e89d,2024-05-13_11h50.21.532,group3.1-3.2-social-tom,2023.2.2,Win32,57.80346821,65c5074098b851296ff0b7ed,664235387894182f22ce78b6,,,,,,,,,,,52.2984,68.6374,space,16.2776,,[],[],[],[],[],[],2,0,2,0,1,,,,,,,,,,,,,,,,,,,,,,,,,,,,,,,,,,,,,,,,,,,,,,,,,,,,,,,,,,,,,,,,,,,,,,,,,,,,,,,,
,,,,,,63d141f0a7b0e7ea9526e89d,2024-05-13_11h50.21.532,group3.1-3.2-social-tom,2023.2.2,Win32,57.80346821,65c5074098b851296ff0b7ed,664235387894182f22ce78b6,,,,,,,,,,,68.6705,91.2041,space,22.481,,[],[],[],[],[],[],3,0,3,0,1,,,,,,,,,,,,,,,,,,,,,,,,,,,,,,,,,,,,,,,,,,,,,,,,,,,,,,,,,,,,,,,,,,,,,,,,,,,,,,,,
,,,,,,63d141f0a7b0e7ea9526e89d,2024-05-13_11h50.21.532,group3.1-3.2-social-tom,2023.2.2,Win32,57.80346821,65c5074098b851296ff0b7ed,664235387894182f22ce78b6,,,,,,,,,,,91.2383,105.3858,space,14.1037,,[],[],[],[],[],[],4,0,4,0,1,,,,,,,,,,,,,,,,,,,,,,,,,,,,,,,,,,,,,,,,,,,,,,,,,,,,,,,,,,,,,,,,,,,,,,,,,,,,,,,,
,,,,,,63d141f0a7b0e7ea9526e89d,2024-05-13_11h50.21.532,group3.1-3.2-social-tom,2023.2.2,Win32,57.80346821,65c5074098b851296ff0b7ed,664235387894182f22ce78b6,,,,,,,,,,,,,,,,,,,,,,,,,,,105.426,108.0026,108.094,1,audio/Narrative13Situation2.wav,110.1024,,110.1031,139.903,"[[999,3],[999,204],[999,287],[999,365],[999,454],[999,531],[999,621],[999,704],[999,788],[999,870],[999,952],[999,1036],[999,1115],[999,1203],[999,1282],[999,1370],[999,1449],[999,1537],[999,1621],[999,1704],[999,1782],[999,1870],[999,1953],[999,2036],[999,2119],[999,2202],[999,2281],[999,2369],[999,2448],[999,2536],[999,2614],[999,2703],[999,2781],[999,2870],[999,2952],[999,3031],[999,3119],[999,3202],[999,3281],[999,3369],[999,3453],[999,3536],[999,3614],[999,3702],[999,3781],[999,3870],[999,3947],[999,4036],[999,4114],[999,4198],[999,4286],[999,4368],[999,4452],[999,4536],[999,4619],[999,4703],[999,4785],[999,4870],[999,4953],[999,5036],[999,5119],[999,5198],[999,5285],[999,5365],[999,5453],[999,5532],[999,5620],[999,5703],[999,5782],[999,5870],[999,5954],[999,6036],[999,6120],[999,6198],[999,6287],[999,6370],[999,6452],[999,6536],[999,6620],[999,6703],[999,6786],[999,6869],[999,6948],[999,7036],[999,7119],[999,7204],[999,7281],[999,7369],[999,7448],[999,7532],[999,7620],[999,7704],[999,7786],[999,7870],[999,7952],[999,8031],[999,8120],[999,8204],[999,8286],[999,8370],[999,8452],[999,8536],[999,8619],[999,8698],[999,8786],[999,8869],[999,8953],[999,9036],[999,9121],[999,9203],[999,9287],[999,9370],[999,9448],[999,9536],[999,9620],[999,9703],[999,9781],[999,9870],[999,9948],[999,10036],[999,10115],[999,10232],[999,10316],[90.4,10398],[92.9,10481],[95.7,10648],[95.7,10731],[96,10815],[96.3,10898],[96.3,10981],[96.3,11066],[96.3,11148],[96.3,11231],[96.3,11314],[96.3,11398],[96.3,11481],[96.3,11564],[96.3,11648],[96.3,11731],[96.3,11814],[96.3,11898],[96.3,11981],[96.3,12064],[96.3,12148],[96.3,12231],[96.3,12314],[96.3,12397],[96.3,12481],[96.3,12564],[96.3,12648],[96.3,12731],[96.3,12814],[96.3,12897],[96.3,12981],[96.3,13064],[96.3,13147],[96.3,13231],[96.3,13314],[96.3,13397],[96.3,13481],[96.3,13564],[96.3,13648],[96.3,13735],[96.3,13814],[96.3,13897],[96.3,13981],[96.3,14064],[96.3,14147],[96.3,14231],[96.3,14314],[96.3,14398],[96.3,14481],[96.3,14564],[96.3,14647],[96.3,14731],[96.3,14814],[96.3,14897],[96.3,14981],[96.3,15064],[96.3,15148],[96.3,15231],[96.3,15314],[96.3,15397],[96.3,15481],[96.3,15564],[96.3,15647],[96.3,15731],[96.3,15815],[99.8,15914],[100,15998],[100,16081],[100,16164],[100,16247],[100,16331],[100,16414],[100,16497],[100,16581],[100,16664],[100,16747],[100,16831],[100,16915],[47.1,23023],[48,23105],[49,23188],[49.1,23269],[49.1,23349],[47.8,23440],[38.7,23521],[0.2,24188],[1.1,24271],[1.2,24352],[1.2,24436],[1,24520],[0.8,24602],[0.8,24686],[0.8,24768],[0.8,24852],[0.8,24936],[0.8,25013],[0.8,25100],[0.8,25185],[0.8,25268],[0.8,25352],[0.8,25435],[0.8,25519],[0.8,25603],[0.8,25681],[0.8,25769],[0.8,25852],[0.8,25930],[0.8,26020],[0.8,26097],[0.8,26186],[0.8,26264],[0.8,26353],[0.8,26435],[0.8,26519],[0.8,26597],[0.8,26686],[0.8,26769],[0.8,26852],[0.8,26935],[0.8,27013],[0.8,27102],[0.8,27181],[0.8,27269],[0.8,27347],[0.8,27436],[0.8,27514],[0.8,27603],[0.8,27685],[0.8,27769],[0.8,27852],[0.8,27930],[0.8,28018],[0.8,28102],[0.8,28185],[0.8,28264],[0.8,28351],[0.8,28431],[0.8,28519],[0.8,28597],[0.8,28686],[0.8,28764],[0.8,28852],[0.8,28936],[0.8,29014],[0.8,29102],[0.8,29181],[0.8,29268],[0.8,29353],[0.8,29435],[0.8,29520],[0.8,29603],[0.8,29702],[0.8,29785]]",1,0,139.9038,147.4741,49.26793558,5.254,"[{""rating"":49.26793557833089,""responseTime"":5.253999999999991}]",space,7.0168,,147.4751,Definitely yes,100,147.4925,,,[],,0,0,0,0,1,audio/Narrative13Situation2.wav,audio/Narrative13Situation2.wav,audio/Narrative13Situation2.wav,audio/Narrative13Situation2.wav,2,2,2,2,,,,,,,,,,,,,,,,,,,,,,,,,,,,,,,,,,,,,,,
,,,,,,63d141f0a7b0e7ea9526e89d,2024-05-13_11h50.21.532,group3.1-3.2-social-tom,2023.2.2,Win32,57.80346821,65c5074098b851296ff0b7ed,664235387894182f22ce78b6,,,,,,,,,,,,,,,,,,,,,,,,,,,,,147.4935,1,audio/Narrative8Situation1.wav,149.604,space,149.6041,165.5157,"[[55.6,5113],[61.7,5195],[67,5280],[70.1,5364],[72,5447],[74.2,5530],[76.9,5612],[78.1,5695],[79,5779],[79.4,5861],[79.4,5945],[79.4,6028],[79.4,6112],[78.8,6195],[78.3,6278],[77.7,6362],[77.5,6444],[77.5,6528],[77.1,6611],[77.1,6695],[77.1,6778],[77.1,6861],[77.1,6944],[77.1,7028],[77.1,7111],[77.1,7195],[77.1,7278],[77.1,7362],[77.1,7445],[77.1,7528],[77.1,7611],[77.1,7695],[77.1,7778],[77.1,7862],[77.1,7945],[77.1,8028],[77.1,8112],[77.1,8194],[77.1,8278],[77.1,8361],[77.1,8444],[77.1,8528],[77.1,8611],[77.1,8695],[77.1,8778],[77.1,8862],[77.1,8945],[77.1,9028],[77.1,9111],[77.1,9194],[77.1,9279],[77.1,9361],[77.1,9445],[77.1,9528],[77.1,9611],[92.3,9696],[100,9779],[100,9861],[100,9945],[100,10028],[100,10111],[100,10194],[100,10278],[100,10361],[100,10444],[100,10528],[100,10612],[100,10694],[100,10778],[100,10861],[100,10944],[100,11028],[100,11111],[100,11195],[100,11278],[100,11361],[100,11444],[100,11528],[100,11611],[100,11696]]",1,0,165.516,173.6322,83.82137628,5.9672,"[{""rating"":83.82137628111273,""responseTime"":5.96720000000019}]",space,7.5697,,173.6325,Not at all,0,173.6433,,,[],,0,1,1,1,1,audio/Narrative7Situation1.wav,audio/Narrative8Situation1.wav,audio/Narrative5Situation1.wav,audio/Narrative6Situation1.wav,2,5,5,2,2.074,,,,,,,,,,,,,,,,,,,,,,,,,,,,,,,,,,,,,,
,,,,,,63d141f0a7b0e7ea9526e89d,2024-05-13_11h50.21.532,group3.1-3.2-social-tom,2023.2.2,Win32,57.80346821,65c5074098b851296ff0b7ed,664235387894182f22ce78b6,,,,,,,,,,,,,,,,,,,,,,,,,,,,,173.6442,1,audio/Narrative8Situation2.wav,176.6487,,176.6489,186.782,"[[999,1],[999,82],[999,166],[999,249],[999,333],[999,416],[999,499],[999,582],[999,666],[999,749],[999,833],[999,916],[999,999],[999,1082],[999,1166],[999,1249],[999,1332],[999,1416],[999,1499],[999,1582],[999,1666],[999,1749],[999,1832],[999,1917],[999,1999],[999,2082],[999,2165],[999,2249],[999,2332],[999,2416],[999,2499],[999,2582],[999,2671],[999,2749],[999,2832],[999,2915],[999,2999],[999,3082],[999,3165],[999,3249],[999,3332],[999,3415],[999,3499],[999,3582],[999,3665],[999,3749],[999,3832],[999,3915],[999,3999],[999,4082],[999,4166],[999,4250],[999,4332],[999,4416],[999,4500],[999,4583],[999,4667],[999,4749],[999,4832],[999,4916],[999,4999],[999,5082],[999,5166],[999,5250],[999,5333],[999,5417],[999,5501],[999,5584],[999,5666],[999,5750],[999,5833],[999,5916],[7.4,6017],[6.2,6099],[5.3,6183],[4.9,6266],[4.8,6350],[4.8,6432],[4.8,6516],[4.8,6599],[4.8,6682],[4.8,6765],[4.8,6849],[4.8,6932],[4.8,7016],[4.8,7098],[4,7183]]",1,0,186.7824,191.6483,0.512445095,3.9761,"[{""rating"":0.5124450951683734,""responseTime"":3.9761000000000877}]",space,4.3197,,191.6487,Not at all,0,191.6562,,,[],,0,2,2,2,1,audio/Narrative7Situation2.wav,audio/Narrative8Situation2.wav,audio/Narrative5Situation2.wav,audio/Narrative6Situation2.wav,3,3,3,3,,,,,,,,,,,,,,,,,,,,,,,,,,,,,,,,,,,,,,,
,,,,,,63d141f0a7b0e7ea9526e89d,2024-05-13_11h50.21.532,group3.1-3.2-social-tom,2023.2.2,Win32,57.80346821,65c5074098b851296ff0b7ed,664235387894182f22ce78b6,,,,,,,,,,,,,,,,,,,,,,,,,,,,,191.6571,1,audio/Narrative8Situation3.wav,195.6646,,195.6647,218.0472,"[[46.9,5965],[47.2,6049],[48,6132],[48.5,6215],[48.7,6298],[48.7,6382],[48.7,6465],[48.7,6548],[48.7,6632],[48.7,6715],[48.7,6798],[48.7,6882],[48.7,6965],[48.7,7048],[48.7,7131],[48.7,7215],[48.7,7298],[48.7,7382],[48.7,7465],[48.7,7548],[48.7,7631],[48.7,7715],[49.1,7800],[49.7,7883],[50,7965],[50,8049],[49.6,8133],[49.6,8215],[49.6,8298],[49.6,8382],[49.6,8465],[49.6,8549],[49.6,8632],[49.6,8715],[49.6,8798],[49.6,8882],[49.6,8965],[49.6,9049],[49.6,9132],[49.6,9217],[49.6,9299],[49.6,9382],[49.6,9465],[49.6,9548],[49.6,9632],[49.6,9715],[49.6,9798],[49.6,9882],[49.6,9965],[49.6,10048],[49.6,10132],[49.6,10215],[49.6,10299],[49.6,10382],[49.6,10465],[49.6,10548],[49.6,10632],[49.6,10715],[49.6,10798],[49.6,10882],[49.6,10965],[49.6,11048],[49.6,11132],[49.6,11215],[49.6,11299],[49.6,11382],[49.6,11465],[49.6,11549],[49.6,11633],[49.6,11715],[49.6,11800],[49.6,11882],[49.6,11966],[49.6,12049],[49.6,12132],[49.6,12215],[49.6,12298],[49.6,12382],[49.6,12465],[49.6,12549],[49.6,12632],[49.6,12715],[49.6,12799],[49.6,12882],[51,12992],[52.6,13066],[54.1,13150],[55.3,13232],[56.7,13316],[57.9,13399],[59.5,13482],[63.3,13566],[66.1,13650],[68.2,13732],[70.2,13816],[71.5,13899],[72.4,13983],[73.9,14065],[75,14149],[75.9,14232],[76.9,14315],[77.1,14399],[77.1,14482],[77.1,14565],[77.1,14648],[77.1,14732],[77.1,14815],[77.1,14898],[77.1,14982],[77.1,15065],[77.1,15149],[77.1,15232],[77.1,15315],[77.1,15398],[77.1,15482],[77.1,15565],[77.1,15648],[77.1,15731],[77.1,15815],[77.1,15898],[77.1,15981],[77.1,16065],[77.1,16148],[77.1,16231],[77.1,16315],[77.1,16398],[77.1,16482],[77.1,16565],[77.1,16648],[77.1,16732],[77.1,16815],[77.1,16898],[77.1,16982],[77.1,17065],[77.1,17148],[77.1,17231],[77.1,17314],[77.1,17398],[77.1,17481],[77.1,17565],[77.1,17648],[77.1,17731],[77.1,17814],[77.1,17898],[77.1,17981],[77.1,18065],[77.1,18148],[77.1,18232],[77.1,18315],[77.1,18398],[77.1,18482],[77.1,18565],[77.1,18648],[77.1,18732],[77.1,18814],[77.1,18898],[77.1,18982],[77.1,19065],[77.1,19148],[77.1,19231],[77.1,19314],[77.1,19398],[77.1,19481],[77.1,19564],[77.1,19648],[77.1,19731],[77.1,19814],[77.1,19898],[77.1,19981],[77.1,20065],[77.1,20148],[77.1,20231],[77.1,20314],[77.1,20398],[77.1,20482],[77.1,20565],[76.5,20666],[75.8,20748],[75.3,20831],[75.3,20914],[75.3,20998],[75.3,21082],[75.3,21164],[75.3,21248],[75.2,21333],[74.9,21414],[74.9,21498],[74.9,21581],[74.9,21665],[74.9,21748],[74.9,21832],[74.9,21915],[74.9,21998],[74.9,22082],[74.9,22164],[74.9,22248],[74.9,22331]]",1,0,218.048,221.0851,41.36163982,2.5779,"[{""rating"":41.36163982430454,""responseTime"":2.577900000000369}]",space,2.5077,,221.0854,Partially,50,221.0978,,,[],,0,3,3,3,1,audio/Narrative7Situation3.wav,audio/Narrative8Situation3.wav,audio/Narrative5Situation3.wav,audio/Narrative6Situation3.wav,8,4,3,5,,,,,,,,,,,,,,,,,,,,,,,,,,,,,,,,,,,,,,,
,,,,,,63d141f0a7b0e7ea9526e89d,2024-05-13_11h50.21.532,group3.1-3.2-social-tom,2023.2.2,Win32,57.80346821,65c5074098b851296ff0b7ed,664235387894182f22ce78b6,,,,,,,,,,,,,,,,,,,,,,,,,,,,,221.0987,1,audio/Narrative8Situation4.wav,224.1186,,224.1187,238.3012,"[[55.6,3451],[64.9,3535],[71.7,3617],[76.2,3701],[81.2,3784],[91.1,3867],[93.9,3950],[95.1,4027],[95.1,4110],[95.1,4194],[95.1,4280],[95.1,4366],[100,4451],[100,4533],[100,4617],[100,4694],[100,4781],[100,4865],[100,4944],[100,5032],[100,5116],[100,5199],[100,5276],[100,5365],[100,5450],[100,5533]]",1,0,238.3015,244.5856,98.46266471,1.9996,"[{""rating"":98.46266471449488,""responseTime"":1.9996000000001004}]",space,5.7344,,244.5857,Partially,50,244.6218,,,[],,0,4,4,4,1,audio/Narrative7Situation4.wav,audio/Narrative8Situation4.wav,audio/Narrative5Situation4.wav,audio/Narrative6Situation4.wav,3,3,1,2,,,,,,,,,,,,,,,,,,,,,,,,,,,,,,,,,,,,,,,
,,,,,,63d141f0a7b0e7ea9526e89d,2024-05-13_11h50.21.532,group3.1-3.2-social-tom,2023.2.2,Win32,57.80346821,65c5074098b851296ff0b7ed,664235387894182f22ce78b6,,,,,,,,,,,,,,,,,,,,,,,,,,,,,244.6226,1,audio/Narrative8Situation5.wav,246.6289,,246.6292,254.869,"[[98.8,3421],[98.6,3505],[99,3589],[99.5,3674],[99.5,3754],[100,3841],[100,3920],[100,4004],[100,4087],[100,4165],[100,4253],[100,4338],[100,4420],[100,4504],[100,4587],[100,4666],[100,4753],[99.9,4839]]",1,0,254.8693,258.4842,99.63396779,2.5713,"[{""rating"":99.63396778916544,""responseTime"":2.571300000000292}]",space,3.078,,258.4845,Partially,50,258.49,,,[],,0,5,5,5,1,audio/Narrative7Situation5.wav,audio/Narrative8Situation5.wav,audio/Narrative5Situation5.wav,audio/Narrative6Situation5.wav,5,2,5,2,,,,,,,,,,,,,,,,,,,,,,,,,,,,,,,,,,,,,,,
,,,,,,63d141f0a7b0e7ea9526e89d,2024-05-13_11h50.21.532,group3.1-3.2-social-tom,2023.2.2,Win32,57.80346821,65c5074098b851296ff0b7ed,664235387894182f22ce78b6,,,,,,,,,,,,,,,,,,,,,,,,,,,,,258.4909,1,audio/Narrative8Situation6.wav,260.5,,260.5002,266.9783,"[[99.6,2368],[99.6,2444],[99.6,2528],[99.6,2611],[99.6,2694],[99.6,2777],[99.6,2861],[99.6,2944],[99.6,3027],[84.8,3111],[80.6,3195],[76.4,3280],[71.5,3361],[68.3,3445],[65.8,3527],[64.1,3611],[63,3694],[61.4,3779],[59.1,3862],[57.5,3945],[56,4028],[54.8,4111],[52.9,4194],[52.6,4278],[63.3,4361],[100,4695],[100,4778],[100,4861]]",1,0,266.9789,272.4674,22.62079063,4.6201,"[{""rating"":22.620790629575403,""responseTime"":4.620100000000093}]",space,4.9445,,272.4676,Not at all,0,272.4798,,,[],,0,6,6,6,1,audio/Narrative7Situation6.wav,audio/Narrative8Situation6.wav,audio/Narrative5Situation6.wav,audio/Narrative6Situation6.wav,3,2,3,2,,,,,,,,,,,,,,,,,,,,,,,,,,,,,,,,,,,,,,,
,,,,,,63d141f0a7b0e7ea9526e89d,2024-05-13_11h50.21.532,group3.1-3.2-social-tom,2023.2.2,Win32,57.80346821,65c5074098b851296ff0b7ed,664235387894182f22ce78b6,,,,,,,,,,,,,,,,,,,,,,,,,,,,,272.4806,1,audio/Narrative8Situation7.wav,275.4826,,275.4828,287.5652,"[[28.8,3035],[45.9,3118],[58.8,3201],[65.5,3285],[69,3368],[69.6,3446],[69.6,3532],[69.6,3615],[69.6,3699],[69.6,3777],[69.6,3866],[69.6,3944],[69.6,4032],[69.6,4111],[69.6,4200],[69.6,4282],[69.6,4361],[69.6,4449],[69.6,4532],[69.6,4615],[69.6,4698],[69.6,4782],[69.6,4865],[69.6,4949],[69.6,5031],[69.6,5111],[69.6,5194],[69.6,5283],[69.6,5366],[69.6,5450],[69.6,5527],[69.6,5617],[69.6,5699],[69.6,5777],[69.6,5866],[69.6,5944],[69.6,6032],[69.6,6115],[69.6,6200],[69.6,6277],[69.6,6361],[69.6,6444],[69.6,6527],[69.6,6617],[69.6,6694],[69.6,6777],[69.6,6865],[69.6,6948],[69.6,7027],[69.6,7116],[69.6,7199],[69.6,7277],[69.6,7365],[69.6,7449],[69.6,7532],[69.6,7616],[69.6,7698],[69.6,7782],[69.6,7866],[69.6,7949],[69.6,8032],[69.6,8110],[69.6,8199],[69.6,8277],[69.6,8367],[69.6,8444],[69.6,8533],[69.6,8611],[69.6,8699],[69.6,8781],[69.6,8860],[69.6,8949],[69.6,9032],[69.6,9114],[69.6,9194],[69.6,9283],[69.6,9365],[69.6,9449],[69.6,9532],[69.6,9616],[69.6,9699],[69.6,9782],[69.6,9865],[69.6,9950],[69.6,10031],[69.6,10111],[69.6,10200],[69.6,10282],[69.6,10365],[69.6,10444],[69.6,10532],[69.6,10610],[69.6,10699],[69.6,10777],[69.6,10866],[69.6,10943],[69.6,11027],[69.6,11115],[69.6,11193],[69.6,11277],[69.6,11366],[69.6,11443],[69.6,11532],[69.6,11615],[69.6,11694],[69.6,11781],[69.6,11865],[69.6,11948],[69.6,12031]]",1,0,287.5654,289.8597,50.43923865,1.9213,"[{""rating"":50.43923865300146,""responseTime"":1.921300000000258}]",space,1.7548,,289.86,Partially,50,295.8431,49.70717423,4.6176,"[{""rating"":49.70717423133236,""responseTime"":4.617600000000095}]",space,0,7,7,7,1,audio/Narrative7Situation7.wav,audio/Narrative8Situation7.wav,audio/Narrative5Situation7.wav,audio/Narrative6Situation7.wav,5,3,4,5,,,5.4326,,,,,,,,,,,,,,,,,,,,,,,,,,,,,,,,,,,,
,,,,,,63d141f0a7b0e7ea9526e89d,2024-05-13_11h50.21.532,group3.1-3.2-social-tom,2023.2.2,Win32,57.80346821,65c5074098b851296ff0b7ed,664235387894182f22ce78b6,,,,,,,,,,,,,,,,,,,,,,,,,,,,,295.8441,1,audio/Narrative8Situation8.wav,298.8593,,298.8594,311.7254,"[[39,4353],[24.4,4434],[13.5,4600],[9.4,4683],[6.5,4767],[4,4850],[3,4933],[2.9,5016],[2.9,5099],[2.9,5183],[2.9,5266],[2.9,5349],[2.9,5432],[2.9,5516],[2.9,5599],[2.9,5683],[2.9,5766],[2.9,5849],[2.9,5932],[2.9,6016],[2.9,6099],[2.9,6182],[2.9,6266],[2.9,6349],[2.9,6433],[2.9,6516],[2.9,6599],[2.9,6682],[2.9,6766],[2.9,6849],[2.9,6932],[2.9,7016],[2.9,7099],[2.9,7182],[2.9,7266],[2.9,7349],[2.9,7432],[2.9,7516],[2.9,7599],[2.9,7683],[2.9,7766],[2.9,7849],[2.9,7932],[2.9,8016],[2.9,8099],[2.9,8182],[2.9,8266],[2.9,8349],[2.9,8432],[2.9,8516],[3.1,8600],[6.2,8683],[11.9,8766],[20,8850],[23.9,8933],[29.1,9016],[32.4,9100],[35.8,9183],[39.3,9266],[41.8,9349],[44.6,9432],[46.3,9516],[48,9599],[49.1,9682],[49.9,9766],[50,9848],[50,9932],[50,10015],[50,10099],[50,10182],[50,10266],[50,10349],[50,10432],[50,10515],[50,10599],[50,10682],[50,10766],[50,10849],[50,10932],[50,11016],[50,11099],[50,11182],[50,11266],[50,11349],[50,11432],[50,11516],[50,11599],[50,11682],[50,11766],[50,11849],[50,11932],[50,12016],[50,12099],[50,12182],[50,12265],[50,12348],[50,12432],[50,12515],[50,12598],[50,12682],[50,12765],[50,12849]]",1,0,311.7258,318.0088,37.26207906,5.8096,"[{""rating"":25.109809663250367,""responseTime"":3.341000000000008},{""rating"":37.26207906295754,""responseTime"":5.809600000000103}]",space,5.7361,,318.009,Not at all,0,318.0214,,,[],,0,8,8,8,1,audio/Narrative7Situation8.wav,audio/Narrative8Situation8.wav,audio/Narrative5Situation8.wav,audio/Narrative6Situation8.wav,2,3,3,5,,,,,,,,,,,,,,,,,,,,,,,,,,,,,,,,,,,,,,,
,,,,,,63d141f0a7b0e7ea9526e89d,2024-05-13_11h50.21.532,group3.1-3.2-social-tom,2023.2.2,Win32,57.80346821,65c5074098b851296ff0b7ed,664235387894182f22ce78b6,,,,,,,,,,,,,,,,,,,,,,,,,,,,,318.0223,1,audio/Narrative8Situation9.wav,321.0248,,321.0249,332.3418,"[[39.8,3784],[41.2,3867],[42.7,3951],[44.4,4034],[45.2,4117],[45.5,4199],[45.8,4283],[46.5,4367],[48.4,4450],[50.1,4534],[51,4616],[51.3,4699],[51.3,4782],[51.2,4866],[51,4949],[50.9,5033],[50.7,5116],[50.7,5199],[50.6,5282],[50.6,5366],[50.6,5449],[50.6,5533],[50.6,5616],[50.6,5699],[50.6,5782],[50.6,5866],[50.6,5949],[50.6,6032],[50.6,6116],[50.6,6199],[50.6,6283],[50.6,6366],[50.6,6449],[50.6,6532],[50.6,6616],[50.6,6699],[50.6,6783],[50.6,6866],[50.6,6949],[50.6,7032],[50.6,7116],[50.6,7199],[50.6,7282],[50.6,7366],[50.6,7449],[50.6,7532],[50.6,7616],[50.6,7699],[50.6,7782],[50.6,7865],[50.6,7949],[50.6,8033],[50.6,8116],[50.6,8199],[50.6,8283],[50.6,8366],[50.6,8449],[50.6,8532],[50.6,8616],[50.6,8699],[50.6,8782],[50.6,8866],[50.6,8949],[50.6,9032],[50.6,9116],[50.6,9199],[50.6,9282],[50.6,9366],[50.6,9449],[50.6,9532],[50.6,9616],[50.6,9699],[50.6,9782],[50.6,9866],[50.6,9949],[50.6,10032],[50.6,10116],[50.6,10199],[50.6,10283],[50.6,10366],[50.6,10449],[50.6,10532],[50.6,10616],[50.6,10700],[50.6,10782],[50.6,10866],[50.6,10949],[50.6,11032],[50.6,11134],[50.6,11199],[50.6,11282]]",1,0,332.3422,336.0081,50.58565154,2.714,"[{""rating"":50.58565153733529,""responseTime"":2.7139999999999986}]",space,3.1186,,336.0082,Not at all,0,336.015,,,[],,0,9,9,9,1,audio/Narrative7Situation9.wav,audio/Narrative8Situation9.wav,audio/Narrative5Situation9.wav,audio/Narrative6Situation9.wav,2,3,3,4,,,,,,,,,,,,,,,,,,,,,,,,,,,,,,,,,,,,,,,
,,,,,,63d141f0a7b0e7ea9526e89d,2024-05-13_11h50.21.532,group3.1-3.2-social-tom,2023.2.2,Win32,57.80346821,65c5074098b851296ff0b7ed,664235387894182f22ce78b6,,,,,,,,,,,,,,,,,,,,,,,,,,,,,336.0158,1,audio/Narrative7Situation1.wav,338.0301,,338.0301,393.9218,"[[50.6,4443],[50.6,4526],[50.6,4610],[50.6,4693],[50.6,4776],[50.6,4860],[50.6,4943],[50.6,5027],[50.6,5110],[50.6,5194],[50.6,5277],[50.6,5360],[50.6,5443],[50.6,5527],[50.6,5610],[50.6,5693],[50.6,5776],[50.6,5860],[49,5944],[46.2,6028],[44.9,6111],[44.3,6194],[43.7,6278],[41.7,6361],[38.3,6444],[36.4,6527],[35.8,6610],[35.1,6693],[33.7,6777],[32.6,6861],[32.4,6943],[32.3,7026],[30.7,7110],[27.7,7193],[27,7277],[27,7359],[27,7442],[27,7526],[27,7609],[27,7692],[27,7776],[27,7859],[27,7942],[27,8026],[27,8109],[27,8192],[27,8276],[27,8360],[27,8443],[27,8526],[27,8609],[27,8692],[27,8776],[27,8860],[27,8943],[27,9026],[27,9110],[27,9193],[27,9276],[27,9360],[27,9443],[27,9526],[27,9609],[27,9694],[27,9777],[27,9859],[27,9943],[27,10026],[27,10109],[27,10193],[27,10276],[27,10360],[27,10443],[27,10526],[27,10610],[27,10693],[27,10777],[27,10859],[27,10943],[27,11026],[27,11109],[27,11193],[27,11276],[27,11359],[27,11443],[27,11526],[27,11609],[27,11693],[27,11777],[27,11865],[27,11943],[27,12026],[27,12110],[27,12193],[27,12276],[27,12360],[27,12443],[27,12526],[27,12609],[27,12693],[27,12776],[27,12859],[27,12943],[27,13026],[27,13109],[27,13193],[27,13276],[27,13359],[27,13443],[27,13526],[27,13610],[36.8,13710],[39.9,13794],[43.4,13877],[45.5,13960],[46.8,14043],[48.1,14127],[49,14210],[49.4,14293],[49.4,14376],[49.4,14459],[49.4,14543],[49.4,14626],[49.4,14709],[49.4,14792],[49.4,14876],[49.4,14959],[49.4,15043],[49.4,15126],[49.4,15209],[49.4,15293],[49.4,15376],[49.4,15459],[49.4,15543],[49.4,15626],[49.4,15709],[49.4,15792],[49.4,15876],[49.4,15959],[49.4,16043],[49.4,16126],[49.4,16209],[49.4,16292],[49.4,16376],[49.4,16459],[49.4,16542],[49.4,16626],[49.4,16709],[49.4,16792],[49.4,16876],[49.4,16959],[49.4,17043],[49.4,17126],[49.4,17209],[49.4,17293],[49.4,17376],[49.4,17459],[49.4,17542],[49.4,17626],[49.4,17711],[49.4,17793],[49.4,17876],[49.4,17959],[49.4,18043],[49.4,18126],[49.4,18209],[49.4,18292],[49.4,18376],[49.4,18459],[49.4,18543],[49.4,18626],[49.4,18709],[49.4,18793],[49.4,18876],[49.4,18959],[49.4,19043],[49.4,19126],[49.4,19209],[49.4,19292],[49.4,19376],[49.4,19459],[49.4,19543],[49.4,19625],[49.4,19709],[49.4,19792],[49.4,19876],[49.4,19959],[49.4,20043],[49.4,20126],[49.4,20209],[49.4,20293],[49.4,20376],[49.4,20459],[49.4,20543],[49.4,20626],[49.4,20709],[49.4,20792],[49.4,20876],[49.4,20959],[49.4,21043],[49.4,21126],[49.4,21209],[49.4,21292],[49.4,21376],[49.4,21459],[49.4,21542],[49.4,21625],[49.4,21709],[49.4,21793],[49.4,21875],[49.4,21959],[49.4,22042],[49.4,22125],[49.4,22209],[49.4,22293],[49.4,22375],[49.4,22459],[49.4,22542],[49.4,22625],[49.4,22709],[49.4,22792],[49.4,22875],[49.4,22959],[49.4,23042],[49.4,23125],[49.4,23209],[49.4,23292],[49.4,23375],[49.4,23459],[49.4,23542],[49.4,23625],[49.4,23709],[49.4,23792],[49.4,23875],[49.4,23959],[49.4,24042],[49.4,24125],[49.4,24209],[49.4,24292],[49.4,24375],[49.4,24459],[49.4,24542],[49.4,24625],[49.4,24709],[49.4,24792],[49.4,24876],[49.4,24959],[49.4,25042],[49.4,25125],[49.4,25209],[49.4,25292],[49.4,25375],[49.4,25459],[49.4,25543],[49.4,25625],[49.4,25709],[49.4,25792],[49.4,25875],[49.4,25959],[49.4,26042],[49.4,26126],[49.4,26209],[49.4,26292],[49.4,26376],[49.4,26459],[49.4,26542],[49.4,26625],[49.4,26709],[49.4,26792],[49.4,26875],[49.4,26958],[49.4,27042],[49.4,27125],[49.4,27209],[49.4,27292],[49.4,27376],[49.4,27459],[49.4,27542],[49.4,27625],[49.4,27709],[49.4,27792],[49.4,27875],[49.4,27959],[49.4,28042],[49.4,28125],[49.4,28209],[49.4,28292],[49.4,28375],[49.4,28459],[49.4,28543],[49.4,28625],[49.4,28708],[49.4,28792],[49.4,28875],[49.4,28959],[49.4,29042],[49.4,29125],[49.4,29208],[49.4,29292],[49.4,29375],[49.4,29458],[49.4,29542],[49.4,29625],[49.4,29708],[49.4,29792],[49.4,29875],[49.4,29958],[49.4,30042],[49.4,30125],[49.4,30208],[49.4,30292],[49.4,30375],[49.4,30459],[49.4,30542],[49.4,30625],[49.4,30709],[49.4,30793],[49.4,30875],[49.4,30959],[49.4,31042],[49.4,31125],[49.4,31208],[49.4,31292],[49.4,31375],[49.4,31458],[49.4,31542],[49.4,31625],[49.4,31708],[49.4,31792],[49.4,31875],[49.4,31958],[49.4,32042],[49.4,32125],[49.4,32208],[49.4,32292],[49.4,32375],[49.4,32458],[49.4,32542],[49.4,32626],[49.4,32708],[49.4,32792],[49.4,32875],[49.4,32958],[49.4,33042],[49.4,33125],[49.4,33208],[49.4,33291],[49.4,33375],[49.4,33458],[49.4,33542],[49.4,33625],[49.4,33708],[49.4,33792],[49.4,33875],[49.4,33958],[49.4,34042],[49.4,34125],[49.4,34208],[49.4,34292],[49.4,34375],[49.4,34458],[49.4,34542],[49.4,34626],[49.4,34708],[49.4,34792],[49.4,34875],[49.4,34958],[49.4,35042],[49.4,35125],[49.4,35208],[49.4,35292],[49.4,35375],[49.4,35458],[49.4,35542],[49.4,35625],[49.4,35708],[49.4,35792],[49.4,35875],[49.4,35959],[49.4,36042],[49.4,36125],[49.4,36208],[49.4,36292],[49.4,36375],[49.4,36458],[49.4,36542],[49.4,36625],[49.4,36708],[49.4,36791],[49.4,36875],[49.4,36958],[49.4,37041],[49.4,37125],[49.4,37208],[49.4,37292],[49.4,37375],[49.4,37458],[49.4,37542],[49.4,37625],[49.4,37708],[49.4,37792],[49.4,37875],[49.4,37958],[49.4,38042],[49.4,38125],[49.4,38208],[49.4,38291],[49.4,38375],[49.4,38458],[49.4,38542],[49.4,38625],[49.4,38708],[49.4,38792],[49.4,38875],[49.4,38958],[49.4,39042],[49.4,39125],[49.4,39208],[49.4,39292],[49.4,39376],[49.4,39458],[49.4,39541],[49.4,39625],[49.4,39708],[49.4,39792],[49.4,39875],[49.4,39958],[49.4,40042],[49.4,40126],[49.4,40208],[49.4,40291],[49.4,40375],[49.4,40458],[49.4,40541],[49.4,40625],[49.4,40708],[49.4,40792],[49.4,40875],[49.4,40958],[49.4,41042],[49.4,41125],[54.5,41233],[56.7,41315],[58.3,41400],[59.7,41483],[63,41568],[64.8,41648],[66.5,41733],[68.2,41815],[69.5,41900],[70.5,41987],[72.3,42065],[73.6,42150],[74,42227],[74.3,42315],[74.3,42397],[74.3,42481],[74.3,42563],[74.3,42642],[74.3,42730],[74.3,42813],[74.3,42897],[74.3,42975],[74.3,43063],[74.3,43147],[74.3,43230],[74.3,43308],[74.3,43392],[87.8,43483],[100,43566],[100,43650],[100,43731],[100,43813],[100,43896],[100,43975],[100,44063],[100,44147],[100,44230],[100,44313],[100,44396],[100,44480],[100,44563],[100,44642],[100,44730],[100,44813],[100,44897],[100,44980],[100,45063],[100,45147],[100,45231],[100,45313],[100,45392],[100,45480],[100,45563],[100,45641],[100,45735],[100,45808],[100,45891],[100,45980],[100,46062],[100,46147],[100,46225],[100,46313],[100,46396],[100,46475],[100,46563],[100,46647],[100,46730],[100,46814],[100,46897],[100,46981],[100,47063],[100,47147],[100,47225],[100,47314],[100,47396],[100,47475],[100,47563],[100,47644],[100,47729],[100,47813],[100,47897],[100,47981],[100,48063],[100,48147],[100,48230],[100,48308],[100,48392],[100,48475],[100,48564],[100,48646],[100,48729],[100,48813],[100,48892],[100,48980],[100,49063],[100,49146],[100,49225],[100,49313],[100,49391],[100,49479],[100,49563],[100,49647],[100,49725],[100,49814],[100,49891],[100,49975],[100,50058],[100,50142],[100,50229],[100,50313],[100,50396],[100,50479],[100,50563],[100,50642],[100,50730],[100,50812],[100,50896],[100,50975],[100,51063],[100,51146],[100,51229],[100,51311],[100,51395],[100,51478],[100,51563],[100,51646],[100,51725],[100,51812],[100,51891],[100,51980],[100,52063],[100,52141],[100,52225],[100,52313],[100,52398],[100,52479],[100,52563],[100,52649],[100,52730],[100,52814],[100,52898],[100,52981],[98.6,53091],[97.9,53175],[96.6,53259],[95.5,53342],[94.5,53425],[93.2,53508],[91.9,53591],[90.3,53675],[88.9,53758],[87.8,53841],[87.2,53925],[86.5,54008],[85.3,54092],[84,54175],[82.9,54258],[82.2,54341],[82.1,54424],[82.1,54507],[81.6,54592],[80.7,54674],[80.2,54759],[79.3,54842],[78.4,54925],[78,55007],[77.8,55091],[77.1,55174],[76.6,55259],[76.6,55341],[76.6,55424],[76.6,55507],[76.6,55591],[76.6,55674],[76.6,55757],[76.6,55841]]",1,0,393.9225,398.8875,65.66617862,3.1457,"[{""rating"":65.66617862371888,""responseTime"":3.145700000000204}]",space,4.4154,,398.8877,Not at all,0,398.8904,,,[],,0,10,10,10,1,audio/Narrative8Situation1.wav,audio/Narrative7Situation1.wav,audio/Narrative6Situation1.wav,audio/Narrative5Situation1.wav,5,2,2,5,,,,,,,,,,,,,,,,,,,,,,,,,,,,,,,,,,,,,,,
,,,,,,63d141f0a7b0e7ea9526e89d,2024-05-13_11h50.21.532,group3.1-3.2-social-tom,2023.2.2,Win32,57.80346821,65c5074098b851296ff0b7ed,664235387894182f22ce78b6,,,,,,,,,,,,,,,,,,,,,,,,,,,,,398.8909,1,audio/Narrative7Situation2.wav,401.9047,,401.9047,409.3877,"[[64.9,3017],[61.9,3100],[58.6,3183],[55.9,3266],[54,3349],[52.9,3433],[52.3,3516],[51.2,3600],[50.4,3683],[50.3,3765],[50.3,3849],[50.3,3932],[50.3,4015],[50.3,4099],[50.3,4182],[50.7,4266],[58.8,4350],[66.1,4434],[74,4517],[77.8,4599],[84.4,4683],[91.9,4766],[98.2,4850],[100,4933],[100,5016],[100,5099],[100,5182],[100,5265],[100,5349],[100,5432],[100,5516],[100,5599],[100,5682],[100,5765],[100,5849],[100,5932],[100,6015],[100,6100],[100,6182],[100,6265],[100,6349],[100,6432],[100,6515],[100,6599],[100,6682],[100,6766],[100,6849],[100,6932],[100,7015],[100,7099],[100,7182],[100,7265],[100,7354],[100,7432]]",1,0,409.3883,413.9106,88.65300146,3.1238,"[{""rating"":88.65300146412885,""responseTime"":3.1237999999997896}]",space,3.9947,,413.9108,Not at all,0,413.916,,,[],,0,11,11,11,1,audio/Narrative8Situation2.wav,audio/Narrative7Situation2.wav,audio/Narrative6Situation2.wav,audio/Narrative5Situation2.wav,3,3,3,3,,,,,,,,,,,,,,,,,,,,,,,,,,,,,,,,,,,,,,,
,,,,,,63d141f0a7b0e7ea9526e89d,2024-05-13_11h50.21.532,group3.1-3.2-social-tom,2023.2.2,Win32,57.80346821,65c5074098b851296ff0b7ed,664235387894182f22ce78b6,,,,,,,,,,,,,,,,,,,,,,,,,,,,,413.9168,1,audio/Narrative7Situation3.wav,421.9258,,421.9259,431.1865,"[[999,33],[999,116],[999,199],[999,280],[999,365],[999,444],[999,531],[999,615],[999,693],[999,782],[999,860],[999,943],[999,1032],[999,1115],[999,1194],[999,1281],[999,1365],[999,1444],[999,1533],[999,1615],[999,1694],[999,1777],[999,1867],[999,1944],[999,2033],[999,2116],[999,2194],[999,2277],[999,2361],[999,2448],[999,2532],[999,2611],[999,2694],[999,2777],[999,2860],[999,2949],[999,3027],[999,3116],[999,3194],[999,3282],[999,3361],[999,3450],[999,3532],[999,3616],[999,3694],[999,3782],[999,3861],[999,3947],[999,4027],[999,4116],[999,4194],[999,4282],[999,4360],[999,4444],[999,4527],[999,4610],[999,4698],[999,4783],[999,4865],[999,4943],[999,5032],[999,5115],[999,5198],[999,5282],[999,5366],[999,5445],[999,5527],[999,5616],[50.9,5727],[49.4,5810],[48.4,5894],[48,5976],[48.1,6061],[48.4,6144],[48.4,6227],[48.5,6310],[48.5,6393],[48.5,6476],[48.5,6560],[48.5,6643],[48.5,6726],[48.5,6810],[48.5,6893],[48.5,6976],[48.5,7060],[48.5,7143],[48.5,7226],[48.5,7310],[48.5,7393],[48.5,7477],[48.5,7560],[48.5,7644],[48.5,7726],[48.5,7810],[48.5,7893],[48.5,7977],[48.5,8060],[48.5,8143],[48.5,8226],[48.5,8310],[48.5,8393],[48.5,8476],[48.5,8560],[48.5,8643],[48.5,8726],[48.5,8810],[48.5,8893],[48.5,8977],[48.5,9060],[48.5,9143],[48.5,9226]]",1,0,431.1868,435.7028,5.490483163,4.0742,"[{""rating"":5.4904831625183,""responseTime"":4.0742000000001894}]",space,3.9748,,435.7029,Partially,50,435.714,,,[],,0,12,12,12,1,audio/Narrative8Situation3.wav,audio/Narrative7Situation3.wav,audio/Narrative6Situation3.wav,audio/Narrative5Situation3.wav,4,8,5,3,,,,,,,,,,,,,,,,,,,,,,,,,,,,,,,,,,,,,,,
,,,,,,63d141f0a7b0e7ea9526e89d,2024-05-13_11h50.21.532,group3.1-3.2-social-tom,2023.2.2,Win32,57.80346821,65c5074098b851296ff0b7ed,664235387894182f22ce78b6,,,,,,,,,,,,,,,,,,,,,,,,,,,,,435.7148,1,audio/Narrative7Situation4.wav,438.7193,,438.7193,450.4519,"[[5.3,1700],[5.2,1783],[6.5,1866],[7,1949],[7,2033],[7,2116],[6.8,2200],[6.4,2283],[6.2,2366],[6.2,2449],[6.2,2532],[6.2,2616],[6.2,2699],[6.2,2782],[6.2,2865],[6.2,2949],[6.2,3033],[6.2,3116],[6.2,3199],[6.2,3282],[6.2,3366],[6.2,3449],[6.2,3532],[6.2,3616],[6.2,3699],[6.2,3783],[6.2,3866],[6.2,3950],[6.2,4032],[6.2,4116],[6.2,4199],[6.2,4283],[6.2,4366],[6.2,4449],[6.2,4532],[6.2,4616],[6.2,4699],[6.2,4782],[6.2,4866],[6.2,4949],[6.2,5032],[6.2,5116],[6.2,5199],[6.2,5284],[6.2,5366],[6.2,5449],[6.2,5533],[6.2,5616],[6.2,5699],[6.2,5783],[6.2,5866],[6.2,5949],[6.2,6032],[6.2,6115],[6.2,6199],[6.2,6282],[6.2,6366],[6.2,6449],[6.2,6532],[5.2,6641],[3.1,6716],[0.8,6800]]",1,0,450.4522,455.9687,2.415812592,4.0416,"[{""rating"":2.415812591508054,""responseTime"":4.041600000000074}]",space,4.9716,,455.9689,Definitely yes,100,455.9802,,,[],,0,13,13,13,1,audio/Narrative8Situation4.wav,audio/Narrative7Situation4.wav,audio/Narrative6Situation4.wav,audio/Narrative5Situation4.wav,3,3,2,1,,,,,,,,,,,,,,,,,,,,,,,,,,,,,,,,,,,,,,,
,,,,,,63d141f0a7b0e7ea9526e89d,2024-05-13_11h50.21.532,group3.1-3.2-social-tom,2023.2.2,Win32,57.80346821,65c5074098b851296ff0b7ed,664235387894182f22ce78b6,,,,,,,,,,,,,,,,,,,,,,,,,,,,,455.9812,1,audio/Narrative7Situation5.wav,460.9851,,460.9852,469.4846,"[[0.1,3550],[1.4,3633],[3.1,3716],[4.9,3800],[7.7,3884],[10.3,3967],[12.5,4050],[14.7,4133],[17.1,4216],[18.8,4300],[20.1,4383],[21,4466],[21.7,4550],[22.3,4632],[22.8,4716],[23.2,4799],[23.6,4882],[23.8,4966],[23.8,5049],[23.8,5132],[23.8,5216],[23.8,5299],[23.8,5382],[23.8,5466],[23.8,5549],[23.8,5632],[23.8,5715],[23.8,5799],[23.8,5882],[23.8,5965],[23.8,6049],[23.8,6132],[23.8,6215],[23.8,6299],[23.8,6382],[23.8,6466],[23.8,6549],[23.8,6632],[23.8,6716],[23.8,6799],[23.8,6882],[23.8,6966],[23.8,7049],[23.8,7132],[23.8,7216],[23.8,7299],[23.8,7382],[23.8,7466],[23.8,7549],[23.8,7632],[23.8,7716],[23.8,7799],[23.8,7882],[23.8,7965],[23.8,8049],[23.8,8132],[23.8,8216],[23.8,8299],[23.8,8382],[23.8,8465]]",1,0,469.4849,473.2845,2.855051245,3.0267,"[{""rating"":2.8550512445095153,""responseTime"":3.026700000000176}]",space,3.2537,,473.2847,Not at all,0,473.2959,,,[],,0,14,14,14,1,audio/Narrative8Situation5.wav,audio/Narrative7Situation5.wav,audio/Narrative6Situation5.wav,audio/Narrative5Situation5.wav,2,5,2,5,,,,,,,,,,,,,,,,,,,,,,,,,,,,,,,,,,,,,,,
,,,,,,63d141f0a7b0e7ea9526e89d,2024-05-13_11h50.21.532,group3.1-3.2-social-tom,2023.2.2,Win32,57.80346821,65c5074098b851296ff0b7ed,664235387894182f22ce78b6,,,,,,,,,,,,,,,,,,,,,,,,,,,,,473.2966,1,audio/Narrative7Situation6.wav,476.3009,,476.3011,486.2842,"[[10.2,3783],[19.8,3866],[29.2,3950],[36.5,4033],[44.1,4117],[49.7,4200],[51.6,4282],[51.6,4366],[51.6,4449],[51.6,4532],[51.6,4615],[51.6,4699],[55.1,4783],[62.9,4867],[69.5,4949],[73.4,5032],[75.5,5116],[75.9,5199],[75.9,5282],[75.9,5366],[75.9,5449],[75.9,5532],[75.9,5615],[75.9,5699],[75.9,5782],[75.9,5865],[75.9,5949],[75.9,6032],[75.9,6116],[75.9,6199],[75.9,6282],[75.9,6366],[75.9,6449],[75.9,6532],[75.9,6615],[75.9,6698],[75.9,6783],[75.9,6866],[75.9,6950],[75.9,7032],[75.9,7115],[75.9,7199],[75.9,7282],[75.9,7365],[75.9,7449],[75.9,7532],[75.9,7615],[75.9,7698],[75.9,7783],[75.9,7867],[75.9,7949],[75.9,8033],[75.9,8115],[75.9,8199],[75.9,8282],[75.9,8365],[75.9,8448],[75.9,8532],[75.9,8615],[75.9,8699],[75.9,8782],[75.9,8865],[75.9,8949],[75.9,9032],[75.9,9115],[75.9,9199],[75.9,9282],[75.9,9365],[75.9,9449],[75.9,9532],[75.9,9615],[75.9,9699],[75.9,9782],[75.9,9865],[75.9,9948]]",1,0,486.2845,490.9837,79.8682284,4.3265,"[{""rating"":76.06149341142022,""responseTime"":2.2846000000000686},{""rating"":79.86822840409957,""responseTime"":4.32650000000001}]",space,4.1597,,490.984,Partially,50,490.9951,,,[],,0,15,15,15,1,audio/Narrative8Situation6.wav,audio/Narrative7Situation6.wav,audio/Narrative6Situation6.wav,audio/Narrative5Situation6.wav,2,3,2,3,,,,,,,,,,,,,,,,,,,,,,,,,,,,,,,,,,,,,,,
,,,,,,63d141f0a7b0e7ea9526e89d,2024-05-13_11h50.21.532,group3.1-3.2-social-tom,2023.2.2,Win32,57.80346821,65c5074098b851296ff0b7ed,664235387894182f22ce78b6,,,,,,,,,,,,,,,,,,,,,,,,,,,,,490.9959,1,audio/Narrative7Situation7.wav,496.0049,,496.0051,513.2035,"[[24.1,3461],[21.9,3795],[21.4,3877],[21,3961],[20.6,4044],[20.6,4127],[20.6,4211],[20.6,4294],[20.6,4377],[20.6,4461],[20.6,4544],[20.6,4627],[20.6,4711],[20.6,4794],[20.6,4877],[20.6,4960],[20.6,5044],[20.6,5127],[20.6,5211],[20.6,5294],[20.6,5377],[20.6,5460],[20.6,5544],[20.6,5627],[20.6,5711],[20.6,5794],[20.6,5877],[20.6,5961],[20.6,6044],[20.6,6127],[20.6,6210],[20.6,6294],[20.6,6377],[20.6,6461],[20.6,6544],[20.6,6627],[20.6,6710],[20.6,6794],[20.6,6877],[20.6,6960],[20.6,7044],[20.6,7127],[20.6,7210],[20.6,7294],[20.6,7377],[20.6,7460],[20.6,7544],[20.6,7627],[20.6,7711],[20.6,7794],[20.6,7877],[20.6,7960],[20.6,8044],[20.6,8127],[20.6,8210],[20.6,8295],[20.6,8377],[20.6,8460],[20.6,8544],[20.6,8627],[20.6,8711],[20.6,8794],[20.6,8877],[21.7,8961],[28.8,9066],[32.6,9143],[36.5,9228],[38.9,9311],[41.2,9394],[43.7,9478],[46.5,9562],[48.4,9644],[49.6,9728],[50.3,9811],[50.6,9893],[50.6,9977],[50.6,10060],[50.6,10143],[50.6,10227],[50.6,10310],[50.6,10394],[50.6,10477],[50.6,10560],[50.6,10643],[50.6,10726],[50.6,10810],[50.6,10893],[50.6,10976],[50.6,11060],[50.6,11143],[50.6,11227],[50.6,11310],[50.6,11394],[50.6,11477],[50.6,11560],[50.6,11649],[50.6,11727],[50.6,11810],[50.6,11894],[50.6,11977],[50.6,12060],[50.6,12143],[50.6,12227],[50.6,12310],[50.6,12393],[50.6,12477],[50.6,12560],[50.6,12643],[50.6,12727],[50.6,12810],[50.6,12893],[50.6,12977],[50.6,13060],[50.6,13143],[50.6,13227],[50.6,13310],[50.6,13394],[50.6,13477],[50.6,13560],[50.6,13643],[50.6,13727],[50.6,13810],[50.6,13893],[50.6,13977],[50.6,14060],[50.6,14143],[50.6,14227],[50.6,14310],[50.6,14393],[50.6,14477],[50.6,14560],[50.6,14643],[50.6,14727],[50.6,14810],[50.6,14893],[50.6,14977],[57.5,15067],[60.7,15150],[63.2,15234],[66,15317],[67.7,15401],[68.7,15484],[70.4,15568],[71.5,15650],[72.8,15735],[73.4,15817],[74.3,15901],[74.9,15983],[74.9,16061],[74.9,16148],[74.9,16228],[74.9,16315],[74.9,16398],[74.9,16482],[74.9,16560],[74.9,16648],[74.9,16727],[74.9,16816],[74.9,16894],[74.9,16983],[74.9,17065],[74.9,17149]]",1,0,513.2039,516.1214,75.18301611,1.5671,"[{""rating"":75.18301610541728,""responseTime"":1.5671000000000959}]",space,2.3675,,516.1216,Not at all,0,516.1327,,,[],,0,16,16,16,1,audio/Narrative8Situation7.wav,audio/Narrative7Situation7.wav,audio/Narrative6Situation7.wav,audio/Narrative5Situation7.wav,3,5,5,4,,,,,,,,,,,,,,,,,,,,,,,,,,,,,,,,,,,,,,,
,,,,,,63d141f0a7b0e7ea9526e89d,2024-05-13_11h50.21.532,group3.1-3.2-social-tom,2023.2.2,Win32,57.80346821,65c5074098b851296ff0b7ed,664235387894182f22ce78b6,,,,,,,,,,,,,,,,,,,,,,,,,,,,,516.1339,1,audio/Narrative7Situation8.wav,518.1375,,518.1379,528.1653,"[[73,4361],[71.2,4444],[70.1,4528],[69.5,4611],[67.9,4694],[65.5,4780],[63.3,4861],[61.7,4945],[61.1,5027],[61.3,5111],[65.7,5194],[68.9,5277],[71.7,5360],[73.6,5444],[75.2,5527],[76.6,5611],[78.3,5695],[79.3,5778],[79.4,5860],[79.4,5944],[79.4,6027],[79.4,6110],[79.4,6193],[79.4,6277],[79.4,6360],[79.4,6443],[79.4,6527],[79.4,6610],[79.4,6693],[79.4,6777],[79.4,6860],[79.4,6943],[79.4,7027],[79.4,7110],[79.4,7193],[79.4,7277],[79.4,7360],[79.4,7443],[79.4,7527],[79.4,7610],[79.4,7693],[79.4,7776],[79.4,7860],[79.4,7943],[79.4,8027],[79.4,8110],[79.4,8193],[79.4,8277],[79.4,8360],[79.4,8443],[79.4,8527],[79.4,8610],[79.4,8694],[79.4,8777],[79.4,8860],[79.4,8943],[79.4,9027],[79.4,9110],[79.4,9193],[79.4,9277],[79.4,9360],[79.4,9443],[79.4,9526],[79.4,9610],[79.4,9693],[79.4,9776],[79.4,9860],[79.4,9943],[79.4,10027]]",1,0,528.1656,532.315,83.52855051,2.6115,"[{""rating"":79.42898975109809,""responseTime"":1.4247000000001435},{""rating"":83.5285505124451,""responseTime"":2.611499999999978}]",space,3.6023,,532.3151,Partially,50,532.326,,,[],,0,17,17,17,1,audio/Narrative8Situation8.wav,audio/Narrative7Situation8.wav,audio/Narrative6Situation8.wav,audio/Narrative5Situation8.wav,3,2,5,3,,,,,,,,,,,,,,,,,,,,,,,,,,,,,,,,,,,,,,,
,,,,,,63d141f0a7b0e7ea9526e89d,2024-05-13_11h50.21.532,group3.1-3.2-social-tom,2023.2.2,Win32,57.80346821,65c5074098b851296ff0b7ed,664235387894182f22ce78b6,,,,,,,,,,,,,,,,,,,,,,,,,,,,,532.3267,1,audio/Narrative7Situation9.wav,534.3315,,534.3316,542.9644,"[[89.5,3584],[91.4,3666],[91.6,3749],[91,3833],[89.4,3916],[89.1,3999],[89.1,4083],[89.1,4165],[89.1,4249],[89.1,4333],[89.1,4416],[89.1,4498],[89.1,4582],[89.1,4665],[89.1,4749],[89.1,4833],[89.1,4915],[89.1,4999],[89.1,5082],[89.1,5165],[89.1,5249],[89.1,5332],[89.1,5416],[92,5499],[95.5,5583],[100,5667],[100,5750],[100,5832],[100,5915],[100,5999],[100,6082],[100,6165],[100,6249],[100,6332],[100,6415],[100,6499],[100,6582],[100,6665],[100,6749],[100,6832],[100,6915],[100,6999],[100,7082],[100,7166],[100,7249],[100,7333],[100,7415],[100,7499],[100,7582],[100,7665],[100,7748],[100,7832],[100,7916],[100,7999],[100,8083],[100,8165],[100,8249],[100,8332],[100,8416],[100,8499],[100,8582]]",1,0,542.9646,549.2306,99.4875549,5.2104,"[{""rating"":96.99853587115666,""responseTime"":2.826200000000199},{""rating"":99.48755490483163,""responseTime"":5.210400000000391}]",space,5.7231,,549.2308,Partially,50,549.2367,,,[],,0,18,18,18,1,audio/Narrative8Situation9.wav,audio/Narrative7Situation9.wav,audio/Narrative6Situation9.wav,audio/Narrative5Situation9.wav,3,2,4,3,,,,,,,,,,,,,,,,,,,,,,,,,,,,,,,,,,,,,,,
,,,,,,63d141f0a7b0e7ea9526e89d,2024-05-13_11h50.21.532,group3.1-3.2-social-tom,2023.2.2,Win32,57.80346821,65c5074098b851296ff0b7ed,664235387894182f22ce78b6,,,,,,,,,,,,,,,,,,,,,,,,,,,571.1987,573.7626,573.8142,2,audio/Narrative13Situation2.wav,573.8145,,573.8145,603.5784,"[[99.2,3582],[22.2,4265],[29.6,4598],[29.6,4681],[29.6,4764],[29.6,4847],[29.6,4931],[29.6,5014],[29.6,5097],[29.2,5181],[26,5264],[24.2,5348],[22,5432],[21,5515],[20.7,5598],[20.6,5680],[20.6,5764],[20.6,5847],[20.6,5931],[20.6,6014],[20.6,6097],[20.6,6181],[20.6,6264],[20.6,6347],[20.6,6431],[20.6,6514],[20.6,6597],[20.6,6681],[20.6,6764],[20.6,6847],[20.6,6931],[20.6,7014],[20.6,7097],[20.6,7181],[20.6,7264],[20.6,7347],[20.6,7431],[20.6,7514],[20.6,7597],[20.6,7681],[20.6,7764],[20.6,7847],[20.6,7931],[20.6,8014],[20.6,8097],[20.6,8181],[20.6,8264],[20.6,8347],[20.6,8431],[20.6,8514],[20.6,8597],[20.6,8681],[20.6,8764],[20.6,8847],[20.6,8931],[20.6,9014],[20.6,9097],[20.6,9181],[20.6,9264],[20.6,9347],[20.6,9431],[20.6,9514],[20.6,9597],[20.6,9681],[20.6,9764],[20.6,9847],[27,9947],[32.1,10032],[36.5,10115],[38.7,10197],[39.2,10280],[39.2,10364],[38.9,10447],[37.7,10531],[36.2,10615],[36.1,10697],[38.3,10782],[44.1,10865],[57.3,10948],[62,11032],[65.1,11114],[65.1,11197],[65.1,11281],[65.1,11364],[69,11448],[73,11532],[75.5,11615],[77.8,11698],[79.7,11782],[80.3,11864],[80.7,11947],[80.7,12030],[80.7,12114],[80.7,12197],[80.7,12280],[80.7,12364],[80.7,12447],[80.7,12530],[80.7,12613],[80.7,12697],[80.7,12780],[80.7,12864],[80.7,12947],[80.7,13031],[80.7,13114],[80.7,13197],[80.7,13280],[80.7,13364],[80.7,13447],[81.9,13532],[87.6,13615],[90.3,13698],[92.8,13781],[95.1,13864],[95.8,13947],[96.6,14031],[98.8,14115],[100,14197],[100,16864],[100,16948],[100,17031],[100,17114],[100,17198],[100,17280],[100,17364],[100,17447],[100,17530],[100,17614],[100,17697],[90.6,17797],[84.3,17881],[78.7,17964],[70.4,18047],[60.2,18131],[52.2,18215],[48.5,18298],[46.3,18381],[44.7,18464],[43.6,18547],[43.4,18630],[43.6,18714],[47.5,18797],[48.7,18881],[49.4,18964],[50.4,19047],[50.6,19130],[50.7,19213],[50.7,19296],[50.7,19380],[50.7,19463],[50.7,19547],[50.7,19630],[50.7,19713],[50.7,19797],[50.7,19880],[50.7,19963],[50.7,20047],[50.7,20130],[50.4,20214],[49.7,20297],[49.3,20381],[48.8,20464],[48.8,20547],[48.8,20630],[48.7,20714],[47.2,20797],[45.5,20882],[42.7,20964],[39.6,21048],[35.4,21130],[32.7,21214],[31.3,21297],[30.4,21381],[29.2,21464],[28.3,21547],[28.2,21630],[28.2,21713],[28.2,21797],[28.2,21880],[28.2,21963],[28.2,22046],[28.2,22130],[28.2,22213],[28.2,22296],[28.2,22380],[28.2,22463],[28.2,22546],[28.2,22630],[28.2,22713],[28.2,22797],[28.2,22880],[28.2,22963],[28.2,23046],[28.2,23130],[28.2,23213],[28.2,23296],[28.2,23380],[28.2,23463],[28.2,23546],[28.2,23630],[28.2,23713],[28.2,23796],[28.2,23880],[28.2,23963],[28.2,24047],[28.2,24130],[28.2,24213],[28.2,24297],[28.2,24380],[28.6,24464],[28.6,24546],[28.8,24630],[29.4,24713],[29.8,24796],[29.8,24880],[29.8,24963],[29.8,25047],[29.8,25130],[29.8,25213],[28,25297],[24.2,25380],[20.6,25464],[18.7,25547],[17.9,25631],[16.6,25715],[15.9,25796],[15.4,25880],[15,25964],[15,26047],[15,26130],[15,26213],[15,26296],[15,26380],[15,26463],[15,26546],[15,26630],[15,26713],[15,26799],[15,26880],[15,26963],[15,27047],[15,27130],[15,27213],[15,27296],[15,27380],[15,27463],[15,27546],[15,27630],[15,27713],[15,27796],[15,27880],[15,27963],[15,28046],[15,28130],[15,28213],[15,28296],[15,28379],[15,28463],[15,28546],[15,28630],[15,28713],[15,28796],[15,28880],[15,28963],[15,29046],[15,29130],[15,29213],[15,29296],[15,29380],[15,29463],[15,29546],[15,29630],[15,29713]]",1,0,603.579,603.6157,,,[],,,,603.6159,Partially,50,603.6207,,,[],,0,0,0,0,1,audio/Narrative13Situation2.wav,audio/Narrative13Situation2.wav,audio/Narrative13Situation2.wav,audio/Narrative13Situation2.wav,2,2,2,2,,,,,549.2392,571.1659,space,21.3979,,,,,,,,,,,,,,,,,,,,,,,,,,,,,,,
,,,,,,63d141f0a7b0e7ea9526e89d,2024-05-13_11h50.21.532,group3.1-3.2-social-tom,2023.2.2,Win32,57.80346821,65c5074098b851296ff0b7ed,664235387894182f22ce78b6,,,,,,,,,,,,,,,,,,,,,,,,,,,,,603.6215,2,audio/Narrative6Situation1.wav,605.6286,,605.6287,632.2272,"[[14.3,5115],[14,5198],[14,5282],[14,5365],[21.4,5449],[48,5533],[68.2,5616],[70.9,5699],[73.9,5783],[76.2,5865],[77.2,5949],[77.2,6032],[77.8,6116],[79.1,6200],[79.7,6282],[79.7,6365],[79.7,6448],[79.7,6531],[79.7,6615],[79.7,6698],[79.7,6781],[79.7,6865],[79.7,6948],[79.7,7032],[79.7,7115],[79.7,7198],[79.7,7282],[79.7,7366],[79.7,7448],[79.7,7532],[79.7,7615],[79.7,7698],[79.7,7786],[79.7,7865],[79.7,7948],[79.7,8032],[79.7,8115],[79.7,8198],[79.7,8282],[79.7,8365],[79.7,8448],[79.7,8531],[79.7,8615],[79.7,8698],[79.7,8782],[79.7,8865],[79.7,8949],[79.7,9031],[79.7,9115],[79.7,9198],[79.7,9281],[79.7,9365],[79.7,9448],[79.7,9531],[78.8,9616],[78.4,9699],[78.4,9781],[78.4,9865],[78.4,9948],[78.4,10031],[78.4,10115],[78.3,10199],[78.1,10281],[78.1,10365],[78.1,10448],[78.1,10531],[78.1,10615],[78.1,10698],[78.1,10781],[78.1,10865],[78.1,10948],[77.5,11032],[75.5,11116],[70.6,11199],[62.9,11282],[59.1,11365],[53.4,11449],[29.1,12115],[28.2,12199],[27.5,12283],[27.2,12365],[27.2,12448],[27,12532],[26,12615],[23.9,12699],[22.5,12782],[22.3,12865],[22.3,12948],[22.3,13031],[22.3,13115],[22.3,13198],[22.3,13281],[22.3,13365],[22.3,13448],[22.3,13531],[22.3,13615],[22.3,13698],[22.3,13781],[22.3,13864],[22.3,13948],[22.3,14031],[22.3,14115],[22.3,14198],[22.3,14281],[22.3,14365],[22.3,14448],[22.3,14531],[22.3,14615],[22.3,14698],[22.3,14781],[22.3,14865],[22.3,14948],[22.3,15032],[22.3,15114],[22.3,15198],[22.3,15281],[22.3,15365],[22.3,15448],[22.3,15531],[22.3,15615],[22.3,15698],[22.3,15781],[22.3,15865],[22.3,15948],[22.3,16031],[22.3,16115],[22.3,16198],[22.3,16281],[22.3,16367],[22.3,16448],[22.3,16531],[22.3,16614],[22.3,16698],[22.3,16781],[22.3,16865],[22.3,16948],[22.3,17031],[22.3,17114],[22.3,17198],[22.3,17281],[22.3,17364],[22.3,17448],[22.3,17531],[22.3,17614],[22.3,17698],[22.3,17781],[22.3,17864],[22.3,17948],[22.3,18031],[22.3,18115],[22.3,18198],[22.3,18281],[22.3,18364],[21.7,18473],[21,18549],[19.4,18632],[18.5,18715],[17.8,18798],[17.2,18881],[16.5,18965],[15.9,19048],[15,19132],[14.6,19215],[14.3,19298],[14,19381],[13.5,19466],[13.3,19548],[13,19631],[12.8,19715],[12.4,19799],[12.4,19881],[11.9,19965],[11.6,20048],[11.1,20131],[10.5,20215],[10.3,20298],[9.9,20381],[9.7,20464],[9.7,20547],[9.7,20631],[9.7,20714],[9.7,20798],[9.7,20881],[9.7,20964],[9.7,21048],[9.7,21131],[9.7,21215],[9.7,21298],[9.7,21381],[9.7,21464],[10,21548],[11.1,21632],[11.9,21715],[13.5,21799],[16.2,21883],[20.9,21965],[26.9,22048],[35.8,22132],[47.4,22215],[50.9,22298],[52.6,22382],[55.3,22465],[57.3,22549],[58.6,22633],[60,22715],[61.1,22798],[62.9,22882],[63.8,22964],[64.1,23048],[64.9,23132],[65.5,23215],[66.5,23299],[67.7,23382],[68.3,23465],[69,23548],[69.8,23632],[70.4,23715],[70.9,23798],[71.4,23883],[71.8,23965],[72.4,24047],[72.7,24131],[73.4,24214],[74.2,24298],[74.3,24381],[74.5,24464],[74.9,24549],[75.5,24631],[75.6,24714],[75.6,24798],[75.6,24881],[75.6,24964],[75.6,25048],[75.6,25131],[75.6,25214],[75.6,25297],[75.6,25381],[75.6,25464],[75.6,25547],[75.6,25631],[75.6,25714],[75.6,25798],[75.6,25881],[75.6,25964],[75.6,26048],[75.6,26130],[75.6,26214],[75.6,26297],[75.6,26380],[75.6,26464],[75.6,26547]]",1,0,632.2277,635.9834,48.24304539,2.2537,"[{""rating"":48.243045387994144,""responseTime"":2.253700000000208}]",space,3.2074,,635.9836,Not at all,0,635.9945,,,[],,0,1,1,1,1,audio/Narrative7Situation1.wav,audio/Narrative8Situation1.wav,audio/Narrative5Situation1.wav,audio/Narrative6Situation1.wav,2,5,5,2,,,,,,,,,,,,,,,,,,,,,,,,,,,,,,,,,,,,,,,
,,,,,,63d141f0a7b0e7ea9526e89d,2024-05-13_11h50.21.532,group3.1-3.2-social-tom,2023.2.2,Win32,57.80346821,65c5074098b851296ff0b7ed,664235387894182f22ce78b6,,,,,,,,,,,,,,,,,,,,,,,,,,,,,635.9955,2,audio/Narrative6Situation2.wav,639.0098,,639.01,667.5251,"[[44.6,3766],[41.4,3849],[39.3,3932],[35.2,4016],[32.1,4101],[27.5,4183],[24.8,4267],[24.1,4349],[24.1,4432],[24.1,4516],[24.1,4599],[24.1,4682],[24.1,4766],[24.1,4849],[24.1,4932],[24.1,5016],[24.1,5099],[24.1,5182],[24.1,5265],[24.1,5348],[24.1,5432],[24.1,5515],[24.1,5599],[24.1,5682],[24.1,5765],[24.1,5848],[24.1,5932],[24.1,6015],[24.1,6098],[24.1,6182],[24.1,6265],[24.1,6349],[24.1,6432],[24.1,6515],[24.1,6599],[24.1,6682],[24.1,6765],[24.1,6849],[24.1,6932],[24.1,7015],[24.1,7099],[24.1,7182],[24.1,7265],[24.1,7348],[24.1,7432],[24.1,7515],[24.1,7598],[24.1,7682],[24.1,7765],[24.1,7848],[24.1,7932],[24.1,8015],[24.1,8098],[24.1,8182],[24.1,8265],[24.1,8349],[24.1,8432],[24.1,8515],[24.1,8598],[24.1,8682],[24.1,8765],[24.1,8849],[24.1,8932],[24.1,9015],[24.1,9098],[24.1,9182],[24.1,9265],[24.1,9349],[24.1,9432],[24.1,9516],[24.1,9598],[24.1,9682],[24.1,9765],[24.1,9848],[24.1,9932],[24.1,10015],[24.1,10099],[24.1,10182],[25.7,10286],[27,10366],[28.8,10450],[30.1,10532],[31.4,10616],[32.6,10700],[33.7,10783],[34.5,10866],[35.5,10949],[36.7,11033],[37.8,11116],[38.4,11198],[39.5,11282],[40.5,11365],[41.5,11450],[41.7,11532],[41.7,11615],[41.7,11698],[41.7,11781],[41.7,11865],[41.7,11949],[41.7,12032],[41.7,12115],[41.7,12199],[41.7,12281],[41.7,12365],[41.7,12449],[41.7,12532],[41.7,12615],[41.7,12698],[41.7,12782],[41.7,12865],[41.7,12949],[41.7,13031],[41.7,13115],[41.7,13198],[41.7,13281],[41.7,13365],[41.7,13448],[41.7,13532],[41.7,13615],[41.7,13698],[41.7,13781],[41.7,13865],[41.7,13948],[41.7,14031],[41.7,14115],[41.7,14198],[41.7,14281],[41.7,14367],[41.7,14448],[41.7,14531],[41.7,14615],[41.7,14698],[41.7,14781],[41.7,14865],[41.7,14948],[41.7,15031],[41.7,15115],[41.7,15198],[41.7,15281],[41.7,15365],[41.7,15448],[41.7,15531],[41.7,15615],[41.7,15698],[41.7,15781],[41.7,15865],[41.7,15948],[41.7,16031],[41.7,16115],[41.7,16199],[41.7,16281],[41.7,16365],[41.7,16448],[41.7,16531],[41.7,16615],[41.8,16699],[43.4,16801],[44.3,16883],[45,16965],[45,17048],[45.5,17132],[46.2,17216],[46.9,17299],[47.7,17382],[48.1,17465],[48.2,17548],[48.2,17631],[48.2,17715],[48.2,17798],[48.2,17881],[48.2,17965],[48.2,18048],[48.2,18131],[48.2,18215],[48.2,18298],[48.2,18381],[48.2,18465],[48.2,18548],[48.2,18631],[48.2,18715],[48.2,18798],[48.2,18881],[48.2,18965],[48.2,19048],[48.2,19131],[48.2,19215],[48.2,19298],[48.2,19381],[48.2,19465],[48.2,19548],[48.2,19631],[48.2,19714],[48.2,19798],[48.2,19881],[48.2,19965],[48.2,20048],[48.2,20131],[48.2,20214],[48.2,20298],[48.2,20382],[48.2,20465],[48.2,20548],[48.2,20631],[48.2,20715],[48.2,20798],[48.2,20881],[48.2,20966],[48.2,21048],[62.7,21152],[66.8,21231],[71.4,21315],[73.1,21399],[73.4,21482],[74.2,21565],[74.6,21649],[76.2,21732],[78.4,21815],[79.9,21903],[80.9,21981],[81.5,22065],[82.1,22149],[82.7,22231],[82.8,22314],[82.8,22397],[82.8,22481],[82.8,22564],[82.8,22648],[82.8,22731],[82.8,22814],[82.8,22898],[82.8,22981],[82.8,23065],[82.8,23148],[82.8,23232],[82.8,23314],[82.8,23398],[82.8,23481],[82.8,23565],[82.8,23648],[82.8,23731],[82.8,23815],[82.8,23898],[82.8,23981],[82.8,24064],[84.3,24149],[85,24231],[85.9,24315],[86.3,24398],[86.3,24481],[86.5,24564],[86.9,24648],[87.9,24732],[88.8,24814],[89.2,24898],[90,24982],[91,25065],[91.6,25147],[92.5,25231],[94.2,25315],[96.4,25400],[97.6,25482],[98,25566],[98,25648],[98.5,25731],[98.9,25821],[98.9,25898],[98.9,25981],[98.9,26065],[98.9,26148],[98.9,26231],[98.9,26314],[98.9,26398],[98.9,26481],[98.9,26565],[98.9,26648],[98.9,26731],[98.9,26814],[98.9,26897],[98.9,26981],[98.9,27065],[98.9,27148],[98.9,27231],[98.9,27315],[98.9,27397],[98.9,27481],[98.9,27564],[98.9,27648],[98.9,27731],[98.9,27814],[98.9,27898],[98.9,27981],[98.9,28065],[98.9,28147],[98.9,28231],[98.9,28314],[98.9,28399],[98.9,28481]]",1,0,667.5257,670.6914,71.22986823,2.4091,"[{""rating"":71.2298682284041,""responseTime"":2.409100000000535}]",space,2.627,,670.6915,Definitely yes,100,679.9976,100,8.1063,"[{""rating"":99.78038067349927,""responseTime"":3.109499999999912},{""rating"":100,""responseTime"":5.871599999999603},{""rating"":100,""responseTime"":8.106299999999806}]",space,0,2,2,2,1,audio/Narrative7Situation2.wav,audio/Narrative8Situation2.wav,audio/Narrative5Situation2.wav,audio/Narrative6Situation2.wav,3,3,3,3,,,8.7805,,,,,,,,,,,,,,,,,,,,,,,,,,,,,,,,,,,,
,,,,,,63d141f0a7b0e7ea9526e89d,2024-05-13_11h50.21.532,group3.1-3.2-social-tom,2023.2.2,Win32,57.80346821,65c5074098b851296ff0b7ed,664235387894182f22ce78b6,,,,,,,,,,,,,,,,,,,,,,,,,,,,,679.9987,2,audio/Narrative6Situation3.wav,685.0078,,685.0079,697.6233,"[[69.9,5966],[58.2,6049],[53.5,6134],[48.7,6216],[46.6,6300],[43.6,6383],[41.7,6466],[41.2,6549],[41.2,6632],[41.8,6716],[59.8,6800],[67.3,6884],[72.1,6966],[76.8,7050],[78.4,7133],[78.8,7216],[79.6,7298],[80.5,7383],[81.2,7466],[82.5,7550],[84.1,7634],[86.6,7716],[87.3,7799],[87.3,7882],[87.3,7965],[87.3,8048],[87.3,8132],[87.3,8215],[87.3,8298],[87.3,8382],[87.3,8465],[87.3,8549],[87.3,8632],[87.3,8715],[87.3,8798],[87.3,8882],[87.3,8965],[87.3,9049],[87.3,9132],[87.3,9215],[87.3,9299],[87.3,9382],[87.3,9465],[87.3,9549],[87.3,9632],[87.3,9715],[87.3,9798],[87.3,9882],[87.3,9965],[87.3,10048],[87.3,10132],[85.9,10216],[84.7,10299],[83.5,10383],[81.8,10466],[80.2,10549],[79.4,10633],[78.6,10716],[78.4,10799],[78.4,10882],[78.4,10965],[78.4,11048],[78.4,11132],[78.4,11215],[78.4,11298],[78.4,11382],[78.4,11465],[78.4,11549],[78.4,11632],[78.4,11715],[78.4,11798],[78.4,11881],[78.4,11965],[78.4,12048],[78.4,12132],[78.4,12215],[78.4,12298],[78.4,12382],[78.4,12465],[78.4,12548]]",1,0,697.6236,702.0234,60.68814056,3.3392,"[{""rating"":60.688140556368964,""responseTime"":3.3391999999992095}]",space,3.8677,,702.0236,Partially,50,702.0348,,,[],,0,3,3,3,1,audio/Narrative7Situation3.wav,audio/Narrative8Situation3.wav,audio/Narrative5Situation3.wav,audio/Narrative6Situation3.wav,8,4,3,5,,,,,,,,,,,,,,,,,,,,,,,,,,,,,,,,,,,,,,,
,,,,,,63d141f0a7b0e7ea9526e89d,2024-05-13_11h50.21.532,group3.1-3.2-social-tom,2023.2.2,Win32,57.80346821,65c5074098b851296ff0b7ed,664235387894182f22ce78b6,,,,,,,,,,,,,,,,,,,,,,,,,,,,,702.0356,2,audio/Narrative6Situation4.wav,704.0401,,704.0405,716.6741,"[[60.5,3166],[54,3250],[49.1,3333],[44.4,3417],[37.7,3500],[33.5,3582],[31.7,3666],[29.8,3749],[27.2,3832],[26.6,3917],[25.1,4001],[22.5,4083],[22,4165],[22,4249],[21.9,4331],[21.9,4415],[21.9,4499],[21.9,4582],[21.9,4666],[21.9,4749],[21.9,4832],[21.9,4915],[21.9,4999],[21.9,5081],[21.9,5165],[21.9,5249],[21.9,5332],[21.9,5415],[21.9,5498],[21.9,5581],[21.9,5665],[21.9,5749],[21.9,5832],[21.9,5915],[21.9,5999],[21.9,6082],[21.9,6165],[21.9,6249],[21.9,6332],[21.9,6415],[21.9,6499],[21.9,6581],[21.9,6665],[21.9,6749],[21.9,6832],[21.9,6915],[21.9,6999],[21.9,7081],[21.9,7165],[21.9,7248],[21.9,7331],[21.9,7415],[21.9,7499],[21.9,7582],[21.9,7665],[21.9,7748],[21.9,7831],[21.9,7915],[21.9,7999],[21.9,8082],[21.9,8165],[21.9,8249],[21.9,8331],[21.9,8415],[21.9,8498],[21.9,8581],[21.9,8665],[21.9,8748],[21.9,8831],[21.9,8915],[21.9,8998],[21.9,9081],[21.9,9165],[21.9,9248],[21.9,9332],[21.9,9415],[21.9,9498],[21.9,9581],[21.9,9665],[21.9,9748],[21.9,9831],[21.9,9915],[21.9,9998],[21.9,10081],[21.9,10165],[21.9,10248],[21.9,10331],[21.9,10415],[21.9,10500],[21.9,10582],[21.9,10665],[21.9,10748],[21.9,10831],[21.9,10915],[21.9,10998],[21.9,11081],[23.5,11174],[25.3,11265],[26.6,11339],[27.6,11421],[27.7,11504],[27.7,11582],[27.7,11666],[27.7,11749],[27.7,11832],[26.3,11922],[26,12004],[26,12086],[26,12165],[26,12253],[25.7,12338],[25.7,12420],[25.7,12504],[25.7,12586]]",1,0,716.6744,723.3795,5.05124451,4.552,"[{""rating"":14.71449487554905,""responseTime"":2.1525999999996657},{""rating"":5.051244509516839,""responseTime"":4.552000000000021}]",space,6.1697,,723.3796,Not at all,0,723.3916,,,[],,0,4,4,4,1,audio/Narrative7Situation4.wav,audio/Narrative8Situation4.wav,audio/Narrative5Situation4.wav,audio/Narrative6Situation4.wav,3,3,1,2,,,,,,,,,,,,,,,,,,,,,,,,,,,,,,,,,,,,,,,
,,,,,,63d141f0a7b0e7ea9526e89d,2024-05-13_11h50.21.532,group3.1-3.2-social-tom,2023.2.2,Win32,57.80346821,65c5074098b851296ff0b7ed,664235387894182f22ce78b6,,,,,,,,,,,,,,,,,,,,,,,,,,,,,723.3924,2,audio/Narrative6Situation5.wav,725.4106,,725.4108,733.372,"[[9.3,2778],[12.4,2862],[14.4,2946],[16.6,3028],[18.4,3111],[20.4,3194],[21.9,3277],[23.2,3361],[25.3,3445],[27.6,3529],[29.6,3611],[31.6,3695],[32.9,3778],[33.5,3860],[33.5,3944],[33.5,4027],[33.5,4110],[33.5,4194],[33.5,4277],[33.5,4360],[33.5,4444],[33.5,4527],[33.5,4610],[33.5,4693],[33.5,4778],[33.5,4860],[33.5,4944],[33.5,5027],[33.5,5110],[33.5,5194],[33.5,5277],[33.5,5360],[33.5,5443],[33.5,5527],[33.5,5610],[33.5,5694],[33.5,5777],[33.5,5860],[33.5,5944],[33.5,6027],[33.5,6110],[33.5,6194],[33.5,6277],[33.5,6360],[33.5,6444],[33.5,6527],[33.5,6610],[33.5,6694],[33.5,6777],[33.5,6860],[33.5,6944],[33.5,7027],[33.5,7111],[33.5,7194],[33.5,7277],[33.5,7360],[33.5,7445],[33.5,7527],[33.5,7610],[33.5,7694],[33.5,7777],[33.5,7860],[33.5,7944]]",1,0,733.3723,738.9217,37.99414348,4.716,"[{""rating"":37.99414348462665,""responseTime"":4.716000000000008}]",space,5.0008,,738.9218,Partially,50,738.9328,,,[],,0,5,5,5,1,audio/Narrative7Situation5.wav,audio/Narrative8Situation5.wav,audio/Narrative5Situation5.wav,audio/Narrative6Situation5.wav,5,2,5,2,,,,,,,,,,,,,,,,,,,,,,,,,,,,,,,,,,,,,,,
,,,,,,63d141f0a7b0e7ea9526e89d,2024-05-13_11h50.21.532,group3.1-3.2-social-tom,2023.2.2,Win32,57.80346821,65c5074098b851296ff0b7ed,664235387894182f22ce78b6,,,,,,,,,,,,,,,,,,,,,,,,,,,,,738.9336,2,audio/Narrative6Situation6.wav,740.9382,,740.9384,752.0266,"[[36.7,1840],[33.5,1923],[32.6,2004],[32.3,2089],[32.3,2171],[32.3,2255],[32.3,2337],[32.3,2416],[32.3,2500],[32.3,2588],[32.3,2666],[32.3,2749],[32.3,2837],[32.3,2922],[32.3,3004],[32.3,3087],[32.3,3166],[32.3,3250],[32.3,3338],[32.7,3423],[34.6,3506],[38.4,3589],[41.8,3675],[43.7,3758],[45,3840],[46.5,3924],[47.7,4006],[48.2,4088],[48.7,4172],[49,4255],[49,4337],[49,4421],[49,4499],[49,4587],[49,4672],[49,4749],[49,4838],[49,4921],[49,4999],[49.4,5088],[49.9,5172],[50.1,5260],[50.1,5337],[50.1,5420],[50.1,5504],[50.1,5583],[50.1,5665],[50.1,5749],[50.1,5837],[50.1,5921],[50.1,6004],[50.1,6082],[50.1,6166],[50.1,6249],[50.1,6337],[50.1,6416],[50.1,6499],[50.1,6587],[50.1,6672],[50.1,6754],[50.1,6838],[50.1,6915],[50.1,6999],[50.1,7087],[50.1,7172],[50.1,7253],[50.1,7332],[50.1,7420],[50.1,7504],[50.1,7587],[50.1,7666],[50.1,7749],[50.1,7838],[50.1,7916],[50.1,7999],[50.1,8087],[50.1,8171],[50.1,8255],[50.1,8337],[50.1,8421],[50.1,8499],[50.1,8582],[50.1,8671],[50.1,8749],[50.1,8837],[50.1,8916],[50.1,8999],[50.1,9088],[50.1,9171],[50.1,9254],[50.1,9337],[50.1,9416],[50.1,9504],[50.1,9587],[50.1,9672],[50.1,9749],[50.1,9832],[50.1,9920],[50.1,9999],[50.1,10087],[50.1,10172],[50.1,10249],[50.1,10337],[50.1,10415],[50.1,10504],[50.1,10588],[50.1,10665],[50.1,10749],[50.1,10835],[50.1,10923],[50.1,11004],[50.1,11087]]",1,0,752.027,757.1771,50.14641288,1.2513,"[{""rating"":50.14641288433383,""responseTime"":1.2512999999997874}]",space,4.5934,,757.1773,Partially,50,757.2134,,,[],,0,6,6,6,1,audio/Narrative7Situation6.wav,audio/Narrative8Situation6.wav,audio/Narrative5Situation6.wav,audio/Narrative6Situation6.wav,3,2,3,2,,,,,,,,,,,,,,,,,,,,,,,,,,,,,,,,,,,,,,,
,,,,,,63d141f0a7b0e7ea9526e89d,2024-05-13_11h50.21.532,group3.1-3.2-social-tom,2023.2.2,Win32,57.80346821,65c5074098b851296ff0b7ed,664235387894182f22ce78b6,,,,,,,,,,,,,,,,,,,,,,,,,,,,,757.2142,2,audio/Narrative6Situation7.wav,762.2204,,762.2205,787.0859,"[[49.1,1783],[45,1866],[42.7,1950],[39.9,2033],[38.1,2117],[36.5,2201],[34.6,2283],[32.6,2366],[27.6,2450],[25.3,2532],[24.8,2615],[24.8,2699],[24.8,2782],[24.8,2865],[24.8,2949],[24.8,3032],[24.8,3115],[24.8,3199],[24.8,3282],[24.8,3366],[24.8,3449],[24.8,3532],[24.8,3616],[24.8,3698],[24.8,3782],[24.8,3865],[24.8,3948],[24.8,4032],[24.8,4116],[24.8,4199],[24.8,4282],[24.8,4366],[24.8,4449],[24.8,4532],[24.8,4615],[24.8,4699],[24.8,4782],[24.8,4865],[24.8,4949],[24.8,5032],[24.8,5120],[24.8,5198],[24.8,5282],[24.8,5369],[24.8,5449],[24.8,5532],[24.8,5615],[24.8,5699],[24.8,5782],[24.8,5865],[24.8,5948],[24.8,6032],[24.8,6115],[24.8,6198],[24.8,6282],[24.8,6365],[24.8,6449],[24.8,6532],[24.8,6616],[24.8,6699],[24.8,6782],[24.8,6865],[24.8,6949],[24.8,7032],[24.8,7115],[24.8,7198],[24.8,7282],[24.8,7365],[24.8,7449],[44.3,7553],[67.4,7632],[72.5,7715],[75.8,7802],[77.7,7883],[78.6,7966],[81.3,8050],[83.1,8132],[83.4,8215],[83.4,8299],[83.4,8382],[83.4,8465],[83.4,8549],[83.4,8632],[83.4,8716],[83.4,8799],[83.4,8882],[83.4,8965],[83.4,9049],[83.4,9132],[83.4,9216],[83.4,9299],[83.4,9382],[83.4,9466],[83.4,9549],[83.4,9633],[83.4,9715],[83.4,9799],[83.4,9882],[83.4,9966],[83.4,10049],[83.4,10132],[83.4,10216],[83.4,10299],[83.4,10383],[83.4,10466],[83.4,10549],[83.4,10632],[83.4,10716],[83.4,10799],[83.4,10882],[83.4,10966],[83.4,11048],[83.4,11132],[83.4,11215],[83.4,11299],[83.4,11382],[83.4,11465],[83.4,11549],[83.4,11632],[83.4,11715],[83.4,11799],[83.4,11882],[83.4,11965],[83.4,12049],[83.4,12132],[83.4,12216],[83.4,12300],[83.4,12382],[83.4,12465],[85.7,12577],[89.1,12650],[91.1,12732],[92,12820],[92.9,12899],[94.5,12982],[95.5,13066],[96.4,13149],[97.6,13233],[98,13315],[98.5,13399],[99.2,13482],[99.3,13565],[99.3,13649],[99.3,13732],[99.3,13815],[99.3,13899],[99.3,13982],[99.3,14065],[99.3,14149],[99.3,14232],[99.3,14315],[99.3,14399],[99.3,14482],[99.3,14565],[99.3,14648],[99.3,14732],[99.3,14815],[99.3,14898],[99.3,14982],[99.3,15065],[99.3,15148],[99.3,15232],[99.3,15315],[99.3,15399],[99.3,15482],[99.3,15565],[99.3,15649],[99.3,15732],[99.3,15815],[99.3,15899],[99.3,15982],[99.3,16065],[99.3,16149],[99.3,16232],[99.3,16315],[99.3,16398],[99.3,16482],[99.3,16565],[99.3,16649],[99.3,16732],[99.3,16815],[99.3,16899],[99.3,16982],[99.3,17065],[99.3,17148],[99.3,17232],[99.3,17315],[99.3,17398],[99.3,17482],[99.3,17565],[99.3,17648],[99.3,17732],[99.3,17815],[99.3,17899],[99.3,17982],[99.3,18065],[99.3,18148],[99.3,18231],[98.8,18343],[98.5,18415],[97.6,18500],[97,18582],[96.7,18665],[96.3,18749],[95.8,18832],[94.7,18916],[93.2,18999],[91.6,19082],[90.4,19167],[89.7,19249],[89.2,19332],[88.7,19415],[88.4,19498],[87.3,19582],[86.7,19665],[85.7,19749],[84.8,19832],[84.6,19915],[84.4,19998],[84.4,20082],[84.4,20165],[84.4,20248],[84.4,20332],[84.4,20415],[84.4,20498],[84.4,20582],[84.4,20665],[84.4,20748],[84.4,20832],[84.4,20915],[84.4,20998],[84.4,21082],[84.4,21165],[84.4,21248],[84.4,21332],[84.4,21415],[84.4,21498],[84.4,21581],[84.4,21665],[84.4,21748],[84.4,21831],[84.4,21915],[84.4,21998],[84.4,22081],[84.4,22165],[84.4,22248],[84.4,22331],[84.4,22415],[84.4,22498],[84.4,22581],[84.4,22665],[84.4,22748],[84.4,22831],[84.4,22915],[84.4,22998],[84.4,23082],[84.4,23165],[84.4,23248],[84.4,23332],[84.4,23415],[84.4,23498],[85.6,23582],[86.6,23665],[88.1,23749],[89.4,23832],[89.7,23915],[89.8,23998],[90,24082],[91.4,24165],[92.2,24249],[92.2,24332],[92.2,24415],[92.2,24498],[92.2,24581],[92.2,24669],[92.2,24748],[92.2,24832]]",1,0,787.0865,791.4524,81.47877013,3.5244,"[{""rating"":76.79355783308931,""responseTime"":2.0237999999998237},{""rating"":81.4787701317716,""responseTime"":3.5244000000003552}]",space,3.8264,,791.4525,Definitely yes,100,791.4637,,,[],,0,7,7,7,1,audio/Narrative7Situation7.wav,audio/Narrative8Situation7.wav,audio/Narrative5Situation7.wav,audio/Narrative6Situation7.wav,5,3,4,5,,,,,,,,,,,,,,,,,,,,,,,,,,,,,,,,,,,,,,,
,,,,,,63d141f0a7b0e7ea9526e89d,2024-05-13_11h50.21.532,group3.1-3.2-social-tom,2023.2.2,Win32,57.80346821,65c5074098b851296ff0b7ed,664235387894182f22ce78b6,,,,,,,,,,,,,,,,,,,,,,,,,,,,,791.4646,2,audio/Narrative6Situation8.wav,796.4685,,796.4687,803.3353,"[[68.2,1951],[61.3,2033],[56.7,2116],[52.3,2200],[50.7,2283],[50.3,2366],[49.6,2450],[49,2533],[49,2616],[49,2699],[49,2782],[49,2866],[49,2950],[49,3033],[49,3116],[49,3199],[49,3282],[49,3366],[42.4,3450],[30.1,3533],[26.3,3617],[23.1,3700],[21.3,3783],[18.8,3868],[15.7,3951],[13.5,4033],[12.1,4118],[11.3,4200],[8.7,4283],[6.1,4367],[3.7,4452],[2,4533],[0.7,4617]]",1,0,803.3356,811.1016,0,6.5238,"[{""rating"":0.8052708638360162,""responseTime"":5.073400000000333},{""rating"":0,""responseTime"":6.523799999999824}]",space,7.2185,,811.1017,Partially,50,811.1124,,,[],,0,8,8,8,1,audio/Narrative7Situation8.wav,audio/Narrative8Situation8.wav,audio/Narrative5Situation8.wav,audio/Narrative6Situation8.wav,2,3,3,5,,,,,,,,,,,,,,,,,,,,,,,,,,,,,,,,,,,,,,,
,,,,,,63d141f0a7b0e7ea9526e89d,2024-05-13_11h50.21.532,group3.1-3.2-social-tom,2023.2.2,Win32,57.80346821,65c5074098b851296ff0b7ed,664235387894182f22ce78b6,,,,,,,,,,,,,,,,,,,,,,,,,,,,,811.1132,2,audio/Narrative6Situation9.wav,815.1177,,815.1178,825.0675,"[[999,34],[999,115],[999,199],[999,282],[999,371],[999,450],[999,533],[999,620],[999,706],[999,783],[999,866],[999,950],[999,1033],[999,1116],[999,1205],[999,1283],[999,1371],[999,1455],[999,1536],[999,1622],[999,1705],[999,1788],[999,1872],[999,1955],[999,2038],[999,2116],[999,2199],[999,2287],[999,2371],[999,2454],[999,2533],[999,2617],[999,2700],[999,2788],[999,2871],[999,2955],[999,3038],[999,3116],[999,3204],[999,3288],[999,3372],[999,3449],[999,3538],[999,3616],[999,3705],[39.5,3789],[22.8,4151],[22.2,4233],[19.7,4317],[17.9,4400],[17.6,4483],[17.6,4566],[17.6,4649],[17.6,4733],[17.6,4816],[17.6,4899],[17.6,4982],[17.6,5066],[17.6,5149],[17.6,5232],[17.6,5316],[17.6,5399],[17.6,5482],[17.6,5566],[17.6,5649],[17.6,5732],[17.6,5816],[17.6,5899],[17.6,5982],[17.3,6066],[13.3,6149],[12.2,6233],[11.3,6316],[10.9,6400],[8.9,6483],[6.1,6566],[3.1,6649],[1.7,6732],[1,6816],[0.5,6899],[0.5,6982],[0.5,7066],[0.5,7149],[0.5,7232],[0.5,7316],[0.5,7399],[0.5,7482],[0.5,7566],[0.5,7649],[0.5,7732],[0.5,7815],[0.5,7899],[0.5,7982],[0.5,8066],[0.5,8149],[0.5,8232],[0.5,8315],[0.5,8399],[0.5,8482],[0.5,8565],[0.5,8649],[0.5,8732],[0.5,8815],[0.5,8899],[0.5,8982],[0.5,9066],[0.5,9149],[0.5,9232],[0.5,9315],[0.5,9399],[0.5,9482],[0.5,9565],[0.5,9649],[0.5,9732],[0.5,9816],[0.5,9899]]",1,0,825.0677,831.4503,0,5.124,"[{""rating"":0.36603221083455484,""responseTime"":4.273900000000367},{""rating"":0,""responseTime"":5.124000000000024}]",space,5.8374,,831.4505,Partially,50,831.4557,,,[],,0,9,9,9,1,audio/Narrative7Situation9.wav,audio/Narrative8Situation9.wav,audio/Narrative5Situation9.wav,audio/Narrative6Situation9.wav,2,3,3,4,,,,,,,,,,,,,,,,,,,,,,,,,,,,,,,,,,,,,,,
,,,,,,63d141f0a7b0e7ea9526e89d,2024-05-13_11h50.21.532,group3.1-3.2-social-tom,2023.2.2,Win32,57.80346821,65c5074098b851296ff0b7ed,664235387894182f22ce78b6,,,,,,,,,,,,,,,,,,,,,,,,,,,,,831.4565,2,audio/Narrative5Situation1.wav,836.4667,,836.4668,849.7663,"[[999,33],[999,116],[999,199],[999,282],[999,366],[999,449],[999,533],[999,616],[999,699],[999,783],[999,866],[999,949],[999,1032],[999,1116],[999,1199],[999,1282],[999,1366],[999,1449],[999,1533],[999,1616],[999,1700],[999,1783],[999,1866],[999,1949],[999,2033],[999,2117],[25,2200],[26,2283],[26.7,2367],[27.5,2450],[27.6,2533],[27.6,2616],[27.6,2699],[27.6,2783],[27.6,2866],[27.6,2949],[27.6,3032],[27.6,3117],[27.6,3199],[27.6,3282],[27.6,3366],[27.6,3449],[27.6,3532],[27.6,3615],[27.6,3699],[27.6,3782],[27.6,3866],[27.6,3949],[27.6,4032],[27.6,4116],[27.6,4199],[27.6,4282],[27.6,4365],[27.6,4449],[27.6,4532],[27.6,4615],[27.6,4699],[27.6,4782],[27.6,4865],[27.6,4949],[27.6,5032],[27.6,5115],[27.6,5198],[27.6,5282],[27.6,5365],[27.6,5448],[27.6,5532],[27.6,5616],[27.6,5699],[27.6,5782],[27.6,5866],[21,5966],[17.2,6049],[13.1,6133],[9.3,6216],[3.4,6300],[1.7,6383],[1.4,6466],[1,6549],[0.4,6632],[0.2,6715],[2.6,9823],[6.1,9900],[8.7,9983],[11.5,10066],[16.9,10149],[21.4,10233],[23.1,10317],[26.1,10400],[29.1,10484],[32,10566],[34.9,10650],[36.7,10733],[37.7,10816],[37.8,10900],[37.8,10982],[37.8,11065],[37.8,11149],[37.8,11232],[37.8,11316],[37.8,11399],[37.8,11482],[37.8,11566],[37.8,11649],[37.8,11732],[37.8,11815],[37.8,11899],[37.8,11982],[37.8,12066],[37.8,12149],[37.8,12232],[37.8,12315],[37.8,12399],[37.8,12482],[37.8,12565],[37.8,12648],[37.8,12732],[37.8,12815],[37.8,12898],[37.8,12982],[37.8,13065],[37.8,13149],[37.8,13232]]",1,0,849.7666,853.2392,15.15373353,2.7709,"[{""rating"":15.15373352855051,""responseTime"":2.7708999999995285}]",space,2.933,,853.2394,Partially,50,853.245,,,[],,0,10,10,10,1,audio/Narrative8Situation1.wav,audio/Narrative7Situation1.wav,audio/Narrative6Situation1.wav,audio/Narrative5Situation1.wav,5,2,2,5,,,,,,,,,,,,,,,,,,,,,,,,,,,,,,,,,,,,,,,
,,,,,,63d141f0a7b0e7ea9526e89d,2024-05-13_11h50.21.532,group3.1-3.2-social-tom,2023.2.2,Win32,57.80346821,65c5074098b851296ff0b7ed,664235387894182f22ce78b6,,,,,,,,,,,,,,,,,,,,,,,,,,,,,853.2458,2,audio/Narrative5Situation2.wav,856.2495,,856.2497,885.7151,"[[14.6,2200],[11.9,2282],[11.1,2366],[10.8,2449],[10.8,2532],[10.8,2615],[10.8,2698],[10.8,2782],[10.8,2865],[10.8,2949],[10.8,3032],[10.8,3115],[10.8,3199],[10.8,3282],[10.8,3365],[10.8,3449],[10.8,3532],[10.8,3615],[10.8,3698],[10.8,3782],[10.8,3865],[10.8,3948],[10.8,4032],[10.8,4115],[10.8,4199],[10.8,4282],[9,4366],[4.6,4449],[0.1,7452],[0.8,7532],[2,7616],[6.4,7699],[12.5,7782],[14.7,7865],[15.6,7948],[16,8032],[17.3,8117],[21.6,8201],[24.4,8283],[25.4,8368],[26.4,8450],[27.7,8532],[29.5,8616],[31.4,8699],[33.3,8782],[35.2,8867],[36.5,8950],[37.3,9033],[38.4,9116],[39.3,9198],[39.3,9281],[39.3,9365],[39.3,9448],[39.3,9531],[39.3,9615],[39.3,9699],[39.3,9781],[39.3,9865],[39.3,9948],[39.3,10031],[39.3,10115],[39.3,10198],[39.3,10281],[39.3,10365],[39.3,10448],[39.3,10531],[39.3,10615],[39.3,10698],[40.5,10783],[41.2,10865],[41.5,10950],[41.8,11032],[43.7,11116],[45.8,11204],[46.9,11282],[48.1,11365],[49.1,11449],[49.4,11531],[49.9,11615],[49.9,11698],[49.9,11781],[49.9,11865],[49.9,11948],[49.9,12031],[49.9,12115],[49.9,12198],[49.9,12281],[49.9,12365],[49.9,12448],[49.9,12531],[49.9,12615],[49.9,12698],[49.9,12781],[49.9,12865],[49.9,12951],[49.9,13031],[49.9,13115],[49.9,13198],[49.9,13281],[49.9,13367],[49.9,13448],[49.9,13531],[49.9,13615],[49.9,13698],[49.9,13781],[49.9,13865],[49.9,13948],[49.9,14031],[49.9,14115],[49.9,14198],[49.9,14281],[49.9,14365],[49.9,14448],[49.9,14531],[49.9,14615],[49.9,14699],[50.3,14800],[50.4,14881],[51,14965],[51.8,15048],[52.3,15132],[52.8,15216],[53.2,15298],[53.7,15382],[54.2,15464],[54.8,15549],[54.8,15631],[54.8,15715],[54.8,15798],[54.8,15881],[54.8,15965],[54.8,16048],[54.8,16131],[54.8,16214],[54.8,16298],[54.8,16381],[54.8,16465],[54.8,16548],[54.8,16631],[54.8,16715],[54.8,16798],[54.8,16881],[54.8,16965],[54.8,17048],[54.8,17131],[54.8,17215],[54.8,17298],[54.8,17381],[54.8,17465],[54.8,17548],[54.8,17631],[54.8,17715],[54.8,17798],[54.8,17881],[54.8,17965],[54.8,18048],[54.8,18131],[54.8,18215],[54.8,18298],[54.8,18381],[54.8,18464],[54.8,18548],[54.8,18631],[54.8,18714],[54.8,18798],[54.8,18881],[54.8,18965],[54.8,19048],[54.8,19131],[54.8,19215],[54.8,19298],[54.8,19381],[54.8,19464],[54.8,19548],[54.8,19631],[54.8,19715],[54.8,19798],[54.8,19881],[54.8,19965],[54.8,20048],[54.8,20131],[54.8,20215],[54.8,20298],[54.8,20381],[54.8,20464],[54.8,20548],[54.8,20631],[54.8,20714],[54.8,20798],[54.8,20881],[54.8,20965],[54.8,21048],[54.8,21131],[54.8,21215],[54.8,21298],[54.8,21381],[54.8,21465],[54.8,21548],[54.8,21631],[54.8,21715],[54.8,21798],[54.8,21881],[54.8,21964],[54.8,22048],[54.8,22131],[54.8,22214],[54.8,22298],[54.8,22381],[54.8,22465],[54.8,22547],[54.8,22631],[54.8,22714],[54.8,22797],[54.8,22881],[54.8,22965],[54.8,23048],[54.8,23131],[54.8,23214],[54.8,23298],[54.8,23381],[54.8,23464],[54.8,23548],[54.8,23631],[54.8,23715],[54.8,23798],[54.8,23881],[54.8,23964],[55.9,24066],[57.3,24148],[58.6,24231],[59.8,24315],[60.5,24398],[60.8,24481],[60.8,24564],[60.8,24648],[60.8,24731],[60.8,24814],[60.8,24898],[60.8,24981],[60.8,25064],[60.8,25148],[60.8,25231],[60.8,25315],[60.8,25397],[60.8,25480],[60.8,25564],[60.8,25647],[60.8,25731],[60.8,25814],[60.8,25897],[60.8,25980],[60.8,26064],[60.8,26148],[60.8,26231],[60.8,26314],[60.8,26397],[60.8,26480],[60.8,26564],[60.8,26647],[60.8,26731],[60.8,26814],[60.8,26897],[60.8,26981],[60.8,27064],[60.8,27147],[60.8,27231],[60.8,27314],[60.8,27397],[60.8,27481],[60.8,27564],[60.8,27648],[60.8,27731],[60.8,27814],[60.8,27897],[60.8,27980],[60.8,28066],[60.8,28147],[60.8,28230],[60.8,28319],[60.8,28397],[60.8,28480],[60.8,28564],[60.8,28648],[60.8,28730],[60.8,28814],[60.8,28897],[60.8,28981],[60.8,29064],[60.8,29147],[60.8,29230],[60.8,29314],[60.8,29397]]",1,0,885.7156,890.0145,35.79795022,3.708,"[{""rating"":35.797950219619324,""responseTime"":3.7080000000000837}]",space,3.7545,,890.0147,Not at all,0,890.0255,,,[],,0,11,11,11,1,audio/Narrative8Situation2.wav,audio/Narrative7Situation2.wav,audio/Narrative6Situation2.wav,audio/Narrative5Situation2.wav,3,3,3,3,,,,,,,,,,,,,,,,,,,,,,,,,,,,,,,,,,,,,,,
,,,,,,63d141f0a7b0e7ea9526e89d,2024-05-13_11h50.21.532,group3.1-3.2-social-tom,2023.2.2,Win32,57.80346821,65c5074098b851296ff0b7ed,664235387894182f22ce78b6,,,,,,,,,,,,,,,,,,,,,,,,,,,,,890.0263,2,audio/Narrative5Situation3.wav,893.0309,,893.031,906.947,"[[34.5,2618],[28.8,2700],[27.5,2783],[28.9,2867],[32.9,2949],[38.3,3033],[41.7,3116],[42.4,3199],[44,3284],[47.2,3366],[50.1,3450],[52.3,3533],[52.9,3615],[52.9,3698],[51.9,3782],[51,3866],[50.3,3949],[50.1,4032],[50.1,4115],[50.1,4199],[50.1,4282],[50.1,4366],[50.1,4449],[50.1,4532],[50.1,4616],[50.1,4699],[50.1,4782],[50.1,4865],[50.1,4948],[50.1,5032],[50.1,5115],[50.1,5199],[50.1,5282],[50.1,5365],[50.1,5449],[50.1,5532],[53.1,5616],[63.2,5699],[67.4,5783],[70.1,5866],[73.9,5949],[78.3,6033],[84,6116],[88.2,6200],[89.1,6282],[90,6365],[92.3,6449],[95.4,6532],[96.9,6616],[97.7,6699],[98.2,6782],[98.2,6866],[98.2,6948],[98.2,7032],[98.2,7115],[98.2,7198],[100,7283],[100,7366],[100,7448],[100,7532],[100,7615],[100,7699],[100,7782],[100,7865],[100,7948],[100,8032],[100,8115],[100,8199],[100,8282],[100,8365],[100,8448],[100,8532],[100,8615],[100,8698],[100,8782],[100,8865],[100,8948],[100,9032],[100,9115],[100,9198],[100,9282],[100,9370],[100,9448],[100,9533],[100,9617],[100,9700],[100,9782],[100,9866],[99.9,9949],[99.9,10048],[99.9,10132],[99.9,10215],[99.9,10299],[99.9,10382],[99.9,10465],[99.9,10548],[99.9,10632],[99.9,10715],[99.9,10798],[99.9,10882],[99.9,10965],[99.9,11048],[99.9,11132],[99.9,11216],[98.6,11300],[97.9,11383],[97.7,11465],[97.1,11549],[96.6,11632],[96.3,11716],[95.8,11799],[95.1,11883],[93.9,11966],[91.9,12050],[90.8,12132],[89.5,12216],[88.4,12299],[87.6,12382],[87,12465],[86.3,12549],[85.9,12632],[85.9,12715],[85.7,12798],[85.7,12882],[85.7,12965],[85.7,13048],[85.7,13131],[85.7,13215],[85.7,13298],[85.7,13382],[85.7,13465],[85.7,13548],[85.7,13632],[85.7,13716],[85.7,13798],[85.7,13882]]",1,0,906.9474,909.5695,81.91800878,1.9372,"[{""rating"":81.91800878477306,""responseTime"":1.937200000000189}]",space,2.0775,,909.5696,Not at all,0,909.5747,,,[],,0,12,12,12,1,audio/Narrative8Situation3.wav,audio/Narrative7Situation3.wav,audio/Narrative6Situation3.wav,audio/Narrative5Situation3.wav,4,8,5,3,,,,,,,,,,,,,,,,,,,,,,,,,,,,,,,,,,,,,,,
,,,,,,63d141f0a7b0e7ea9526e89d,2024-05-13_11h50.21.532,group3.1-3.2-social-tom,2023.2.2,Win32,57.80346821,65c5074098b851296ff0b7ed,664235387894182f22ce78b6,,,,,,,,,,,,,,,,,,,,,,,,,,,,,909.5755,2,audio/Narrative5Situation4.wav,910.5809,,910.581,930.9624,"[[80.5,1921],[75.8,2007],[72,2090],[69.2,2174],[67.9,2255],[67.7,2336],[67.6,2420],[66.4,2506],[65.4,2589],[65.2,2670],[65.2,2753],[65.2,2832],[65.2,2921],[62.3,3006],[60,3088],[57.2,3172],[55.4,3255],[54.4,3339],[54.1,3421],[54.1,3503],[54.1,3582],[54.1,3666],[54.1,3753],[54.1,3837],[53.7,3922],[53.1,4007],[52.5,4082],[51.8,4173],[50.9,4255],[49.9,4340],[49.4,4421],[49.4,4498],[49.3,4587],[49.3,4671],[49.3,4748],[49.3,4837],[49.3,4920],[49.3,5004],[49.3,5087],[49.3,5165],[49.3,5253],[49.3,5337],[49.3,5420],[49.3,5499],[49.3,5588],[49.3,5665],[49.3,5754],[49.3,5832],[49.3,5921],[49.3,6003],[49.3,6082],[49.3,6165],[49.3,6254],[49.3,6336],[49.3,6421],[49.3,6501],[49.3,6587],[49.3,6671],[49.3,6753],[49.3,6838],[49.3,6920],[49.3,7003],[49.3,7087],[49.3,7165],[49.3,7253],[49.3,7332],[49.3,7419],[49.3,7502],[49.3,7587],[49.3,7670],[49.3,7749],[49.3,7836],[45.9,7923],[41.4,8005],[38.9,8088],[35.9,8174],[32.7,8260],[31,8339],[29.6,8422],[28.9,8504],[28.6,8588],[27.6,8672],[26.7,8754],[26.6,8837],[26.6,8915],[26.6,8998],[26.6,9086],[26.6,9170],[26.6,9253],[26.4,9332],[26.4,9415],[26.4,9503],[31.4,9589],[35.1,9672],[37.4,9757],[39.5,9840],[41.8,9923],[43.7,10005],[46.3,10090],[48.2,10172],[49.4,10255],[49.9,10336],[50.3,10421],[50.4,10498],[50.4,10581],[50.7,10670],[50.7,10753],[50.7,10836],[50.7,10920],[50.7,10999],[50.7,11082],[50.7,11169],[51.2,11255],[51.2,11332],[51.6,11422],[51.6,11498],[51.6,11588],[51.6,11669],[51.6,11754],[51.6,11836],[51.6,11921],[51.6,12003],[51.6,12086],[51.6,12170],[51.6,12248],[51.6,12331],[51.6,12419],[51.6,12503],[51.6,12586],[51.6,12665],[51.6,12753],[51.6,12836],[51.6,12919],[51.6,12998],[51.6,13086],[51.6,13171],[51.6,13252],[51.6,13338],[51.6,13415],[51.6,13499],[51.6,13581],[51.6,13670],[51.6,13748],[51.6,13838],[51.6,13915],[51.6,14003],[51.6,14084],[51.6,14169],[51.6,14253],[51.6,14337],[51.6,14415],[51.6,14504],[51.6,14586],[51.6,14670],[51.6,14758],[51.6,14836],[51.6,14920],[51.6,15003],[51.6,15087],[51.6,15169],[51.6,15248],[51.6,15336],[51.6,15419],[53.4,15532],[56.4,15615],[60.4,15698],[63.8,15782],[65.7,15865],[66.7,15948],[68.2,16032],[69.6,16115],[70.5,16199],[71.5,16281],[72.4,16364],[73.1,16447],[73.6,16531],[74.2,16616],[74.6,16698],[75.3,16781],[76.2,16865],[76.5,16947],[76.5,17031],[77.4,17114],[78.6,17199],[79.4,17282],[80.2,17364],[80.3,17447],[80.3,17530],[80.3,17614],[80.3,17698],[80.3,17780],[80.3,17864],[80.3,17948],[80.3,18031],[80.3,18114],[80.3,18197],[80.3,18281],[80.3,18364],[80.3,18447],[80.3,18530],[80.3,18615],[80.3,18697],[80.3,18781],[80.3,18864],[80.3,18947],[80.3,19031],[80.3,19114],[80.3,19197],[80.3,19280],[80.3,19364],[80.3,19453],[80.3,19531],[81.9,19615],[85,19698],[87.2,19781],[87.6,19863],[87.6,19947],[87.6,20031],[87.6,20114],[87.6,20197],[87.6,20280],[87.6,20364]]",1,0,930.9628,934.212,63.46998536,2.2798,"[{""rating"":63.46998535871157,""responseTime"":2.2797999999997955}]",space,2.7021,,934.2122,Definitely yes,100,934.2235,,,[],,0,13,13,13,1,audio/Narrative8Situation4.wav,audio/Narrative7Situation4.wav,audio/Narrative6Situation4.wav,audio/Narrative5Situation4.wav,3,3,2,1,,,,,,,,,,,,,,,,,,,,,,,,,,,,,,,,,,,,,,,
,,,,,,63d141f0a7b0e7ea9526e89d,2024-05-13_11h50.21.532,group3.1-3.2-social-tom,2023.2.2,Win32,57.80346821,65c5074098b851296ff0b7ed,664235387894182f22ce78b6,,,,,,,,,,,,,,,,,,,,,,,,,,,,,934.2243,2,audio/Narrative5Situation5.wav,939.2283,,939.2285,954.6609,"[[63.2,1450],[56.6,1533],[52.5,1617],[49.4,1701],[48.1,1783],[48,1866],[48,1949],[48,2032],[48,2116],[48,2200],[48,2282],[48,2366],[48,2449],[48,2532],[48,2616],[48,2699],[48,2782],[48,2866],[48,2950],[48,3032],[48,3116],[48,3199],[48,3282],[48,3366],[48,3449],[48,3532],[48,3616],[48,3699],[48,3782],[48,3866],[48,3949],[48,4032],[48,4116],[48,4199],[48,4282],[48,4366],[48,4449],[48,4532],[48,4615],[48,4699],[45.6,4783],[43.4,4866],[38,4950],[30.4,5034],[26.9,5117],[25,5200],[23.8,5283],[22.8,5366],[21.6,5450],[20.6,5533],[19,5616],[17.3,5701],[15.6,5783],[13,5867],[10.6,5950],[9.3,6033],[9.2,6116],[9.2,6199],[9.2,6282],[9.2,6366],[9.2,6449],[9.2,6532],[9.2,6615],[9.2,6699],[9.2,6782],[9.2,6865],[9.2,6949],[9.2,7032],[9.2,7116],[9.2,7200],[9.2,7282],[9.2,7366],[9.2,7449],[9.2,7532],[9.2,7616],[9.2,7699],[9.2,7782],[9.2,7865],[9.2,7949],[9.2,8032],[9.2,8116],[9.2,8199],[9.2,8282],[9.2,8366],[9.2,8449],[9.2,8533],[9.2,8615],[9.2,8699],[9.2,8782],[9.2,8866],[9.2,8949],[9.2,9032],[9.2,9116],[9.2,9199],[9.2,9282],[9.2,9366],[9.2,9449],[9.2,9532],[9.2,9616],[9.2,9699],[9.2,9782],[9.2,9865],[9.2,9949],[9.2,10032],[9.2,10116],[9.2,10199],[9.2,10282],[9.2,10366],[9.2,10449],[9.2,10532],[9.2,10616],[9.2,10699],[9.2,10782],[9.2,10865],[9.2,10949],[9.2,11032],[9.2,11115],[9.2,11199],[9.2,11282],[9.2,11365],[9.2,11449],[9.2,11532],[9.2,11615],[9.2,11699],[9.2,11782],[9.2,11865],[9.2,11949],[9.2,12032],[9.3,12116],[10.3,12216],[10.6,12299],[10.9,12382],[11.3,12466],[11.6,12549],[12.1,12632],[12.8,12716],[13.5,12799],[14.3,12883],[15.6,12966],[16.2,13049],[16.6,13132],[18.5,13216],[20.4,13299],[21,13382],[21.4,13466],[22.3,13550],[23.1,13632],[24.1,13716],[24.7,13799],[24.7,13882],[24.7,13966],[24.7,14049],[24.7,14132],[24.7,14216],[24.7,14299],[24.7,14382],[24.7,14465],[24.7,14549],[24.7,14632],[24.7,14715],[24.7,14799],[24.7,14882],[24.7,14965],[24.7,15049],[24.7,15132],[24.7,15215],[24.7,15299],[24.7,15382]]",1,0,954.6613,958.8444,1.537335286,3.0406,"[{""rating"":13.396778916544655,""responseTime"":1.5975000000000819},{""rating"":1.5373352855051259,""responseTime"":3.0405999999996993}]",space,3.6426,,958.8444,Not at all,0,958.8567,,,[],,0,14,14,14,1,audio/Narrative8Situation5.wav,audio/Narrative7Situation5.wav,audio/Narrative6Situation5.wav,audio/Narrative5Situation5.wav,2,5,2,5,,,,,,,,,,,,,,,,,,,,,,,,,,,,,,,,,,,,,,,
,,,,,,63d141f0a7b0e7ea9526e89d,2024-05-13_11h50.21.532,group3.1-3.2-social-tom,2023.2.2,Win32,57.80346821,65c5074098b851296ff0b7ed,664235387894182f22ce78b6,,,,,,,,,,,,,,,,,,,,,,,,,,,,,958.8577,2,audio/Narrative5Situation6.wav,958.867,space,958.8671,964.5442,"[[3.3,2177],[14.3,2260],[21.2,2343],[26,2433],[31.1,2512],[36.1,2594],[41.5,2677],[47.4,2761],[52.9,2844],[53.5,2927],[53.5,3010],[53.5,3093],[53.5,3177],[53.5,3260],[61.9,3344],[65.7,3427],[67.7,3510],[68.9,3594],[70.2,3677],[71.1,3760],[72,3844],[72.4,3927],[72.8,4010],[73.3,4094],[73.3,4177],[73.3,4260],[73.3,4343],[73.3,4426],[73.3,4510],[73.3,4593],[73.3,4677],[73.3,4760],[73.3,4843],[73.3,4926],[73.3,5010],[73.3,5093],[73.3,5176],[73.3,5259],[73.3,5343],[73.3,5426],[73.3,5509],[73.3,5593],[73.3,5676]]",1,0,964.5445,969.1605,82.65007321,3.8568,"[{""rating"":82.65007320644216,""responseTime"":3.8567999999997937}]",space,4.0765,,969.1608,Definitely yes,100,969.171,,,[],,0,15,15,15,1,audio/Narrative8Situation6.wav,audio/Narrative7Situation6.wav,audio/Narrative6Situation6.wav,audio/Narrative5Situation6.wav,2,3,2,3,0.0021,,,,,,,,,,,,,,,,,,,,,,,,,,,,,,,,,,,,,,
,,,,,,63d141f0a7b0e7ea9526e89d,2024-05-13_11h50.21.532,group3.1-3.2-social-tom,2023.2.2,Win32,57.80346821,65c5074098b851296ff0b7ed,664235387894182f22ce78b6,,,,,,,,,,,,,,,,,,,,,,,,,,,,,969.1717,2,audio/Narrative5Situation7.wav,973.1767,,973.1769,994.226,"[[76.5,3367],[65.2,3450],[57.9,3533],[49,3616],[34.9,3699],[28.9,3782],[26.9,3866],[26.3,3949],[26.3,4032],[26.3,4116],[26.3,4199],[26.3,4282],[26.3,4366],[26.3,4449],[26.3,4532],[26.3,4616],[26.3,4699],[26.3,4782],[26.3,4866],[26.3,4949],[26.3,5032],[26.3,5116],[26.3,5200],[26.3,5282],[26.3,5366],[26.3,5449],[26.3,5532],[26.3,5615],[26.3,5699],[26.3,5782],[26.3,5866],[26.3,5949],[26.3,6032],[26.3,6115],[26.3,6199],[26.3,6282],[26.3,6366],[26.3,6449],[26.3,6532],[26.3,6616],[26.3,6699],[26.3,6782],[26.3,6865],[26.3,6949],[26.3,7032],[26.3,7115],[26.3,7199],[26.3,7282],[26.3,7366],[26.3,7449],[26.3,7532],[26.3,7616],[26.3,7699],[26.3,7782],[26.3,7865],[26.3,7949],[26.3,8032],[26.3,8116],[26.3,8199],[26.3,8283],[26.3,8365],[26.3,8449],[26.3,8558],[26.3,8632],[26.7,8717],[31.6,8800],[33.7,8883],[36.2,8966],[37.6,9049],[37.7,9132],[37.7,9216],[37.7,9299],[37.7,9383],[37.7,9465],[37.7,9549],[37.7,9632],[37.7,9716],[37.7,9799],[37.7,9882],[37.7,9965],[37.7,10049],[37.7,10132],[37.7,10215],[37.7,10298],[37.7,10382],[37.7,10465],[37.7,10549],[37.7,10632],[37.7,10715],[37.7,10799],[37.7,10882],[37.7,10965],[37.7,11049],[37.7,11132],[37.7,11215],[37.7,11299],[37.7,11382],[37.7,11466],[37.7,11549],[37.7,11632],[37.7,11715],[37.7,11798],[37.7,11882],[37.7,11965],[37.7,12049],[37.7,12132],[37.7,12215],[37.7,12299],[37.7,12382],[37.7,12465],[37.7,12549],[37.7,12632],[37.7,12716],[37.7,12799],[37.7,12882],[37.7,12965],[37.7,13048],[37.7,13132],[37.7,13215],[37.7,13298],[37.7,13382],[37.7,13465],[37.7,13548],[37.7,13632],[37.7,13715],[37.7,13799],[37.7,13882],[37.7,13965],[37.7,14049],[37.7,14132],[37.7,14215],[37.7,14299],[37.7,14382],[37.7,14465],[37.7,14549],[37.7,14632],[37.7,14715],[37.7,14799],[37.7,14882],[37.7,14965],[37.7,15048],[37.7,15132],[37.7,15215],[37.7,15299],[37.7,15382],[37.7,15465],[37.7,15549],[37.7,15632],[37.7,15715],[37.7,15799],[37.7,15882],[37.7,15965],[37.7,16049],[37.7,16132],[37.7,16215],[37.7,16298],[37.7,16382],[37.7,16465],[37.7,16549],[32.9,16649],[30.8,16732],[30.4,16815],[30.4,16898],[30.2,16982],[29.4,17066],[27.7,17149],[25.5,17233],[23.9,17318],[23.5,17398],[22.8,17483],[21.9,17566],[21.4,17649],[20.6,17733],[20.4,17815],[20.3,17898],[20.3,17981],[20.3,18065],[20.3,18148],[20.3,18232],[20.3,18315],[20.3,18398],[20.3,18482],[20.3,18565],[20.3,18649],[20.3,18732],[20.3,18815],[20.3,18898],[20.3,18982],[20.3,19065],[20.3,19149],[20.3,19232],[20.3,19315],[20.3,19398],[20.3,19482],[20.3,19565],[20.3,19648],[20.3,19732],[20.3,19815],[20.3,19898],[20.3,19982],[20.3,20065],[20.3,20148],[20.3,20232],[20.3,20315],[20.3,20398],[20.3,20482],[20.3,20565],[20.3,20648],[20.3,20731],[20.3,20815],[20.3,20898],[20.3,20982]]",1,0,994.2264,999.2593,9.004392387,4.0757,"[{""rating"":6.076134699853586,""responseTime"":2.625299999999811},{""rating"":9.004392386530014,""responseTime"":4.075700000000211}]",space,4.4867,,999.2595,Partially,50,999.2702,,,[],,0,16,16,16,1,audio/Narrative8Situation7.wav,audio/Narrative7Situation7.wav,audio/Narrative6Situation7.wav,audio/Narrative5Situation7.wav,3,5,5,4,,,,,,,,,,,,,,,,,,,,,,,,,,,,,,,,,,,,,,,
,,,,,,63d141f0a7b0e7ea9526e89d,2024-05-13_11h50.21.532,group3.1-3.2-social-tom,2023.2.2,Win32,57.80346821,65c5074098b851296ff0b7ed,664235387894182f22ce78b6,,,,,,,,,,,,,,,,,,,,,,,,,,,,,999.2711,2,audio/Narrative5Situation8.wav,1002.2754,,1002.2755,1011.1098,"[[11.1,2783],[13.3,2867],[16,2950],[18.4,3034],[18.8,3116],[18.8,3199],[19.4,3283],[20.4,3366],[21.2,3450],[21.3,3533],[21.3,3615],[21.3,3699],[21.3,3782],[21.3,3866],[21.3,3950],[21.3,4033],[21.3,4115],[21.3,4199],[21.3,4283],[21.3,4365],[21.3,4449],[21.3,4532],[21.3,4615],[21.3,4699],[21.3,4782],[21.3,4866],[21.3,4949],[21.3,5032],[21.3,5116],[21.3,5199],[21.3,5282],[21.3,5365],[21.3,5449],[21.3,5532],[21.3,5616],[21.3,5699],[21.3,5782],[21.3,5866],[21.3,5949],[21.3,6032],[21.3,6115],[21.3,6199],[21.3,6282],[21.3,6365],[21.3,6449],[21.3,6533],[21.3,6615],[21.3,6699],[21.3,6782],[21.3,6865],[21.3,6949],[21.3,7032],[21.3,7115],[21.3,7199],[21.3,7282],[21.3,7366],[21.3,7449],[21.3,7533],[21.3,7615],[21.3,7700],[21.3,7782],[21.3,7866],[19.4,7966],[18.5,8049],[17.9,8133],[17.6,8215],[17.2,8299],[16.6,8383],[16.3,8465],[15.7,8550],[14.7,8633],[13,8716],[11.6,8800]]",1,0,1011.1106,1015.0081,0.805270864,3.3434,"[{""rating"":4.172767203513911,""responseTime"":1.3632000000002336},{""rating"":0.8052708638360162,""responseTime"":3.343400000000429}]",space,3.3623,,1015.0082,Definitely yes,100,1015.0202,,,[],,0,17,17,17,1,audio/Narrative8Situation8.wav,audio/Narrative7Situation8.wav,audio/Narrative6Situation8.wav,audio/Narrative5Situation8.wav,3,2,5,3,,,,,,,,,,,,,,,,,,,,,,,,,,,,,,,,,,,,,,,
,,,,,,63d141f0a7b0e7ea9526e89d,2024-05-13_11h50.21.532,group3.1-3.2-social-tom,2023.2.2,Win32,57.80346821,65c5074098b851296ff0b7ed,664235387894182f22ce78b6,,,,,,,,,,,,,,,,,,,,,,,,,,,,,1015.0207,2,audio/Narrative5Situation9.wav,1018.0247,,1018.0248,1057.5733,"[[5.2,2200],[7,2283],[9.3,2366],[11.2,2450],[15,2534],[19.5,2616],[21.2,2699],[21.2,2782],[21.2,2865],[21.2,2949],[21.2,3033],[21.2,3115],[21.2,3199],[21.2,3282],[21.2,3366],[21.2,3449],[21.2,3533],[21.2,3615],[21.2,3699],[21.2,3783],[21.2,3866],[21.2,3949],[21.2,4033],[21.2,4115],[21.2,4199],[21.2,4283],[21.2,4365],[21.2,4449],[21.2,4532],[21.2,4615],[21.2,4699],[21.2,4782],[21.2,4865],[21.2,4949],[21.2,5032],[21.2,5115],[21.2,5199],[21.2,5282],[21.2,5365],[21.2,5449],[21.2,5532],[21.4,5616],[22.5,5700],[23.1,5782],[23.4,5866],[23.8,5949],[24.4,6033],[25.1,6117],[26.6,6200],[27.9,6283],[29.4,6365],[30.7,6449],[31.6,6533],[32.9,6616],[34,6700],[34.9,6783],[36.1,6865],[36.7,6949],[37.1,7033],[37.1,7115],[37.1,7199],[37.1,7282],[37.1,7365],[37.1,7449],[37.1,7532],[37.1,7615],[37.1,7699],[37.1,7782],[37.1,7865],[37.1,7949],[37.1,8032],[37.1,8115],[37.1,8199],[37.1,8282],[37.1,8365],[37.1,8449],[37.1,8532],[37.1,8615],[37.1,8699],[37.1,8782],[37.1,8865],[37.1,8953],[37.1,9032],[37.1,9115],[37.1,9200],[37.1,9282],[37.1,9365],[37.1,9449],[37.1,9532],[37.1,9615],[37.1,9698],[37.1,9782],[37.1,9865],[37.1,9949],[37.1,10032],[37.1,10115],[37.1,10199],[43.9,10301],[47.5,10383],[48.7,10467],[49.1,10549],[49.1,10632],[49.4,10717],[49.6,10799],[49.6,10882],[49.6,10965],[49.6,11049],[49.6,11132],[49.6,11215],[49.6,11298],[49.6,11382],[49.6,11465],[49.6,11549],[49.6,11632],[49.6,11715],[49.6,11798],[49.6,11882],[49.6,11965],[49.6,12048],[49.6,12132],[49.6,12215],[49.6,12298],[49.6,12382],[49.6,12465],[49.6,12549],[49.6,12632],[49.6,12715],[49.6,12799],[49.6,12882],[49.6,12965],[49.6,13049],[49.6,13132],[49.6,13219],[49.6,13299],[49.6,13382],[49.6,13465],[49.6,13548],[49.6,13632],[49.6,13715],[49.6,13799],[49.6,13882],[49.6,13965],[51.9,14078],[54.1,14149],[56.9,14233],[59.1,14316],[60.2,14400],[61.4,14483],[62.3,14566],[63.2,14649],[63.8,14732],[64.5,14816],[64.9,14899],[65.2,14982],[65.2,15065],[65.2,15148],[65.2,15232],[65.2,15315],[65.2,15398],[65.2,15482],[65.2,15565],[65.2,15649],[65.2,15732],[65.2,15815],[65.2,15899],[65.2,15982],[65.2,16065],[65.2,16148],[65.2,16232],[65.2,16316],[67.1,16399],[68.3,16483],[69.2,16565],[69.6,16649],[70.6,16732],[71.8,16815],[72.3,16899],[72.3,16982],[72.3,17065],[72.3,17149],[72.3,17232],[72.3,17315],[72.3,17399],[72.3,17482],[72.3,17565],[72.3,17648],[72.3,17732],[72.3,17815],[72.3,17899],[72.3,17982],[72.3,18065],[72.3,18149],[72.3,18232],[72.3,18315],[72.3,18399],[72.3,18482],[72.3,18565],[72.3,18649],[72.3,18732],[72.3,18815],[72.3,18899],[72.3,18982],[72.3,19065],[72.3,19148],[72.3,19232],[72.3,19315],[72.3,19399],[72.3,19482],[72.3,19565],[72.3,19648],[72.3,19731],[72.3,19815],[72.3,19898],[72.3,19981],[72.3,20065],[72.3,20148],[72.3,20231],[69.5,20321],[67.9,20405],[67,20488],[66.4,20571],[65.8,20649],[65.1,20738],[64.1,20822],[62.6,20905],[61.4,20988],[60.5,21071],[60,21156],[59.2,21232],[58.8,21321],[58.3,21403],[57.5,21489],[57.2,21570],[56.6,21655],[55.6,21738],[54.4,21823],[53.5,21905],[52.8,21987],[52,22071],[48.7,23989],[49.7,24072],[50.6,24156],[50.7,24232],[50,24323],[49.6,24404],[49.6,24485],[49.6,24569],[49.6,24653],[49.6,24736],[49.6,24820],[49.6,24898],[49.6,24987],[49.6,25071],[49.6,25153],[49.6,25232],[49.6,25320],[49.6,25404],[49.6,25486],[49.6,25571],[49.6,25648],[49.6,25732],[49.6,25820],[49.6,25904],[49.6,25986],[49.6,26065],[49.6,26153],[49.6,26236],[49.6,26319],[49.6,26399],[49.6,26488],[49.6,26565],[49.6,26648],[49.6,26732],[49.6,26820],[49.6,26898],[49.6,26982],[49.6,27070],[49.6,27154],[49.6,27236],[49.6,27320],[49.6,27403],[49.6,27482],[49.6,27570],[49.6,27653],[49.6,27737],[49.6,27818],[49.6,27903],[49.6,27981],[49.6,28070],[49.6,28148],[49.6,28232],[49.6,28320],[49.6,28405],[49.6,28486],[49.6,28567],[49.6,28653],[49.6,28736],[49.6,28820],[49.6,28903],[49.6,28987],[49.6,29068],[49.6,29154],[49.6,29231],[49.6,29315],[49.6,29399],[49.6,29487],[52.3,29599],[55.3,29682],[59.4,29766],[62,29848],[63.8,29931],[66,30015],[68,30098],[69.8,30182],[70.5,30266],[71.2,30349],[71.4,30431],[72.3,30515],[72.8,30598],[72.8,30681],[73.1,30764],[73.7,30848],[73.9,30931],[74.2,31015],[74.3,31098],[74.3,31181],[74.3,31264],[74.3,31348],[74.3,31431],[74.3,31514],[74.3,31597],[74.3,31681],[74.3,31764],[74.3,31848],[74.3,31931],[74.5,32014],[74.5,32098],[74.5,32181],[74.5,32264],[74.5,32347],[75,32431],[76.6,32514],[78,32597],[79.9,32682],[82.9,32764],[84.4,32848],[86,32931],[87.8,33015],[88.4,33097],[89.1,33181],[90.3,33264],[91.3,33347],[92.3,33431],[92.9,33514],[93,33597],[93,33682],[93,33764],[93,33847],[93,33931],[93,34014],[93,34098],[93,34181],[93,34264],[93,34348],[93,34431],[93,34514],[93,34597],[93,34681],[93,34764],[93,34848],[93,34931],[93,35014],[92,35099],[89.7,35182],[87.3,35266],[85.6,35348],[84.1,35431],[82.8,35515],[82.4,35598],[81,35682],[79.9,35769],[79,35848],[78.7,35931],[77.8,36014],[77.4,36098],[77.2,36182],[76.5,36265],[75.9,36348],[75.5,36431],[75.2,36514],[74.5,36598],[73.9,36681],[73.7,36764],[73.7,36848],[73.7,36931],[73.7,37014],[73.7,37098],[73.7,37181],[73.7,37264],[73.7,37347],[73.7,37431],[73.7,37514],[73.7,37598],[73.7,37681],[73.7,37764],[73.7,37847],[73.7,37931],[73.7,38014],[73.7,38097],[73.7,38181],[73.7,38264],[73.7,38347],[73.7,38431],[73.7,38514],[73.7,38598],[73.7,38681],[73.7,38764],[73.7,38847],[73.7,38930],[73.7,39014],[73.7,39097],[73.7,39181],[73.7,39264],[73.7,39347],[73.7,39431],[73.7,39514]]",1,0,1057.574,1060.6396,50,1.847,"[{""rating"":50,""responseTime"":1.84699999999998}]",space,2.5199,,1060.6398,Not at all,0,1060.6505,,,[],,0,18,18,18,1,audio/Narrative8Situation9.wav,audio/Narrative7Situation9.wav,audio/Narrative6Situation9.wav,audio/Narrative5Situation9.wav,3,2,4,3,,,,,,,,,,,,,,,,,,,,,,,,,,,,,,,,,,,,,,,
,,,,,,63d141f0a7b0e7ea9526e89d,2024-05-13_11h50.21.532,group3.1-3.2-social-tom,2023.2.2,Win32,57.80346821,65c5074098b851296ff0b7ed,664235387894182f22ce78b6,,,,,,,,,,,,,,,,,,,,,,,,,,,,,,,,,,,,,,,,,,,,,,,,,,,,,,,,,,,,,,,,,,,,,,,,1060.6511,1078.0552,space,16.8824,,1078.0577,1091.3582,space,12.9662,,,,,,,,,,,,,,,,,,,,,,,,,,
