exp_question,consent.started,consent.stopped,consentResponse.keys,consentResponse.rt,consentResponse.duration,participantID,date,expName,psychopyVersion,OS,frameRate,STUDY_ID,SESSION_ID,opening1.started,opening1.stopped,keyEndingOpening1.keys,keyEndingOpening1.rt,keyEndingOpening1.duration,volumeAdjust.started,volumeAdjust.stopped,endingAdjust.keys,endingAdjust.rt,endingAdjust.duration,opening2.started,opening2.stopped,keyEndingOpening.keys,keyEndingOpening.rt,keyEndingOpening.duration,mouse.x,mouse.y,mouse.leftButton,mouse.midButton,mouse.rightButton,mouse.time,instructionLoop.thisRepN,instructionLoop.thisTrialN,instructionLoop.thisN,instructionLoop.thisIndex,instructionLoop.ran,readyForAudio.started,readyForAudio.stopped,fixation.started,run,audio_played,fixation.stopped,endPractice.keys,audioPre.started,audioPre.stopped,continuousResponses_audio,continuousSlider.response,continuousSlider.rt,intRating.started,intRating.stopped,intQuestionSlider.response,intQuestionSlider.rt,intQuestionSlider.history,confirmResponse.keys,confirmResponse.rt,confirmResponse.duration,catchQuestion.started,catch_label,catch_value,catchQuestion.stopped,catchQuestionSlider.response,catchQuestionSlider.rt,catchQuestionSlider.history,confirmResponse_2.keys,audioRunLoop.thisRepN,audioRunLoop.thisTrialN,audioRunLoop.thisN,audioRunLoop.thisIndex,audioRunLoop.ran,conditions1_1,conditions2_1,conditions1_2,conditions2_2,dur1_1,dur2_1,dur1_2,dur2_2,endPractice.rt,endPractice.duration,confirmResponse_2.rt,confirmResponse_2.duration,runIntervalBreak.started,runIntervalBreak.stopped,endingBreakKey.keys,endingBreakKey.rt,endingBreakKey.duration,connection.started,connection.stopped,connectionEnding.keys,connectionEnding.rt,connectionEnding.duration,readyForText.started,readyForText.stopped,textPre.started,run_dup,textPre.stopped,continuousResponses_text,textRunLoop.thisRepN,textRunLoop.thisTrialN,textRunLoop.thisN,textRunLoop.thisIndex,textRunLoop.ran,text1_1,text1_2,text2_1,text2_2,runBreakText.started,runBreakText.stopped,endingBreakKey_2.keys,endingBreakKey_2.rt,endingBreakKey_2.duration,ending.started,ending.stopped,endingEnding.keys,endingEnding.rt,endingEnding.duration
social,0.0006,16.5097,y,16.197,,63d80cb1ba40ad04c1edd4db,2024-02-08_09h51.49.638,group3.1-3.2-social-tom,2023.2.2,MacIntel,61.34969325,65c5074098b851296ff0b7ed,65c5142216d9865a4e004953,,,,,,,,,,,,,,,,,,,,,,,,,,,,,,,,,,,,,,,,,,,,,,,,,,,,,,,,,,,,,,,,,,,,,,,,,,,,,,,,,,,,,,,,,,,,,,,,,,,,,,,,,,
,,,,,,63d80cb1ba40ad04c1edd4db,2024-02-08_09h51.49.638,group3.1-3.2-social-tom,2023.2.2,MacIntel,61.34969325,65c5074098b851296ff0b7ed,65c5142216d9865a4e004953,16.51,23.7542,space,7.2193,,,,,,,,,,,,,,,,,,,,,,,,,,,,,,,,,,,,,,,,,,,,,,,,,,,,,,,,,,,,,,,,,,,,,,,,,,,,,,,,,,,,,,,,,,,,,,,,,,,,,,
,,,,,,63d80cb1ba40ad04c1edd4db,2024-02-08_09h51.49.638,group3.1-3.2-social-tom,2023.2.2,MacIntel,61.34969325,65c5074098b851296ff0b7ed,65c5142216d9865a4e004953,,,,,,23.7544,40.5773,space,16.5074,,,,,,,,,,,,,,,,,,,,,,,,,,,,,,,,,,,,,,,,,,,,,,,,,,,,,,,,,,,,,,,,,,,,,,,,,,,,,,,,,,,,,,,,,,,,,,,,,
,,,,,,63d80cb1ba40ad04c1edd4db,2024-02-08_09h51.49.638,group3.1-3.2-social-tom,2023.2.2,MacIntel,61.34969325,65c5074098b851296ff0b7ed,65c5142216d9865a4e004953,,,,,,,,,,,40.5828,53.8349,space,13.2323,,[],[],[],[],[],[],0,0,0,0,1,,,,,,,,,,,,,,,,,,,,,,,,,,,,,,,,,,,,,,,,,,,,,,,,,,,,,,,,,,,,,,,,,,,,,,,,,,,,,,,,
,,,,,,63d80cb1ba40ad04c1edd4db,2024-02-08_09h51.49.638,group3.1-3.2-social-tom,2023.2.2,MacIntel,61.34969325,65c5074098b851296ff0b7ed,65c5142216d9865a4e004953,,,,,,,,,,,53.8471,99.8535,space,45.9224,,[],[],[],[],[],[],1,0,1,0,1,,,,,,,,,,,,,,,,,,,,,,,,,,,,,,,,,,,,,,,,,,,,,,,,,,,,,,,,,,,,,,,,,,,,,,,,,,,,,,,,
,,,,,,63d80cb1ba40ad04c1edd4db,2024-02-08_09h51.49.638,group3.1-3.2-social-tom,2023.2.2,MacIntel,61.34969325,65c5074098b851296ff0b7ed,65c5142216d9865a4e004953,,,,,,,,,,,99.8651,122.5558,space,22.6547,,[],[],[],[],[],[],2,0,2,0,1,,,,,,,,,,,,,,,,,,,,,,,,,,,,,,,,,,,,,,,,,,,,,,,,,,,,,,,,,,,,,,,,,,,,,,,,,,,,,,,,
,,,,,,63d80cb1ba40ad04c1edd4db,2024-02-08_09h51.49.638,group3.1-3.2-social-tom,2023.2.2,MacIntel,61.34969325,65c5074098b851296ff0b7ed,65c5142216d9865a4e004953,,,,,,,,,,,122.5717,153.4847,space,30.892,,[],[],[],[],[],[],3,0,3,0,1,,,,,,,,,,,,,,,,,,,,,,,,,,,,,,,,,,,,,,,,,,,,,,,,,,,,,,,,,,,,,,,,,,,,,,,,,,,,,,,,
,,,,,,63d80cb1ba40ad04c1edd4db,2024-02-08_09h51.49.638,group3.1-3.2-social-tom,2023.2.2,MacIntel,61.34969325,65c5074098b851296ff0b7ed,65c5142216d9865a4e004953,,,,,,,,,,,153.4981,172.0223,space,18.5046,,[],[],[],[],[],[],4,0,4,0,1,,,,,,,,,,,,,,,,,,,,,,,,,,,,,,,,,,,,,,,,,,,,,,,,,,,,,,,,,,,,,,,,,,,,,,,,,,,,,,,,
,,,,,,63d80cb1ba40ad04c1edd4db,2024-02-08_09h51.49.638,group3.1-3.2-social-tom,2023.2.2,MacIntel,61.34969325,65c5074098b851296ff0b7ed,65c5142216d9865a4e004953,,,,,,,,,,,,,,,,,,,,,,,,,,,172.038,174.6218,174.6508,1,audio/Narrative13Situation2.wav,176.6543,,176.6547,206.435,"[[999,2],[999,98],[999,181],[999,265],[999,349],[999,431],[999,514],[999,598],[999,681],[999,764],[999,847],[999,930],[999,1013],[999,1098],[999,1180],[999,1265],[999,1346],[34.9,1430],[36.3,1513],[36.7,1596],[37.2,1680],[37.2,1763],[37.2,1847],[37.2,1930],[37.2,2013],[37.2,2097],[37.2,2180],[37.2,2263],[37.2,2347],[37.2,2429],[37.2,2513],[37.2,2595],[37.2,2679],[37.2,2763],[37.2,2846],[37.2,2929],[37.2,3013],[37.2,3095],[37.2,3180],[37.2,3262],[37.2,3345],[37.2,3429],[37.2,3512],[37.2,3596],[37.2,3678],[37.2,3761],[35.7,3846],[19.9,3928],[11.2,4011],[10.1,4095],[9.9,4179],[8.8,4262],[6.9,4344],[6.8,4428],[6.8,4511],[6.8,4594],[7.1,4678],[7.2,4762],[7.2,4845],[7.2,4927],[7.2,5012],[7.2,5095],[7.2,5177],[7.2,5261],[7.2,5344],[7.2,5428],[7.2,5511],[7.2,5593],[7.2,5678],[7.2,5761],[7.2,5844],[7.2,5927],[7.2,6010],[7.2,6094],[7.2,6177],[7.2,6260],[7.2,6344],[7.2,6427],[7.2,6510],[7.2,6593],[7.2,6676],[7.2,6760],[7.2,6844],[7.2,6927],[7.2,7009],[7.2,7093],[7.2,7177],[7.2,7260],[7.2,7342],[7.2,7426],[7.2,7510],[7.2,7593],[7.2,7676],[7.2,7759],[7.2,7842],[7.2,7926],[7.2,8009],[7.2,8092],[7.2,8176],[7.2,8260],[7.2,8343],[7.2,8426],[7.2,8509],[7.2,8592],[7.2,8676],[7.2,8759],[7.2,8841],[7.7,8927],[11,9008],[13.1,9091],[14.6,9174],[16.4,9258],[18.9,9342],[22.1,9425],[22.1,9509],[22.1,9590],[22.1,9675],[22.1,9757],[23.8,9841],[27.8,9925],[31.6,10007],[32.4,10091],[32.4,10175],[32.4,10257],[32.4,10340],[32.4,10424],[32.4,10507],[32.4,10591],[32.7,10673],[33.1,10757],[33.8,10841],[34.2,10923],[35.2,11008],[38.2,11090],[40.6,11174],[42.1,11257],[43.2,11340],[43.2,11423],[43.2,11506],[43.2,11590],[44.1,11673],[46.5,11756],[49,11840],[52.8,11924],[56,12006],[57.9,12090],[57.9,12172],[57.9,12257],[57.9,12339],[57.9,12422],[58.2,12507],[61.1,12589],[64,12673],[67.2,12756],[68.7,12838],[68.7,12922],[68.7,13005],[68.7,13090],[70.9,13173],[74.6,13256],[77,13338],[79.5,13423],[80,13505],[80,13589],[80,13671],[80,13756],[81.8,13839],[84,13922],[85.5,14006],[86.1,14088],[86.8,14172],[87.3,14256],[87.6,14338],[87.9,14421],[88,14505],[88,14588],[88,14672],[88,14754],[88,14837],[88,14922],[88,15004],[88,15088],[88,15172],[88,15255],[88,15337],[88,15420],[88,15504],[88,15587],[88,15671],[88,15754],[88,15837],[88,15920],[88,16004],[88,16087],[88,16171],[88,16253],[88,16337],[88,16420],[88,16503],[88,16586],[88,16670],[88,16754],[88,16837],[88,16920],[88,17003],[88,17086],[88,17170],[88,17252],[88,17337],[88,17420],[88,17503],[88,17586],[88,17670],[88,17752],[88,17836],[88,17920],[88,18003],[88,18086],[44,18918],[34.7,19001],[27.1,19084],[24,19169],[21,19251],[18.5,19334],[17.8,19418],[17.8,19501],[17.8,19585],[17.8,19667],[14.9,19751],[12.2,19835],[10.7,19918],[9.9,20002],[9.8,20085],[9.8,20167],[9.8,20251],[9.8,20334],[9.8,20417],[9.8,20501],[9.8,20584],[9.8,20668],[9.8,20750],[9.8,20833],[9.8,20918],[9.8,21000],[9.8,21084],[9.8,21167],[9.8,21250],[9.8,21333],[9.8,21417],[9.8,21500],[9.8,21583],[9.8,21666],[9.8,21750],[9.8,21834],[9.8,21917],[9.8,21999],[9.8,22083],[9.8,22167],[9.8,22249],[9.8,22332],[9.8,22416],[9.8,22499],[9.8,22583],[9.8,22666],[9.8,22750],[9.8,22833],[9.8,22915],[9.8,22999],[9.8,23082],[11.4,23166],[18,23249],[33.6,23333],[40.7,23415],[41.1,23498],[41.1,23583],[41.1,23665],[46.6,23748],[48.9,23832],[49.3,23915],[49.3,23998],[49.3,24081],[49.3,24165],[50,24248],[50.3,24332],[50.3,24414],[50.3,24499],[50.3,24582],[50.3,24665],[50.3,24748],[50.3,24831],[50.3,24915],[50.3,24999],[50.3,25082],[50.3,25164],[50.3,25247],[50.3,25331],[50.3,25415],[50.3,25497],[50.3,25580],[50.3,25664],[50.3,25747],[50.3,25831],[50.3,25913],[50.3,25997],[50.3,26081],[50.3,26163],[50.3,26247],[50.3,26330],[50.3,26413],[50.7,26496],[50.9,26579],[51,26663],[51.1,26746],[51.1,26830],[51.1,26913],[51.2,26996],[51.4,27080],[51.6,27163],[51.6,27247],[51.6,27329],[51.6,27413],[51.6,27497],[51.6,27580],[51.6,27663],[51.6,27745],[51.6,27829],[51.6,27913],[51.6,27996],[51.6,28079],[51.6,28162],[51.6,28246],[51.6,28329],[51.6,28412],[51.6,28496],[51.6,28578],[51.6,28663],[51.6,28746],[51.6,28828],[51.6,28913],[51.6,28996],[51.6,29079],[51.6,29163],[51.6,29245],[51.6,29329],[51.6,29412],[51.6,29495],[51.6,29579],[51.6,29667],[51.6,29745]]",1,0,206.4355,224.1068,99.66484918,14.111,"[{""rating"":99.66484917534721,""responseTime"":14.11099999999999}]",space,17.1247,,224.1072,Definitely yes,100,224.1124,,,[],,0,0,0,0,1,audio/Narrative13Situation2.wav,audio/Narrative13Situation2.wav,audio/Narrative13Situation2.wav,audio/Narrative13Situation2.wav,2,2,2,2,,,,,,,,,,,,,,,,,,,,,,,,,,,,,,,,,,,,,,,
,,,,,,63d80cb1ba40ad04c1edd4db,2024-02-08_09h51.49.638,group3.1-3.2-social-tom,2023.2.2,MacIntel,61.34969325,65c5074098b851296ff0b7ed,65c5142216d9865a4e004953,,,,,,,,,,,,,,,,,,,,,,,,,,,,,224.1129,1,audio/Narrative7Situation1.wav,227.4368,space,227.4368,283.3334,"[[999,15],[999,82],[999,166],[999,248],[999,331],[999,416],[999,499],[999,582],[999,665],[999,749],[999,831],[999,915],[999,999],[999,1081],[999,1165],[999,1249],[999,1331],[999,1414],[999,1497],[999,1580],[999,1664],[999,1747],[25.7,1830],[9.8,1914],[6.4,1998],[5.1,2080],[4.7,2164],[4.6,2247],[4.5,2330],[4.1,2414],[3.8,2497],[3.4,2580],[3.2,2663],[3.3,2747],[3.3,2830],[3.3,2914],[3.3,2997],[3.3,3080],[3.3,3163],[3.3,3247],[3.3,3330],[3.3,3412],[3.3,3497],[3.3,3580],[3.3,3663],[3.3,3746],[3.3,3830],[3.3,3912],[3.3,3997],[3.3,4079],[3.3,4162],[3.3,4245],[3.3,4329],[3.3,4412],[3.3,4496],[3.3,4580],[3.3,4662],[3.3,4745],[3.3,4828],[3.3,4913],[3.2,4995],[3.2,5079],[3.2,5163],[3.1,5245],[2.9,5329],[2.2,5411],[1.7,5494],[1.5,5579],[1.5,5662],[1.5,5745],[1.5,5828],[1.5,5912],[1.5,5994],[1.5,6078],[1.5,6161],[1.5,6244],[1.5,6327],[1.5,6412],[1.5,6494],[1.5,6578],[1.5,6661],[1.5,6745],[1.5,6828],[1.5,6910],[1.5,6995],[1.5,7077],[1.5,7161],[1.5,7244],[1.5,7327],[1.5,7410],[1.5,7493],[1.5,7577],[1.5,7660],[1.5,7744],[1.5,7827],[1.5,7911],[1.5,7994],[1.5,8077],[1.5,8159],[1.5,8243],[1.5,8327],[2,8409],[2.1,8492],[2.1,8576],[2.1,8659],[2.7,8742],[3,8825],[3,8909],[3,8993],[3,9075],[3,9159],[3,9242],[3,9326],[3,9409],[3.5,9492],[8.9,9576],[26.9,9658],[40.6,9741],[41.3,9826],[41.3,9909],[41.3,9992],[47.1,10075],[49.7,10158],[50.5,10241],[50.6,10326],[50.6,10408],[50.6,10492],[50.6,10575],[50.6,10659],[50.5,10742],[50.3,10825],[50.2,10908],[50.2,10991],[50,11075],[50,11157],[50,11242],[50,11325],[50,11408],[50,11491],[50,11574],[50,11658],[50,11741],[50,11825],[50,11907],[50,11991],[50,12073],[50,12157],[50,12241],[51.6,12323],[58.7,12407],[70.1,12490],[86,12574],[86.9,12657],[86.9,12741],[86.9,12824],[89.2,12907],[96,12990],[96.9,13073],[97,13157],[97.3,13239],[97.7,13323],[97.8,13406],[98.4,13490],[98.7,13573],[98.7,13657],[98.7,13740],[98.7,13822],[98.7,13906],[98.7,13990],[98.7,14072],[98.7,14155],[98.7,14240],[98.7,14323],[98.7,14406],[98.7,14489],[98.7,14577],[98.7,14656],[98.7,14739],[98.7,14822],[98.7,14906],[98.7,14988],[98.7,15073],[98.7,15156],[98.7,15238],[98.7,15322],[98.7,15406],[98.7,15489],[98.7,15571],[98.7,15655],[98.7,15739],[98.7,15822],[98.7,15904],[98.7,15987],[98.7,16072],[98.7,16155],[98.7,16237],[98.7,16320],[98.7,16404],[98.7,16489],[98.7,16570],[98.7,16654],[98.7,16737],[98.7,16821],[98.7,16905],[98.7,16988],[98.7,17070],[98.7,17155],[98.7,17236],[98.7,17320],[98.7,17404],[98.7,17487],[98.7,17571],[98.7,17654],[98.7,17737],[98.7,17821],[98.7,17903],[98.7,17987],[98.7,18071],[98.6,18153],[98.1,18236],[98,18319],[98,18403],[98,18487],[98,18569],[98,18653],[98,18736],[98,18819],[98,18903],[98,18985],[98,19070],[98,19153],[98,19235],[98,19318],[98,19403],[97.9,19486],[95.8,19568],[95.1,19652],[76.4,19735],[53.1,19819],[51,19901],[51,19985],[51,20068],[51,20151],[47.4,20235],[36.6,20318],[30.9,20401],[28.8,20484],[28.9,20568],[30.4,20651],[30.9,20735],[30.8,20818],[30.4,20902],[28.9,20985],[23.8,21067],[22.7,21151],[22.7,21235],[22.7,21317],[22.5,21400],[20.2,21485],[19.1,21567],[18.4,21651],[18.3,21734],[18.3,21817],[18.3,21901],[18.3,21984],[18.3,22067],[18.3,22150],[18.3,22233],[18.3,22318],[18.3,22400],[18.3,22483],[18.3,22566],[18.3,22650],[18.3,22734],[18.3,22817],[18.3,22900],[18.3,22983],[18.3,23066],[18.3,23150],[18.3,23233],[18.4,23316],[18.6,23400],[19.8,23483],[24.3,23566],[30.3,23650],[33.5,23733],[34.3,23816],[34.3,23899],[34.3,23982],[34.5,24065],[35.3,24149],[36.5,24233],[36.8,24315],[37.1,24398],[37.3,24482],[37.4,24565],[37.4,24648],[37.4,24733],[37.4,24816],[37.4,24899],[37.4,24983],[37.4,25065],[37.4,25150],[37.4,25231],[37.4,25315],[37.4,25399],[37.4,25482],[37.4,25566],[37.4,25648],[37.4,25732],[37.4,25815],[37.4,25898],[37.4,25982],[37.4,26064],[37.4,26148],[37.4,26230],[37.4,26315],[37.4,26398],[37.4,26480],[37.4,26565],[37.4,26647],[37.4,26731],[37.4,26813],[37.4,26898],[37.4,26981],[37.4,27064],[37.4,27147],[37.4,27230],[37.4,27313],[37.4,27397],[37.4,27480],[37.4,27563],[37.4,27647],[37.4,27730],[37.4,27813],[37.4,27896],[37.4,27980],[37.4,28063],[37.4,28147],[37.4,28230],[37.4,28313],[37.4,28397],[37.4,28480],[37.4,28564],[37.4,28646],[37.4,28729],[37.4,28813],[37.4,28896],[37.4,28979],[37.4,29063],[37.4,29147],[37.4,29230],[37.4,29313],[37.4,29396],[37.4,29480],[37.4,29563],[37.4,29646],[37.4,29729],[37.4,29812],[37.4,29896],[37.4,29978],[37.4,30061],[37.4,30145],[37.4,30229],[37.4,30312],[37.4,30395],[37.4,30478],[37.4,30562],[37.4,30644],[37.4,30729],[37.4,30812],[37.4,30895],[37.4,30979],[37.4,31062],[37.4,31145],[37.4,31228],[37.4,31312],[37.4,31394],[37.4,31478],[37.4,31561],[37.4,31644],[37.4,31728],[37.4,31811],[37.4,31894],[37.4,31976],[37.4,32061],[37.4,32144],[37.4,32227],[37.4,32311],[37.4,32394],[37.4,32477],[37.4,32559],[37.4,32643],[37.4,32726],[37.4,32811],[40.8,32894],[52.8,32976],[64.3,33059],[69.8,33143],[69.8,33227],[69.8,33310],[69.8,33393],[78.5,33476],[86.5,33560],[91.9,33643],[93.1,33726],[93.1,33809],[93.1,33893],[93.1,33977],[93.1,34059],[93.3,34142],[96.4,34225],[97.4,34309],[97.6,34393],[97.6,34476],[97.6,34558],[97.6,34643],[97.6,34726],[97.6,34809],[97.6,34893],[97.6,34975],[97.6,35059],[97.6,35142],[97.6,35225],[97.6,35308],[97.6,35392],[97.6,35475],[97.6,35559],[97.6,35641],[97.6,35726],[97.6,35809],[97.6,35891],[97.6,35975],[97.6,36058],[97.6,36141],[97.6,36225],[97.6,36307],[97.6,36392],[97.6,36474],[97.6,36558],[97.6,36641],[98.2,36724],[98.8,36807],[98.9,36891],[99,36974],[99.2,37059],[99.3,37140],[99.4,37224],[99.4,37308],[99.4,37390],[99.4,37474],[99.4,37557],[99.4,37640],[99.4,37724],[99.4,37806],[99.4,37890],[99.4,37973],[99.4,38057],[99.4,38141],[99.4,38224],[99.4,38307],[99.4,38390],[99.4,38473],[99.4,38557],[99.4,38640],[99.4,38723],[99.4,38807],[99.4,38889],[99.4,38974],[99.4,39057],[99.4,39140],[99.4,39223],[99.4,39306],[99.4,39388],[99.4,39473],[99.4,39556],[99.4,39639],[99.4,39722],[99.4,39806],[99.4,39889],[99.4,39972],[99.4,40056],[99.4,40138],[99.4,40222],[99.4,40306],[99.4,40389],[99.4,40473],[99.4,40555],[99.4,40638],[99.4,40721],[99.4,40805],[99.4,40888],[99.4,40972],[99.4,41055],[99.4,41138],[99.4,41221],[99.4,41304],[99.4,41388],[99.4,41472],[99.4,41555],[99.4,41637],[99.4,41721],[99.4,41804],[99.4,41888],[99.4,41971],[99.4,42054],[99.4,42137],[99.4,42221],[99.4,42304],[99.4,42387],[99.4,42470],[99.4,42554],[99.4,42636],[99.4,42721],[99.4,42803],[99.4,42887],[99.4,42971],[99.4,43054],[99.4,43136],[99.4,43220],[99.4,43304],[99.4,43386],[99.4,43470],[99.4,43554],[99.4,43637],[99.4,43720],[99.4,43803],[99.4,43886],[99.4,43969],[99.4,44053],[99.4,44137],[99.4,44219],[99.4,44303],[99.4,44387],[99.4,44470],[99.4,44553],[99.4,44635],[99.4,44719],[99.4,44803],[99.4,44886],[99.4,44968],[99.4,45051],[99.4,45136],[99.4,45219],[99.4,45302],[99.4,45385],[99.4,45469],[99.4,45552],[99.4,45635],[99.4,45718],[99.4,45802],[99.4,45886],[99.4,45969],[99.4,46051],[99.4,46134],[99.4,46218],[99.4,46302],[99.4,46384],[99.4,46467],[99.4,46551],[99.4,46635],[99.4,46718],[99.4,46800],[99.4,46884],[99.4,46968],[99.4,47051],[99.4,47134],[99.4,47217],[99.4,47301],[99.4,47385],[99.4,47467],[99.4,47550],[99.4,47635],[99.4,47718],[99.4,47800],[99.4,47884],[99.4,47967],[99.4,48051],[99.4,48134],[99.4,48216],[99.4,48300],[99.4,48383],[99.4,48466],[99.4,48549],[99.4,48633],[99.4,48716],[99.4,48799],[99.4,48883],[99.4,48966],[99.4,49049],[99.4,49132],[99.4,49216],[99.4,49299],[99.4,49382],[99.4,49466],[99.4,49548],[99.7,49632],[100,49715],[100,49798],[100,49882],[100,49965],[100,50049],[100,50132],[100,50215],[100,50298],[100,50382],[100,50465],[100,50548],[100,50632],[100,50715],[100,50798],[100,50881],[100,50965],[100,51048],[100,51131],[100,51214],[100,51298],[100,51381],[100,51465],[100,51548],[100,51630],[100,51715],[100,51797],[100,51881],[100,51965],[100,52048],[100,52131],[100,52214],[100,52297],[100,52381],[100,52463],[100,52547],[100,52631],[100,52714],[100,52796],[100,52881],[100,52963],[100,53047],[100,53129],[100,53214],[100,53297],[100,53379],[100,53464],[100,53547],[100,53630],[100,53714],[100,53796],[100,53879],[100,53962],[100,54047],[100,54130],[100,54213],[100,54297],[100,54380],[100,54462],[100,54546],[100,54630],[100,54713],[100,54796],[100,54879],[100,54962],[100,55046],[100,55129],[100,55212],[100,55296],[100,55379],[100,55461],[100,55545],[100,55629],[100,55711],[100,55796],[100,55879]]",1,0,283.3342,290.5105,99.59621853,3.567,"[{""rating"":99.59621853298611,""responseTime"":3.5670000000000073}]",space,6.631,,290.5107,Definitely yes,100,290.5305,,,[],,0,1,1,1,1,audio/Narrative7Situation1.wav,audio/Narrative8Situation1.wav,audio/Narrative5Situation1.wav,audio/Narrative6Situation1.wav,2,5,5,2,3.2996,,,,,,,,,,,,,,,,,,,,,,,,,,,,,,,,,,,,,,
,,,,,,63d80cb1ba40ad04c1edd4db,2024-02-08_09h51.49.638,group3.1-3.2-social-tom,2023.2.2,MacIntel,61.34969325,65c5074098b851296ff0b7ed,65c5142216d9865a4e004953,,,,,,,,,,,,,,,,,,,,,,,,,,,,,290.5308,1,audio/Narrative7Situation2.wav,293.5422,,293.5423,301.0039,"[[999,17],[999,83],[999,166],[999,250],[999,332],[999,415],[999,500],[999,582],[999,666],[999,749],[999,832],[999,916],[999,998],[999,1081],[999,1166],[999,1249],[999,1331],[999,1414],[999,1498],[999,1582],[999,1665],[999,1748],[999,1831],[999,1914],[999,1998],[999,2081],[999,2164],[999,2247],[999,2330],[999,2415],[999,2497],[999,2580],[999,2664],[40.6,2748],[44.2,2830],[46.7,2914],[49.8,2997],[50.3,3080],[51.9,3164],[56.5,3246],[57.2,3330],[57.2,3413],[57.2,3497],[57.2,3579],[58.7,3663],[60.9,3747],[62.7,3830],[66.3,3913],[66.6,3997],[66.6,4079],[66.6,4163],[70.5,4247],[77.3,4330],[80.6,4413],[80.9,4496],[80.9,4579],[80.9,4663],[81,4746],[84.4,4829],[87.3,4912],[89.4,4996],[91.6,5079],[91.6,5162],[91.6,5245],[91.6,5329],[91.6,5412],[91.6,5495],[91.6,5578],[93,5662],[93.8,5745],[94.5,5829],[95.2,5912],[95.3,5996],[95.3,6079],[95.3,6162],[95.3,6245],[95.3,6329],[95.3,6413],[95.3,6496],[95.3,6578],[95.3,6661],[95.3,6745],[95.4,6828],[95.7,6912],[95.8,6995],[96.4,7078],[96.7,7162],[97.5,7244],[98.5,7327],[99,7411]]",1,0,301.0041,310.2142,99.79729546,2.5738,"[{""rating"":99.79729546440971,""responseTime"":2.5738000000119428}]",space,8.6801,,310.2143,Not at all,0,310.235,,,[],,0,2,2,2,1,audio/Narrative7Situation2.wav,audio/Narrative8Situation2.wav,audio/Narrative5Situation2.wav,audio/Narrative6Situation2.wav,3,3,3,3,,,,,,,,,,,,,,,,,,,,,,,,,,,,,,,,,,,,,,,
,,,,,,63d80cb1ba40ad04c1edd4db,2024-02-08_09h51.49.638,group3.1-3.2-social-tom,2023.2.2,MacIntel,61.34969325,65c5074098b851296ff0b7ed,65c5142216d9865a4e004953,,,,,,,,,,,,,,,,,,,,,,,,,,,,,310.2352,1,audio/Narrative7Situation3.wav,318.2431,,318.2432,327.504,"[[99.7,915],[96.8,997],[95.3,1081],[93,1164],[88.7,1247],[80.6,1331],[76.9,1414],[76.8,1497],[76.8,1581],[76.8,1663],[30.5,2330],[27.7,2414],[24.5,2497],[22,2580],[20.4,2664],[14.2,2746],[12,2830],[12,2913],[12,2997],[12,3080],[9.1,3164],[5.6,3246],[3.3,3330],[2.6,3413],[1.8,3497],[1.4,3579],[0.8,3662],[0.7,3747],[0.6,3829],[0.6,3913],[0.5,3995],[1,4080],[1.8,4162],[8.9,4246],[29.9,4328],[38.7,4412],[39.3,4496],[39.3,4579],[41.2,4663],[47.4,4745],[48.8,4829],[49.5,4912],[49.9,4996],[49.9,5079],[49.9,5161],[49.9,5245],[49.9,5328],[49.9,5412],[49.9,5495],[49.9,5578],[49.9,5661],[49.9,5745],[49.9,5828],[49.9,5911],[49.9,5995],[49.9,6078],[49.9,6162],[49.9,6245],[49.9,6328],[49.9,6411],[49.9,6494],[49.9,6577],[49.9,6660],[49.9,6744],[49.9,6827],[49.9,6911],[49.9,6994],[44.6,7077],[33.9,7160],[29.1,7244],[28.5,7327],[28.5,7410],[28.5,7494],[28.5,7576],[27.9,7661],[27.3,7744],[27,7826],[26.6,7910],[24.5,7993],[23.1,8077],[20.6,8160],[19,8244],[19,8327],[19,8410],[19,8492],[18.2,8576],[10.5,8659],[3.4,8743],[1,8826],[0.6,8909],[0.6,8993],[0.6,9076],[0.6,9159],[0.6,9243]]",1,0,327.5044,335.1319,50.09336683,3.4538,"[{""rating"":50.093366834852425,""responseTime"":3.453800000011938}]",space,7.081,,335.132,Not at all,0,335.1519,,,[],,0,3,3,3,1,audio/Narrative7Situation3.wav,audio/Narrative8Situation3.wav,audio/Narrative5Situation3.wav,audio/Narrative6Situation3.wav,8,4,3,5,,,,,,,,,,,,,,,,,,,,,,,,,,,,,,,,,,,,,,,
,,,,,,63d80cb1ba40ad04c1edd4db,2024-02-08_09h51.49.638,group3.1-3.2-social-tom,2023.2.2,MacIntel,61.34969325,65c5074098b851296ff0b7ed,65c5142216d9865a4e004953,,,,,,,,,,,,,,,,,,,,,,,,,,,,,335.1522,1,audio/Narrative7Situation4.wav,338.1632,,338.1633,349.9046,"[[999,17],[999,99],[999,183],[999,266],[999,349],[999,431],[999,515],[999,598],[999,682],[999,764],[999,848],[999,931],[999,1014],[999,1098],[999,1182],[999,1265],[28.9,1348],[27.2,1431],[27.2,1515],[27.2,1598],[25.8,1680],[13.2,1764],[7.7,1847],[6,1931],[4.7,2013],[3.7,2098],[3.2,2180],[2.8,2265],[2.6,2347],[2.3,2430],[2.2,2514],[2.2,2597],[3.6,2680],[6,2763],[6.6,2847],[7.3,2929],[7.4,3014],[7.7,3097],[8.2,3179],[8.9,3263],[9.5,3347],[13.4,3430],[24.2,3513],[27,3597],[27,3680],[27,3763],[27,3846],[27,3931],[27,4013],[22.4,4096],[15.6,4179],[14.2,4262],[13.9,4347],[13.9,4429],[13.9,4513],[13.9,4595],[13.9,4679],[13.9,4763],[13.9,4846],[13.8,4928],[13.5,5012],[13.3,5096],[13.1,5178],[13,5262],[13,5345],[13,5428],[12.8,5512],[12.6,5595],[12.5,5678],[11.8,5761],[4.8,5846],[1.2,5928]]",1,0,349.9048,361.5142,0,10.6689,"[{""rating"":3.5816023084852433,""responseTime"":5.055499999999995},{""rating"":0,""responseTime"":10.668900000005976}]",space,11.0789,,361.5144,Partially,50,361.518,,,[],,0,4,4,4,1,audio/Narrative7Situation4.wav,audio/Narrative8Situation4.wav,audio/Narrative5Situation4.wav,audio/Narrative6Situation4.wav,3,3,1,2,,,,,,,,,,,,,,,,,,,,,,,,,,,,,,,,,,,,,,,
,,,,,,63d80cb1ba40ad04c1edd4db,2024-02-08_09h51.49.638,group3.1-3.2-social-tom,2023.2.2,MacIntel,61.34969325,65c5074098b851296ff0b7ed,65c5142216d9865a4e004953,,,,,,,,,,,,,,,,,,,,,,,,,,,,,361.5184,1,audio/Narrative7Situation5.wav,366.5281,,366.5282,375.0212,"[[16.6,1848],[15.3,1931],[12.6,2013],[8.8,2097],[7.1,2180],[5.8,2263],[5.1,2347],[5.1,2431],[5.1,2514],[5.1,2597],[5.1,2681],[5.1,2762],[6.3,2847],[9,2930],[27.3,3013],[28.1,3097],[28.1,3180],[28.1,3263],[28.2,3346],[30.7,3429],[32.5,3512],[33.7,3596],[34.7,3679],[35.5,3762],[36.1,3846],[36.1,3930],[36.1,4013],[36.1,4095],[36.1,4180],[36.1,4262],[36.1,4346],[36.4,4428],[36.6,4512],[36.8,4595],[37,4679],[37.1,4762],[37.1,4845],[37.2,4928],[37.3,5012],[37.3,5095],[37.3,5178],[37.3,5262],[37.3,5344],[37.3,5429],[37.3,5512],[37.3,5594],[37.3,5678],[37.3,5762],[37.3,5845],[37.3,5928],[37.3,6011],[37.3,6095],[37.3,6177],[37.3,6261],[37.3,6343],[37.3,6427],[37.3,6510],[37.3,6595],[37.3,6677],[37.3,6760],[37.3,6845],[37.3,6928],[37.3,7011],[37.3,7094],[37.3,7177],[37.3,7261],[37.3,7344],[37.3,7427],[37.9,7510],[38.3,7593],[38.4,7677],[38.7,7759],[38.8,7844],[38.8,7926],[38.9,8009],[38.9,8093],[38.9,8176],[38.9,8260],[38.9,8343],[38.9,8426]]",1,0,375.0214,381.217,25.40487501,3.8216,"[{""rating"":25.404875013563366,""responseTime"":3.8216000000089707}]",space,5.6518,,381.2171,Partially,50,381.2361,,,[],,0,5,5,5,1,audio/Narrative7Situation5.wav,audio/Narrative8Situation5.wav,audio/Narrative5Situation5.wav,audio/Narrative6Situation5.wav,5,2,5,2,,,,,,,,,,,,,,,,,,,,,,,,,,,,,,,,,,,,,,,
,,,,,,63d80cb1ba40ad04c1edd4db,2024-02-08_09h51.49.638,group3.1-3.2-social-tom,2023.2.2,MacIntel,61.34969325,65c5074098b851296ff0b7ed,65c5142216d9865a4e004953,,,,,,,,,,,,,,,,,,,,,,,,,,,,,381.2363,1,audio/Narrative7Situation6.wav,384.2491,,384.2493,394.2261,"[[999,0],[999,81],[999,166],[999,249],[999,332],[999,415],[999,498],[999,583],[999,666],[999,747],[999,832],[999,915],[999,998],[999,1082],[999,1164],[999,1249],[999,1332],[999,1414],[999,1497],[999,1580],[999,1665],[22,1747],[20.5,1831],[20.3,1914],[21.2,1998],[25.7,2083],[32.4,2165],[39.1,2247],[44.1,2331],[46.3,2414],[52.3,2497],[56.7,2580],[57.4,2664],[57.4,2748],[57.4,2830],[68.7,2913],[82,2997],[90.7,3080],[92.8,3163],[92.8,3247],[92.8,3330],[92.8,3413],[96.1,3497],[99.6,3580],[100,3663],[100,3746],[100,3830],[100,3912],[100,3997],[100,4080],[100,4163],[100,4247],[100,4330],[100,4413],[100,4495],[100,4579],[100,4663],[100,4746],[100,4828],[100,4913],[100,4995],[100,5079],[100,5163],[100,5245],[100,5329],[100,5411],[100,5495],[100,5579],[100,5661],[100,5745],[100,5828],[100,5912],[100,5995],[100,6079],[100,6161],[100,6245],[100,6328],[100,6411],[100,6495],[100,6577],[100,6662],[100,6744],[100,6828],[100,6912],[100,6994],[100,7077],[100,7160],[100,7244],[100,7327],[100,7411],[100,7494],[100,7577],[100,7660],[100,7744],[100,7827],[100,7911],[100,7994],[100,8076],[100,8161],[100,8243],[100,8327],[100,8411],[100,8494],[100,8577],[100,8660],[100,8743],[100,8827],[100,8910],[100,8993],[100,9076],[100,9160],[100,9243],[100,9327],[100,9409],[100,9493],[100,9576],[100,9660],[100,9743],[100,9825],[100,9910]]",1,0,394.2263,402.7194,99.48279487,2.4119,"[{""rating"":99.48279486762152,""responseTime"":2.4119000000059714}]",space,7.9495,,402.7196,Partially,50,402.7351,,,[],,0,6,6,6,1,audio/Narrative7Situation6.wav,audio/Narrative8Situation6.wav,audio/Narrative5Situation6.wav,audio/Narrative6Situation6.wav,3,2,3,2,,,,,,,,,,,,,,,,,,,,,,,,,,,,,,,,,,,,,,,
,,,,,,63d80cb1ba40ad04c1edd4db,2024-02-08_09h51.49.638,group3.1-3.2-social-tom,2023.2.2,MacIntel,61.34969325,65c5074098b851296ff0b7ed,65c5142216d9865a4e004953,,,,,,,,,,,,,,,,,,,,,,,,,,,,,402.7355,1,audio/Narrative7Situation7.wav,407.7502,,407.7502,424.9378,"[[999,17],[999,81],[999,167],[999,249],[999,333],[999,415],[999,499],[999,582],[999,666],[999,751],[999,832],[999,915],[999,998],[999,1082],[999,1165],[999,1248],[999,1332],[999,1415],[999,1498],[999,1582],[999,1665],[999,1748],[45.9,1832],[45.4,1914],[44.6,1997],[43.3,2081],[41.7,2164],[40.9,2247],[39.8,2331],[36.5,2413],[28.3,2497],[27.1,2580],[27.1,2663],[27.1,2747],[27.1,2831],[24.9,2913],[19.4,2996],[18,3080],[17.3,3163],[15.4,3247],[15.3,3331],[15.3,3413],[15.3,3496],[15.3,3580],[15.3,3663],[15.3,3747],[9.3,3830],[5,3913],[4.6,3997],[4.6,4079],[4.5,4163],[4.5,4246],[4.5,4330],[4.5,4413],[4.5,4497],[4.5,4579],[4.5,4662],[4.5,4745],[4.5,4830],[4.5,4912],[6,4996],[7.5,5080],[11.5,5162],[18.8,5247],[20.6,5328],[20.6,5413],[20.6,5495],[20.6,5579],[21.6,5662],[22.9,5745],[24.4,5829],[29.1,5911],[35.2,5996],[36.3,6079],[36.3,6162],[36.3,6245],[45.5,6329],[59.7,6411],[61.8,6494],[61.8,6578],[61.8,6661],[68.2,6746],[78.9,6827],[79.9,6911],[79.9,6995],[79.9,7078],[79.9,7161],[82.2,7244],[84.3,7327],[85.3,7411],[85.5,7494],[85.5,7578],[85.5,7661],[85.5,7744],[86.7,7828],[88,7910],[89.4,7994],[90.3,8077],[92.2,8160],[94,8244],[94.2,8327],[94.2,8410],[94.9,8494],[99.1,9493],[99,9576],[100,9660],[100,9743],[100,9826],[100,9909],[100,9992],[100,10076],[100,10159],[100,10242],[100,10325],[100,10409],[100,10492],[100,10575],[100,10658],[100,10742],[100,10826],[100,10908],[100,10992],[100,11076],[100,11159],[100,11241],[100,11325],[100,11408],[100,11492],[100,11576],[100,11658],[100,11741],[100,11825],[100,11909],[100,11992],[100,12073],[100,12158],[100,12242],[100,12325],[100,12408],[100,12492],[100,12574],[100,12657],[100,12741],[100,12824],[100,12907],[100,12991],[100,13074],[100,13156],[100,13241],[100,13323],[100,13407],[100,13490],[100,13574],[100,13658],[100,13741],[100,13823],[100,13907],[100,13990],[100,14073],[100,14156],[100,14240],[100,14322],[100,14406],[100,14490],[100,14573],[100,14656],[100,14740],[100,14822],[100,14906],[100,14988],[100,15072],[100,15156],[100,15239],[100,15322],[100,15405],[100,15488],[100,15574],[100,15655],[100,15739],[100,15822],[100,15906],[100,15988],[100,16072],[100,16156],[100,16238],[100,16321],[100,16404],[100,16488],[100,16571],[100,16655],[100,16738],[100,16821],[100,16904],[100,16987],[100,17071],[100,17155]]",1,0,424.938,432.5174,99.35675727,3.3386,"[{""rating"":99.35675726996529,""responseTime"":3.338599999994017}]",space,7.0505,,432.5176,Definitely yes,100,432.5386,,,[],,0,7,7,7,1,audio/Narrative7Situation7.wav,audio/Narrative8Situation7.wav,audio/Narrative5Situation7.wav,audio/Narrative6Situation7.wav,5,3,4,5,,,,,,,,,,,,,,,,,,,,,,,,,,,,,,,,,,,,,,,
,,,,,,63d80cb1ba40ad04c1edd4db,2024-02-08_09h51.49.638,group3.1-3.2-social-tom,2023.2.2,MacIntel,61.34969325,65c5074098b851296ff0b7ed,65c5142216d9865a4e004953,,,,,,,,,,,,,,,,,,,,,,,,,,,,,432.5389,1,audio/Narrative7Situation8.wav,434.5499,,434.55,444.5763,"[[99.1,1081],[93.8,1164],[88.7,1247],[85.4,1331],[70.1,1414],[62.8,1498],[62.8,1580],[62.8,1664],[62.8,1748],[62.8,1830],[62.8,1915],[62.8,1997],[62.9,2081],[64.3,2163],[65.4,2247],[65.4,2330],[65.4,2414],[69.1,2496],[80.2,2580],[81.8,2663],[81.8,2746],[81.8,2830],[81.8,2912],[81.8,2997],[81.8,3079],[81.8,3162],[81.8,3246],[81.8,3329],[81.8,3414],[81.8,3496],[81.8,3578],[81.5,3662],[78.3,3746],[76.4,3828],[75.7,3911],[75.7,3995],[75.7,4079],[74.2,4162],[72,4246],[70.6,4329],[70.2,4412],[69.4,4496],[64.6,4578],[60.8,4662],[60.8,4745],[60.8,4828],[60.7,4912],[57.1,4995],[54.4,5079],[53.4,5161],[52.3,5245],[51.8,5328],[51.4,5412],[51.7,5494],[55.9,5578],[67.5,5662],[74.6,5744],[74.7,5828],[74.7,5910],[75.3,5994],[78.2,6077],[79.3,6161],[79.3,6244],[79.3,6328],[79.3,6410],[78.5,6493],[77.6,6577],[77.4,6661],[78.6,6743],[81.4,6826],[82,6911],[82,6993],[82,7077],[82,7160],[82,7243],[81.7,7326],[80.9,7410],[80.6,7494],[80.3,7577],[80,7660],[79.6,7743],[79,7826],[79,7910],[78.5,7993],[78.1,8075],[77.9,8160],[77.9,8244],[77.9,8327],[77.9,8410],[77.9,8492],[77.9,8576],[77.9,8660],[78,8742],[78.9,8826],[81.6,8908],[85,8993],[87.3,9075],[88.3,9159],[89,9242],[89.4,9326],[89.8,9408],[89.9,9492],[90,9576],[90,9659],[90,9743],[90,9825],[90,9908],[90,9992]]",1,0,444.5765,450.9885,89.1344028,4.0022,"[{""rating"":89.13440280490451,""responseTime"":4.002200000002972}]",space,5.8857,,450.9885,Definitely yes,100,450.9906,,,[],,0,8,8,8,1,audio/Narrative7Situation8.wav,audio/Narrative8Situation8.wav,audio/Narrative5Situation8.wav,audio/Narrative6Situation8.wav,2,3,3,5,,,,,,,,,,,,,,,,,,,,,,,,,,,,,,,,,,,,,,,
,,,,,,63d80cb1ba40ad04c1edd4db,2024-02-08_09h51.49.638,group3.1-3.2-social-tom,2023.2.2,MacIntel,61.34969325,65c5074098b851296ff0b7ed,65c5142216d9865a4e004953,,,,,,,,,,,,,,,,,,,,,,,,,,,,,450.9909,1,audio/Narrative7Situation9.wav,453.0031,,453.0032,461.6306,"[[87.6,915],[85.5,999],[79.3,1082],[70.7,1166],[69.1,1248],[69.1,1331],[69.1,1415],[69.1,1498],[69.1,1582],[69.1,1665],[69.1,1749],[69.1,1831],[69.1,1915],[69.1,1998],[74.8,2081],[97,2165],[100,2248],[100,2331],[100,2415],[100,2498],[100,2581],[100,2664],[100,2747],[100,2832],[100,2914],[100,2998],[100,3080],[100,3164],[100,3247],[100,3330],[100,3414],[100,3497],[100,3581],[100,3664],[100,3747],[100,3830],[100,3914],[100,3996],[100,4080],[100,4163],[100,4247],[100,4330],[100,4413],[100,4497],[100,4580],[100,4663],[100,4747],[100,4830],[100,4912],[100,4997],[100,5080],[100,5163],[100,5246],[100,5329],[100,5413],[100,5498],[100,5579],[100,5662],[100,5746],[100,5829],[100,5913],[100,5996],[100,6079],[100,6163],[100,6245],[100,6328],[100,6413],[100,6496],[100,6579],[100,6661],[100,6746],[100,6829],[100,6911],[100,6995],[100,7078],[100,7161],[100,7244],[100,7327],[100,7412],[100,7495],[100,7578],[100,7662],[100,7744],[100,7829],[100,7911],[100,7994],[100,8077],[100,8161],[100,8245],[100,8327],[100,8411],[100,8495],[100,8577]]",1,0,461.6308,465.2617,99.90203857,1.3478,"[{""rating"":99.90203857421875,""responseTime"":1.3478000000119437}]",space,3.0874,,465.2617,Definitely yes,100,465.2639,,,[],,0,9,9,9,1,audio/Narrative7Situation9.wav,audio/Narrative8Situation9.wav,audio/Narrative5Situation9.wav,audio/Narrative6Situation9.wav,2,3,3,4,,,,,,,,,,,,,,,,,,,,,,,,,,,,,,,,,,,,,,,
,,,,,,63d80cb1ba40ad04c1edd4db,2024-02-08_09h51.49.638,group3.1-3.2-social-tom,2023.2.2,MacIntel,61.34969325,65c5074098b851296ff0b7ed,65c5142216d9865a4e004953,,,,,,,,,,,,,,,,,,,,,,,,,,,,,465.2642,1,audio/Narrative8Situation1.wav,470.2759,,470.2759,486.2155,"[[41.4,2680],[24.2,2762],[16.6,2847],[14.4,2930],[14.2,3014],[14.2,3096],[14.2,3180],[12.6,3263],[10.3,3347],[8.9,3429],[8.1,3513],[8.1,3596],[7.6,3679],[6.9,3762],[6.2,3845],[6,3930],[6,4012],[5.8,4096],[5.8,4179],[5.8,4264],[5.8,4346],[5.8,4428],[6.3,4512],[7,4595],[9.5,4678],[10.4,4761],[11.4,4846],[12.3,4928],[13,5011],[13.1,5095],[13.1,5179],[13.1,5261],[13.1,5345],[13.1,5428],[13.1,5512],[13.1,5595],[13.1,5677],[13.5,5761],[15.1,5845],[16.8,5927],[18.5,6010],[22.8,6095],[25.7,6177],[26.2,6260],[26.2,6344],[26.2,6428],[26.2,6511],[26.9,6595],[30.3,6677],[32,6761],[32.7,6844],[33.1,6926],[33.7,7010],[34,7094],[34.1,7176],[34.1,7260],[34.1,7343],[34.1,7427],[34.1,7510],[34.1,7593],[34.1,7676],[34.1,7761],[34.1,7842],[34.1,7927],[34.1,8010],[34.1,8092],[34.1,8177],[34.1,8259],[34.1,8342],[34.1,8426],[34.1,8509],[34.1,8593],[34.1,8676],[33.9,8759],[33.9,8842],[33.9,8926],[33.9,9010],[33.9,9093],[33.9,9176],[33.9,9259],[33.9,9342],[33.9,9426],[33.9,9509],[33.9,9592],[34.9,9676],[36.5,9759],[37.9,9842],[38.9,9926],[38.9,10009],[38.9,10092],[42,10175],[47.3,10258],[48,10341],[48.5,10425],[48.9,10509],[49.9,10591],[50.4,10675],[50.6,10759],[50.7,10841],[50.7,10925],[50.7,11007],[50.7,11091],[50.7,11175],[50.7,11257],[50.7,11341],[50.7,11425],[50.7,11508],[50.7,11591],[50.7,11674],[51.1,11757],[53.1,11840],[53.7,11923],[53.7,12007],[53.7,12090],[53.7,12173],[53.7,12257],[53.7,12340],[53.7,12423],[53.7,12507],[53.7,12590],[53.7,12673],[53.7,12757],[53.7,12840],[53.8,12923],[54.8,13006],[56,13090],[56.8,13173],[57.4,13257],[58.1,13340],[58.7,13423],[58.9,13507],[58.9,13589],[58.9,13673],[58.9,13756],[58.9,13839],[58.9,13923],[58.9,14006],[58.9,14090],[58.9,14172],[58.9,14255],[58.9,14339],[58.9,14423],[58.9,14506],[58.9,14588],[58.9,14673],[58.9,14756],[58.9,14839],[58.9,14921],[58.9,15005],[58.9,15089],[58.9,15172],[58.9,15254],[58.9,15339],[58.9,15422],[58.9,15506],[58.9,15588],[58.9,15672],[58.9,15756],[58.9,15838],[58.9,15921]]",1,0,486.2158,489.5787,63.05360582,2.3731,"[{""rating"":63.05360582139756,""responseTime"":2.373099999993997}]",space,2.8135,,489.5788,Definitely yes,100,489.5806,,,[],,0,10,10,10,1,audio/Narrative8Situation1.wav,audio/Narrative7Situation1.wav,audio/Narrative6Situation1.wav,audio/Narrative5Situation1.wav,5,2,2,5,,,,,,,,,,,,,,,,,,,,,,,,,,,,,,,,,,,,,,,
,,,,,,63d80cb1ba40ad04c1edd4db,2024-02-08_09h51.49.638,group3.1-3.2-social-tom,2023.2.2,MacIntel,61.34969325,65c5074098b851296ff0b7ed,65c5142216d9865a4e004953,,,,,,,,,,,,,,,,,,,,,,,,,,,,,489.5809,1,audio/Narrative8Situation2.wav,492.5937,,492.5938,502.7199,"[[999,0],[999,83],[999,166],[999,249],[999,332],[999,416],[999,499],[999,583],[999,665],[999,748],[999,833],[999,914],[999,999],[999,1081],[999,1165],[999,1249],[999,1331],[999,1415],[56.2,1499],[35.4,1582],[25,1664],[24.8,1748],[24.8,1832],[24.8,1914],[18.3,1998],[14.7,2081],[14.5,2165],[14.5,2249],[14.5,2331],[14.5,2414],[14.8,2497],[15.1,2581],[12.2,2663],[4.7,2748],[2.8,2830],[2.7,2915],[2.7,2997],[2.7,3080],[2.7,3163],[2.7,3246],[1.5,3331],[0.9,3413],[0.1,3496]]",1,0,502.7201,505.1684,0.09666019,1.4561,"[{""rating"":0.09666019015842076,""responseTime"":1.4560999999939668}]",space,1.9019,,505.1684,Definitely yes,100,505.1701,,,[],,0,11,11,11,1,audio/Narrative8Situation2.wav,audio/Narrative7Situation2.wav,audio/Narrative6Situation2.wav,audio/Narrative5Situation2.wav,3,3,3,3,,,,,,,,,,,,,,,,,,,,,,,,,,,,,,,,,,,,,,,
,,,,,,63d80cb1ba40ad04c1edd4db,2024-02-08_09h51.49.638,group3.1-3.2-social-tom,2023.2.2,MacIntel,61.34969325,65c5074098b851296ff0b7ed,65c5142216d9865a4e004953,,,,,,,,,,,,,,,,,,,,,,,,,,,,,505.1703,1,audio/Narrative8Situation3.wav,509.1829,,509.183,531.5689,"[[999,18],[999,82],[999,166],[999,250],[999,333],[999,416],[999,498],[999,582],[999,666],[999,750],[999,833],[999,915],[999,999],[999,1082],[999,1166],[999,1249],[999,1331],[999,1414],[999,1498],[999,1582],[999,1664],[999,1747],[24.2,1831],[23.1,1915],[23.1,1997],[23.1,2081],[23.1,2163],[19.8,2248],[13.8,2332],[10.9,2414],[10.4,2498],[10.4,2581],[10.4,2665],[10.4,2748],[10.2,2830],[9.8,2914],[9.1,2998],[8.6,3081],[8.5,3163],[8.5,3248],[8.5,3331],[8.5,3413],[8.6,3497],[10,3580],[14,3663],[18.8,3747],[20.5,3831],[20.5,3913],[20.5,3997],[20.5,4079],[20.5,4164],[20.5,4247],[20.5,4329],[22.7,4413],[25.4,4495],[28.9,4579],[33.8,4662],[33.9,4745],[33.9,4829],[33.9,4913],[33.9,4996],[33.9,5079],[39.1,5163],[46.7,5245],[54.3,5329],[57.4,5412],[57.4,5495],[57.4,5579],[57.4,5662],[57.4,5745],[57.4,5828],[57.4,5912],[57.4,5996],[57.4,6078],[56.7,6161],[55.8,6244],[54.2,6328],[54.2,6412],[54.2,6495],[54.2,6577],[54.2,6662],[54.2,6745],[54.2,6827],[54.3,6911],[54.3,6995],[54.3,7077],[55.3,7162],[55.7,7244],[56.7,7328],[59.8,7410],[62.5,7495],[62.5,7578],[62.5,7660],[62.5,7743],[62.5,7828],[62.5,7911],[68.1,7993],[80.8,8076],[83.7,8160],[83.7,8244],[83.7,8327],[83.7,8409],[84.2,8493],[97.8,8577],[100,8660],[100,8742],[100,8827],[100,8911],[100,8993],[100,9076],[100,9160],[100,9244],[100,9327],[100,9409],[100,9492],[100,9577],[100,9660],[100,9744],[100,9825],[100,9909],[100,9993],[100,10076],[100,10158],[100,10241],[100,10325],[100,10409],[100,10492],[100,10576],[100,10658],[100,10743],[100,10826],[100,10909],[100,10991],[100,11075],[100,11159],[100,11242],[100,11325],[100,11408],[100,11492],[100,11574],[100,11658],[100,11740],[100,11825],[100,11908],[100,11991],[100,12074],[100,12157],[100,12242],[100,12324],[100,12408],[100,12491],[100,12574],[100,12657],[100,12741],[100,12824],[100,12908],[100,12990],[100,13073],[100,13158],[100,13240],[100,13324],[100,13406],[100,13490],[100,13573],[100,13657],[100,13741],[100,13824],[100,13906],[100,13990],[100,14073],[100,14156],[100,14241],[100,14322],[100,14406],[100,14490],[100,14573],[100,14658],[100,14739],[100,14822],[100,14906],[100,14990],[100,15073],[100,15155],[100,15239],[100,15323],[100,15405],[100,15489],[100,15573],[100,15656],[100,15740],[100,15821],[100,15906],[100,15989],[100,16072],[100,16156],[100,16238],[100,16322],[100,16406],[100,16488],[100,16571],[100,16655],[100,16738],[100,16822],[100,16905],[100,16988],[100,17071],[100,17154],[100,17238],[100,17320],[100,17404],[100,17487],[100,17571],[100,17654],[100,17737],[100,17821],[100,17903],[100,17988],[100,18070],[100,18154],[100,18236],[100,18320],[100,18403],[100,18486],[100,18570],[100,18653],[100,18737],[100,18820],[100,18903],[100,18986],[100,19069],[100,19153],[100,19236],[100,19319],[100,19403],[100,19486],[100,19569],[100,19653],[100,19735],[100,19820],[100,19902],[100,19985],[100,20069],[100,20153],[100,20235],[100,20318],[100,20402],[100,20485],[100,20569],[100,20652],[100,20735],[100,20818],[100,20903],[100,20985],[100,21069],[100,21151],[100,21235],[100,21319],[100,21402],[100,21487],[100,21569],[100,21652],[100,21734],[100,21818],[100,21901],[100,21985],[100,22068],[100,22151],[100,22234],[100,22317]]",1,0,531.5691,537.5479,100,3.5393,"[{""rating"":99.15430704752603,""responseTime"":1.4569999999999936},{""rating"":100,""responseTime"":3.5393000000119628}]",space,5.4499,,537.5481,Definitely yes,100,537.5512,,,[],,0,12,12,12,1,audio/Narrative8Situation3.wav,audio/Narrative7Situation3.wav,audio/Narrative6Situation3.wav,audio/Narrative5Situation3.wav,4,8,5,3,,,,,,,,,,,,,,,,,,,,,,,,,,,,,,,,,,,,,,,
,,,,,,63d80cb1ba40ad04c1edd4db,2024-02-08_09h51.49.638,group3.1-3.2-social-tom,2023.2.2,MacIntel,61.34969325,65c5074098b851296ff0b7ed,65c5142216d9865a4e004953,,,,,,,,,,,,,,,,,,,,,,,,,,,,,537.5518,1,audio/Narrative8Situation4.wav,540.5618,,540.5619,554.725,"[[100,1166],[96.4,1248],[75.6,2497],[75.6,2581],[75.6,2665],[75.6,2746],[77.7,2830],[80.2,2913],[80.3,2998],[80.3,3081],[80.3,3164],[80.3,3247],[80.7,3330],[81.1,3414],[85.6,3497],[100,3580],[100,3664],[100,3747],[100,3831],[100,3913],[100,3996],[100,4081],[100,4164],[100,4247],[100,4330],[100,4414],[100,4496],[100,4580],[100,4663],[100,4747],[100,4830],[100,4913],[100,4996],[100,5080],[100,5163],[100,5246],[100,5330],[100,5412],[100,5496],[100,5580],[100,5662],[100,5746],[100,5829],[100,5913],[100,5996],[100,6078],[100,6162],[100,6245],[100,6329],[100,6412],[100,6495],[100,6579],[100,6662],[100,6745],[100,6829],[100,6911],[100,6996],[100,7078],[100,7161],[100,7244],[100,7327],[100,7412],[100,7495],[100,7577],[100,7662],[100,7745],[100,7828],[100,7911],[100,7993],[100,8078],[100,8160],[100,8244],[100,8327],[100,8410],[100,8495],[100,8578],[100,8660],[100,8743],[100,8827],[100,8910],[100,8994],[100,9076],[100,9161],[100,9244],[100,9326],[100,9410],[100,9493],[100,9577],[100,9659],[100,9743],[100,9827],[100,9909],[100,9993],[100,10076],[100,10158],[100,10242],[100,10326],[100,10409],[100,10493],[100,10575],[100,10659],[100,10742],[100,10826],[100,10910],[100,10991],[100,11075],[100,11158],[100,11243],[100,11324],[100,11408],[100,11491],[100,11576],[100,11658],[100,11742],[100,11825],[100,11908],[100,11991],[100,12074],[100,12158],[100,12241],[100,12324],[100,12407],[100,12491],[100,12574],[100,12658],[100,12741],[100,12824],[100,12907],[100,12991],[100,13073],[100,13158],[100,13241],[100,13324],[100,13407],[100,13490],[100,13574],[100,13656],[100,13740],[100,13824],[100,13908],[100,13990],[100,14073],[100,14162]]",1,0,554.7252,558.4823,100,3.151,"[{""rating"":98.93361409505208,""responseTime"":1.9852000000029193},{""rating"":100,""responseTime"":3.1509999999999536}]",space,3.2176,,558.4824,Definitely yes,100,558.4847,,,[],,0,13,13,13,1,audio/Narrative8Situation4.wav,audio/Narrative7Situation4.wav,audio/Narrative6Situation4.wav,audio/Narrative5Situation4.wav,3,3,2,1,,,,,,,,,,,,,,,,,,,,,,,,,,,,,,,,,,,,,,,
,,,,,,63d80cb1ba40ad04c1edd4db,2024-02-08_09h51.49.638,group3.1-3.2-social-tom,2023.2.2,MacIntel,61.34969325,65c5074098b851296ff0b7ed,65c5142216d9865a4e004953,,,,,,,,,,,,,,,,,,,,,,,,,,,,,558.4853,1,audio/Narrative8Situation5.wav,560.4986,,560.4986,568.7427,"[[100,1998],[97.5,2415],[96.2,2497],[96.1,2581],[96.1,2664],[96.7,2747],[99,2831],[100,2914],[100,2998],[100,3081],[100,3164],[100,3246],[100,3331],[100,3414],[100,3497],[100,3580],[100,3664],[100,3746],[100,3831],[100,3914],[100,3996],[100,4079],[100,4163],[100,4246],[100,4330],[100,4413],[100,4496],[100,4579],[100,4664],[100,4747],[100,4829],[100,4912],[100,4996],[100,5080],[100,5163],[100,5245],[100,5330],[100,5413],[100,5496],[100,5579],[100,5663],[100,5746],[100,5829],[100,5912],[100,5995],[100,6079],[100,6163],[100,6245],[100,6328],[100,6412],[100,6495],[100,6579],[100,6662],[100,6745],[100,6829],[100,6912],[100,6995],[100,7078],[100,7161],[100,7245],[100,7328],[100,7410],[100,7495],[100,7578],[100,7661],[100,7744],[100,7828],[100,7912],[100,7994],[100,8077],[100,8161],[100,8243]]",1,0,568.7428,571.1422,99.825236,1.5147,"[{""rating"":99.82523600260417,""responseTime"":1.5147000000030175}]",space,1.8691,,571.1423,Partially,50,593.0096,49.77132161,7.1313,"[{""rating"":49.771321614583336,""responseTime"":7.131299999996941}]",space,0,14,14,14,1,audio/Narrative8Situation5.wav,audio/Narrative7Situation5.wav,audio/Narrative6Situation5.wav,audio/Narrative5Situation5.wav,2,5,2,5,,,21.3243,,,,,,,,,,,,,,,,,,,,,,,,,,,,,,,,,,,,
,,,,,,63d80cb1ba40ad04c1edd4db,2024-02-08_09h51.49.638,group3.1-3.2-social-tom,2023.2.2,MacIntel,61.34969325,65c5074098b851296ff0b7ed,65c5142216d9865a4e004953,,,,,,,,,,,,,,,,,,,,,,,,,,,,,593.0228,1,audio/Narrative8Situation6.wav,595.0251,,595.0252,601.5044,"[[48.2,2164],[48.1,2248],[47.7,2332],[47.6,2415],[51.2,2498],[58.1,2582],[60.5,2665],[60.5,2748],[60.5,2832],[60.5,2914],[60.5,2998],[60.5,3082],[60.5,3164],[60.5,3248],[60.5,3330],[60.5,3414],[60.5,3497],[60.5,3581],[60.5,3663],[60.5,3747],[60.5,3831],[60.5,3913],[61.5,3998],[61.8,4080],[62.4,4164],[63.3,4248],[63.8,4331],[64.1,4414],[64.8,4496],[65.1,4580],[65.1,4663],[65.1,4747],[65.1,4830],[65.1,4913],[65.1,4996],[65.1,5080],[65.1,5164],[65.1,5247],[65.1,5330],[65.1,5413],[65.1,5497],[65.1,5579],[65.1,5663],[65.1,5747],[65.1,5830],[65.1,5912],[64.7,5996],[64.7,6079],[64.6,6163],[64.2,6246],[63,6329],[60.6,6411]]",1,0,601.5045,607.3179,39.81514825,4.4704,"[{""rating"":39.815148247612846,""responseTime"":4.470400000005952}]",space,5.2882,,607.3181,Definitely yes,100,607.3229,,,[],,0,15,15,15,1,audio/Narrative8Situation6.wav,audio/Narrative7Situation6.wav,audio/Narrative6Situation6.wav,audio/Narrative5Situation6.wav,2,3,2,3,,,,,,,,,,,,,,,,,,,,,,,,,,,,,,,,,,,,,,,
,,,,,,63d80cb1ba40ad04c1edd4db,2024-02-08_09h51.49.638,group3.1-3.2-social-tom,2023.2.2,MacIntel,61.34969325,65c5074098b851296ff0b7ed,65c5142216d9865a4e004953,,,,,,,,,,,,,,,,,,,,,,,,,,,,,607.3234,1,audio/Narrative8Situation7.wav,610.3314,,610.3315,622.4249,"[[999,0],[999,84],[999,166],[999,250],[999,332],[999,416],[999,500],[999,582],[999,666],[999,749],[999,833],[999,917],[999,999],[999,1082],[999,1166],[999,1249],[999,1333],[999,1416],[999,1499],[999,1582],[999,1665],[999,1749],[999,1832],[999,1915],[999,1999],[999,2082],[999,2165],[999,2249],[999,2331],[999,2414],[999,2498],[999,2582],[999,2665],[999,2748],[999,2831],[999,2916],[999,2998],[999,3081],[999,3165],[999,3248],[999,3331],[53.7,3414],[53.7,3498],[53.7,3580],[53.7,3663],[53.7,3747],[53.4,3830],[52.7,3914],[52.2,3997],[51.8,4081],[51.6,4164],[51.6,4248],[51.6,4331],[51.6,4414],[52,4497],[55.7,4580],[57.5,4664],[57.8,4748],[57.8,4831],[57.8,4913],[57.8,4996],[57.8,5081],[57.8,5163],[57.8,5247],[57.8,5330],[64.4,5413],[85.7,5496],[88.4,5579],[88.4,5663],[88.4,5746],[88.4,5830],[88.4,5913],[88.4,5996],[88.4,6079],[88.4,6163],[88.4,6247],[88.4,6330],[88.4,6412],[88.4,6495],[88.4,6579],[88.4,6662],[88.4,6746],[89.1,6829],[93.2,6912],[97.7,6996],[100,7078],[100,7161],[100,7245],[100,7328],[100,7412],[100,7495],[100,7578],[100,7661],[100,7745],[100,7828],[100,7911],[100,7995],[100,8078],[100,8162],[100,8244],[100,8328],[100,8411],[100,8495],[100,8577],[100,8661],[100,8745],[100,8828],[100,8911],[100,8994],[100,9077],[100,9161],[100,9245],[100,9328],[100,9410],[100,9495],[100,9576],[100,9661],[100,9743],[100,9827],[100,9911],[100,9994],[100,10077],[100,10160],[100,10244],[100,10327],[100,10410],[100,10493],[100,10577],[100,10660],[100,10743],[100,10826],[100,10910],[100,10992],[100,11076],[100,11159],[100,11243],[100,11326],[100,11409],[100,11493],[100,11576],[100,11659],[100,11742],[100,11826],[100,11908],[100,11993],[100,12076]]",1,0,622.4252,625.206,99.50907389,1.6391,"[{""rating"":99.50907389322916,""responseTime"":1.6391000000089662}]",space,2.2325,,625.206,Partially,50,625.2108,,,[],,0,16,16,16,1,audio/Narrative8Situation7.wav,audio/Narrative7Situation7.wav,audio/Narrative6Situation7.wav,audio/Narrative5Situation7.wav,3,5,5,4,,,,,,,,,,,,,,,,,,,,,,,,,,,,,,,,,,,,,,,
,,,,,,63d80cb1ba40ad04c1edd4db,2024-02-08_09h51.49.638,group3.1-3.2-social-tom,2023.2.2,MacIntel,61.34969325,65c5074098b851296ff0b7ed,65c5142216d9865a4e004953,,,,,,,,,,,,,,,,,,,,,,,,,,,,,625.2111,1,audio/Narrative8Situation8.wav,628.2213,,628.2214,641.078,"[[98.9,415],[55.7,2997],[55.8,3080],[56.4,3163],[56.7,3246],[54.3,3329],[48.5,3412],[43.3,3496],[42.4,3580],[42.4,3663],[42.4,3745],[28.5,3829],[11.2,3912],[5.3,3996],[5,4079],[5,4163],[5,4246],[2.2,4328],[46,8243],[65.8,8326],[66.1,8409],[66.1,8493],[66.2,8577],[83.9,8659],[88.6,8742],[88.7,8825],[91.8,8909],[97.2,8992],[97.9,9075],[97.9,9159],[97.9,9243],[98.6,9325],[100,9408],[100,9491],[100,9575],[100,9659],[100,9741],[100,9825],[100,9908],[100,9992],[100,10076],[100,10159],[100,10241],[100,10325],[100,10408],[100,10492],[100,10574],[100,10658],[100,10742],[100,10825],[100,10908],[100,10991],[100,11075],[100,11158],[100,11241],[100,11324],[100,11408],[100,11491],[100,11574],[100,11657],[100,11741],[100,11824],[100,11907],[100,11991],[100,12073],[100,12158],[100,12241],[100,12323],[100,12407],[100,12490],[100,12573],[100,12656],[100,12739],[100,12823]]",1,0,641.0782,645.4759,100,3.6717,"[{""rating"":98.35917154947917,""responseTime"":2.7725000000000364},{""rating"":100,""responseTime"":3.671700000002943}]",space,3.8501,,645.476,Not at all,0,645.4799,,,[],,0,17,17,17,1,audio/Narrative8Situation8.wav,audio/Narrative7Situation8.wav,audio/Narrative6Situation8.wav,audio/Narrative5Situation8.wav,3,2,5,3,,,,,,,,,,,,,,,,,,,,,,,,,,,,,,,,,,,,,,,
,,,,,,63d80cb1ba40ad04c1edd4db,2024-02-08_09h51.49.638,group3.1-3.2-social-tom,2023.2.2,MacIntel,61.34969325,65c5074098b851296ff0b7ed,65c5142216d9865a4e004953,,,,,,,,,,,,,,,,,,,,,,,,,,,,,645.4803,1,audio/Narrative8Situation9.wav,648.4902,,648.4902,659.8167,"[[80.8,1248],[78.8,1332],[78.5,1415],[78.5,1499],[78.5,1581],[78.6,1665],[78.6,1749],[78.6,1831],[78.6,1915],[78.6,1999],[78.6,2081],[78.6,2166],[78.6,2248],[69.7,2332],[52.3,2415],[50.6,2498],[50.6,2582],[50.6,2664],[50.6,2747],[50.6,2831],[50.6,2913],[50.6,2998],[50.6,3080],[50.6,3164],[50.6,3248],[50.6,3331],[50.6,3413],[50.6,3497],[50.6,3580],[50.6,3663],[53.2,3747],[62.1,3830],[64.9,3913],[65.3,3996],[65.5,4080],[65.5,4163],[65.5,4247],[65.5,4330],[65.5,4413],[65.5,4496],[68.3,4580],[76.9,4662],[81,4747],[81,4830],[81,4912],[81.5,4997],[86.3,5079],[87,5163],[87,5246],[87,5329],[97.4,5413],[100,5496],[100,5579],[100,5662],[100,5746],[100,5830],[100,5913],[100,5996],[100,6079],[100,6162],[100,6246],[100,6329],[100,6412],[100,6496],[100,6578],[100,6662],[100,6745],[100,6829],[100,6912],[100,6995],[100,7077],[100,7161],[100,7245],[100,7329],[100,7412],[100,7494],[100,7579],[100,7662],[100,7744],[100,7828],[100,7911],[100,7995],[100,8077],[100,8161],[100,8244],[100,8327],[100,8411],[100,8494],[100,8576],[100,8661],[100,8744],[100,8827],[100,8910],[100,8994],[100,9077],[100,9160],[100,9243],[100,9327],[100,9410],[100,9494],[100,9577],[100,9660],[100,9743],[100,9827],[100,9909],[100,9993],[100,10076],[100,10160],[100,10243],[100,10326],[100,10409],[100,10492],[100,10576],[100,10660],[100,10743],[100,10826],[100,10908],[100,10992],[100,11076],[100,11159],[100,11243],[100,11326]]",1,0,659.8169,663.6469,100,3.4357,"[{""rating"":99.57726372612848,""responseTime"":2.5625999999939495},{""rating"":100,""responseTime"":3.435700000002953}]",space,3.2832,,663.6469,Partially,50,663.6524,,,[],,0,18,18,18,1,audio/Narrative8Situation9.wav,audio/Narrative7Situation9.wav,audio/Narrative6Situation9.wav,audio/Narrative5Situation9.wav,3,2,4,3,,,,,,,,,,,,,,,,,,,,,,,,,,,,,,,,,,,,,,,
,,,,,,63d80cb1ba40ad04c1edd4db,2024-02-08_09h51.49.638,group3.1-3.2-social-tom,2023.2.2,MacIntel,61.34969325,65c5074098b851296ff0b7ed,65c5142216d9865a4e004953,,,,,,,,,,,,,,,,,,,,,,,,,,,668.0255,670.5926,670.6135,2,audio/Narrative13Situation2.wav,670.6136,,670.6136,700.3729,"[[98.6,827],[32.1,3075],[29.3,3159],[29,3242],[29,3325],[26.8,3408],[21.1,3493],[18.8,3575],[17.6,3658],[17.3,3742],[17.3,3825],[17.3,3909],[15.1,3992],[12.6,4076],[11.4,4159],[10.8,4242],[10.5,4325],[10.4,4410],[10.4,4492],[10.4,4575],[10.4,4658],[10.1,4741],[10.1,4825],[10,4908],[10,4991],[10,5075],[10,5158],[12.8,5241],[17.3,5325],[21.4,5407],[24.2,5492],[24.2,5575],[24.2,5658],[24.2,5740],[25.3,5823],[26.7,5907],[27.3,5990],[27.5,6074],[27.5,6157],[27.5,6241],[27.5,6323],[27.5,6408],[27.5,6490],[27.5,6574],[27.5,6657],[27.5,6741],[27.5,6823],[27.5,6907],[27.5,6989],[27.5,7073],[27.5,7156],[27.5,7239],[27.5,7322],[27.5,7407],[27.5,7490],[27.5,7573],[27.5,7657],[27.5,7740],[27.5,7822],[27.5,7905],[27.5,7989],[27.5,8073],[35.4,8156],[59.5,8239],[68.2,8322],[68.2,8406],[68.2,8490],[68.2,8572],[73.8,8655],[87.1,8738],[87.6,8822],[87.6,8906],[87.6,8989],[87.6,9071],[87.6,9155],[87.6,9238],[87.6,9322],[87.6,9406],[87.6,9488],[87.6,9572],[87.6,9654],[87.3,9738],[86.4,9821],[85.7,9906],[85.7,9990],[85.7,10072],[85.7,10154],[85.7,10237],[85.7,10322],[85.7,10405],[85.7,10487],[85.7,10570],[85.8,10654],[86,10737],[86.1,10821],[86.1,10904],[86.1,10987],[86.1,11071],[86.1,11153],[86.1,11237],[86.1,11321],[86.1,11404],[86.1,11488],[86.1,11571],[86.1,11653],[86.1,11738],[86.1,11821],[86.9,11903],[87.1,11987],[87.2,12069],[87.4,12153],[87.9,12237],[88.3,12319],[88.6,12403],[88.7,12486],[88.7,12571],[88.7,12653],[88.7,12736],[88.7,12819],[88.7,12903],[88.7,12987],[88.7,13069],[88.7,13152],[88.7,13237],[88.7,13320],[88.7,13402],[88.7,13486],[88.7,13569],[88.8,13652],[89.3,13736],[89.7,13818],[90,13903],[90.5,13986],[90.7,14069],[90.8,14153],[90.8,14236],[90.8,14318],[90.8,14403],[90.8,14485],[90.8,14569],[90.8,14651],[90.8,14735],[90.8,14818],[90.8,14902],[90.8,14985],[90.8,15068],[90.8,15151],[90.5,15235],[90.4,15317],[90.4,15401],[87.4,15485],[77.7,15568],[74.8,15650],[74.8,15734],[74.8,15817],[74.8,15901],[71.4,15984],[60.5,16067],[59.1,16150],[59.1,16234],[59.1,16318],[57.7,16401],[54.5,16483],[52.3,16566],[51.2,16651],[51,16733],[51,16817],[51,16900],[51,16984],[50.7,17066],[50.3,17149],[49.2,17234],[48.9,17317],[48.9,17400],[48.4,17483],[40.6,17567],[38.3,17649],[38.2,17733],[38.2,17817],[38.2,17899],[38.2,17982],[36.5,18065],[34.6,18150],[33.9,18232],[33.9,18315],[33.9,18398],[33.9,18483],[32.7,18566],[30,18649],[27,18733],[24.6,18816],[24.3,18899],[24.3,18982],[24.3,19066],[24.3,19148],[23.4,19231],[23.3,19316],[23,19398],[22.3,19481],[21.4,19565],[20.8,19648],[20.8,19732],[20.8,19815],[20.8,19898],[20.8,19981],[20.8,20065],[20.8,20148],[20.8,20231],[20.8,20316],[20.8,20399],[20.7,20481],[20.7,20565],[20.6,20647],[20.5,20731],[20.4,20814],[20.2,20897],[20.2,20981],[20.2,21065],[20.2,21147],[20.2,21231],[20.2,21315],[20.2,21397],[20.2,21481],[20.2,21564],[20.2,21646],[20.2,21730],[20.2,21814],[20.2,21897],[19.6,21980],[19.5,22063],[20.2,22147],[22.5,22230],[24.6,22313],[26.3,22397],[28.3,22479],[30,22563],[32,22647],[32.7,22729],[32.7,22813],[32.7,22896],[33,22980],[35.5,23062],[37.1,23146],[37.9,23228],[39.8,23313],[39.8,23396],[39.8,23479],[39.8,23562],[40.4,23645],[41.8,23728],[42.5,23812],[42.7,23895],[42.8,23979],[42.8,24062],[42.9,24145],[42.9,24229],[43,24312],[43.1,24395],[43.2,24479],[43.2,24561],[43.3,24645],[43.3,24728],[43.3,24811],[43.3,24895],[43.3,24978],[43.3,25061],[43.5,25145],[43.5,25228],[43.5,25311],[43.5,25394],[43.5,25478],[43.5,25561],[43.5,25644],[43.5,25728],[43.4,25811],[42.9,25894],[42.1,25978],[42,26061],[42,26143],[41.5,26227],[38.4,26310],[37.5,26395],[37.4,26477],[37.4,26560],[37.3,26645],[34.7,26727],[31.8,26811],[30.1,26893],[30.1,26977],[30.1,27061],[30.1,27144],[27.2,27227],[24.2,27309],[23.6,27394],[23.6,27477],[23.6,27559],[22.9,27643],[19.4,27727],[17.4,27810],[16.7,27893],[16.7,27977],[16.7,28060],[16.7,28144],[15.1,28227],[13.7,28309],[12.3,28393],[11.6,28477],[11.5,28594],[11.5,28675],[11.5,28758],[11,28842],[10,28925],[9.5,29008],[8.8,29092],[8.7,29175],[8.4,29258],[8.3,29342]]",1,0,700.3733,700.3763,,,[],,,,700.3764,Not at all,0,700.3804,,,[],,0,0,0,0,1,audio/Narrative13Situation2.wav,audio/Narrative13Situation2.wav,audio/Narrative13Situation2.wav,audio/Narrative13Situation2.wav,2,2,2,2,,,,,663.6539,668.011,space,3.8313,,,,,,,,,,,,,,,,,,,,,,,,,,,,,,,
,,,,,,63d80cb1ba40ad04c1edd4db,2024-02-08_09h51.49.638,group3.1-3.2-social-tom,2023.2.2,MacIntel,61.34969325,65c5074098b851296ff0b7ed,65c5142216d9865a4e004953,,,,,,,,,,,,,,,,,,,,,,,,,,,,,700.3806,2,audio/Narrative5Situation1.wav,705.3858,,705.3859,718.66,"[[999,18],[999,100],[999,182],[999,266],[999,350],[999,433],[999,516],[999,599],[999,683],[999,766],[999,848],[999,931],[999,1015],[999,1099],[8.2,1182],[10.2,1265],[12,1349],[12.8,1431],[12.9,1515],[12.9,1598],[12.9,1682],[12.9,1766],[12.9,1849],[12.9,1931],[12.9,2015],[12.9,2098],[12.9,2181],[12.9,2264],[12.9,2347],[12.7,2431],[11.7,2514],[9,2598],[7.5,2681],[7.3,2764],[7.3,2848],[7.3,2930],[7,3014],[4.7,3098],[3.2,3180],[2.2,3264],[1.7,3347],[1.7,3430],[1.7,3513],[1.7,3597],[1.5,3681],[5.8,10759],[24.8,10843],[37.4,10925],[43.9,11008],[44.5,11093],[44.5,11176],[44.7,11258],[64.3,11342],[83.3,11424],[86.9,11509],[86.9,11591],[86.9,11675],[100,11758],[100,11842],[100,11925],[100,12008],[100,12091],[100,12174],[100,12257],[100,12342],[100,12424],[100,12507],[100,12590],[100,12674],[100,12758],[100,12841],[100,12923],[100,13006],[100,13090],[100,13174],[100,13258]]",1,0,718.6601,727.9879,50.54318746,4.2535,"[{""rating"":50.54318745930989,""responseTime"":4.253500000000031}]",space,8.7996,,727.9881,Not at all,0,728.0086,,,[],,0,1,1,1,1,audio/Narrative7Situation1.wav,audio/Narrative8Situation1.wav,audio/Narrative5Situation1.wav,audio/Narrative6Situation1.wav,2,5,5,2,,,,,,,,,,,,,,,,,,,,,,,,,,,,,,,,,,,,,,,
,,,,,,63d80cb1ba40ad04c1edd4db,2024-02-08_09h51.49.638,group3.1-3.2-social-tom,2023.2.2,MacIntel,61.34969325,65c5074098b851296ff0b7ed,65c5142216d9865a4e004953,,,,,,,,,,,,,,,,,,,,,,,,,,,,,728.009,2,audio/Narrative5Situation2.wav,731.0196,,731.0196,760.4826,"[[999,0],[999,83],[999,165],[999,250],[999,332],[999,415],[999,498],[999,582],[999,667],[999,748],[999,833],[999,915],[999,999],[999,1082],[999,1164],[999,1248],[999,1332],[999,1414],[999,1498],[999,1581],[999,1665],[999,1748],[999,1831],[999,1913],[999,1997],[999,2081],[999,2164],[999,2246],[999,2330],[999,2415],[999,2497],[999,2581],[999,2663],[999,2746],[999,2831],[999,2913],[999,2996],[999,3080],[999,3163],[999,3247],[999,3330],[999,3413],[999,3497],[999,3580],[999,3663],[999,3746],[999,3829],[999,3913],[999,3996],[999,4079],[999,4162],[999,4246],[999,4329],[12.8,4414],[14.9,4495],[15.8,4579],[15.8,4663],[15.8,4746],[16.2,4830],[22.1,4912],[25.9,4996],[27.9,5078],[28.1,5163],[28.1,5245],[28.1,5328],[28.1,5413],[28.1,5495],[28.1,5577],[31.2,5661],[34.9,5746],[37.9,5827],[39.5,5911],[39.5,5994],[39.5,6078],[39.5,6161],[39.5,6245],[39.5,6328],[39.3,6411],[39.1,6494],[39.1,6578],[39,6661],[39,6744],[39,6828],[39,6911],[39,6995],[39,7077],[39,7162],[39,7244],[39,7327],[39,7410],[39,7493],[39,7577],[39,7660],[39.8,7744],[47,7826],[59.4,7910],[60.9,7994],[60.9,8076],[60.9,8159],[70.4,8243],[79.6,8327],[80.4,8410],[80.4,8494],[80.4,8576],[82.7,8660],[86.4,8744],[87,8827],[87,8910],[87,8992],[87.1,9077],[91.2,9159],[94.9,9243],[94.9,9327],[94.9,9410],[94.9,9493],[94.9,9576],[94.9,9658],[94.9,9741],[96.2,9826],[96.6,9908],[97,9991],[97,10074],[97,10159],[97,10242],[97,10325],[97,10410],[97,10491],[97,10575],[97,10659],[97,10742],[97,10824],[97,10908],[97,10991],[97,11075],[97,11158],[97,11242],[97,11325],[97,11408],[97,11490],[99.5,11573],[100,11657],[96.7,28396],[89.8,28481],[86.7,28563],[86.4,28647],[86.4,28730],[86.4,28813],[86.4,28896],[83.2,28980],[81.9,29063],[81.6,29147],[81.5,29230],[81.5,29313],[81.5,29397]]",1,0,760.4828,770.3588,93.39713203,4.2783,"[{""rating"":93.39713202582465,""responseTime"":4.278299999996989}]",space,9.3438,,770.3589,Definitely yes,100,770.3751,,,[],,0,2,2,2,1,audio/Narrative7Situation2.wav,audio/Narrative8Situation2.wav,audio/Narrative5Situation2.wav,audio/Narrative6Situation2.wav,3,3,3,3,,,,,,,,,,,,,,,,,,,,,,,,,,,,,,,,,,,,,,,
,,,,,,63d80cb1ba40ad04c1edd4db,2024-02-08_09h51.49.638,group3.1-3.2-social-tom,2023.2.2,MacIntel,61.34969325,65c5074098b851296ff0b7ed,65c5142216d9865a4e004953,,,,,,,,,,,,,,,,,,,,,,,,,,,,,770.3753,2,audio/Narrative5Situation3.wav,773.3908,,773.3909,787.3147,"[[999,0],[999,83],[999,166],[999,249],[999,332],[999,415],[999,499],[999,583],[999,665],[999,750],[999,833],[999,915],[999,998],[999,1083],[999,1165],[999,1249],[999,1331],[999,1415],[999,1499],[999,1581],[999,1665],[999,1749],[999,1832],[999,1915],[999,1999],[999,2081],[999,2165],[999,2249],[999,2330],[999,2414],[999,2497],[999,2581],[999,2664],[999,2747],[999,2830],[999,2913],[34.6,3000],[42.2,3081],[43.8,3163],[43.8,3247],[43.8,3330],[43.8,3413],[46.9,3497],[48.7,3580],[49,3664],[49.5,3747],[51,3830],[51,3914],[51,3997],[51,4080],[51,4164],[51,4247],[51,4330],[51,4413],[51,4496],[51,4579],[51,4662],[51,4746],[51,4830],[51.4,4913],[51.8,4995],[53.4,5079],[55.2,5162],[58.3,5246],[68.6,5329],[72.9,5412],[72.9,5495],[72.9,5579],[76.1,5663],[90.2,5745],[100,6661],[95.7,6745],[95.4,6828],[98.4,6911],[100,6994],[100,7078],[100,7161],[100,7244],[100,7330],[100,7412],[100,7495],[100,7577],[100,7661],[100,7744],[100,7828],[100,7911],[100,7994],[100,8077],[100,8161],[100,8245],[100,8327],[100,8411],[100,8494],[100,8578],[100,8661],[100,8743],[100,8827],[100,8911],[100,8993],[100,9077],[100,9160],[100,9244],[100,9327],[100,9410],[100,9493],[100,9577],[100,9659],[100,9743],[100,9825],[100,9911],[100,9992],[100,10076],[100,10159],[100,10242],[100,10326],[100,10408],[100,10492],[100,10575],[100,10658],[100,10742],[100,10826],[100,10909],[100,10991],[100,11075],[100,11159],[100,11243],[100,11325],[100,11409],[100,11492],[100,11576],[100,11659],[100,11742],[100,11825],[100,11908],[100,11992],[100,12075],[100,12159],[100,12241],[100,12325],[100,12408],[100,12492],[100,12575],[100,12658],[100,12741],[100,12825],[100,12908],[100,12991],[100,13074],[100,13158],[100,13241],[100,13324],[100,13408],[100,13490],[100,13575],[100,13658],[100,13740],[100,13823],[100,13907]]",1,0,787.3148,790.8133,99.68863593,1.2827,"[{""rating"":99.68863593207466,""responseTime"":1.28269999998804}]",space,2.9638,,790.8135,Definitely yes,100,790.8166,,,[],,0,3,3,3,1,audio/Narrative7Situation3.wav,audio/Narrative8Situation3.wav,audio/Narrative5Situation3.wav,audio/Narrative6Situation3.wav,8,4,3,5,,,,,,,,,,,,,,,,,,,,,,,,,,,,,,,,,,,,,,,
,,,,,,63d80cb1ba40ad04c1edd4db,2024-02-08_09h51.49.638,group3.1-3.2-social-tom,2023.2.2,MacIntel,61.34969325,65c5074098b851296ff0b7ed,65c5142216d9865a4e004953,,,,,,,,,,,,,,,,,,,,,,,,,,,,,790.817,2,audio/Narrative5Situation4.wav,791.8294,,791.8294,812.2324,"[[62.7,1997],[55.4,2080],[52.3,2164],[51.6,2247],[52.8,2330],[54.2,2413],[54.4,2497],[54.4,2580],[54.4,2663],[53.8,2746],[53.2,2830],[53.2,2914],[53.2,2996],[53.2,3079],[53.2,3163],[52.5,3246],[52.4,3329],[52.4,3412],[52.2,3500],[52.1,3580],[52.1,3662],[52.1,3746],[52.1,3829],[52.1,3912],[51.8,3995],[48.2,4079],[39.9,4162],[34.1,4246],[33.4,4328],[33.4,4412],[33.4,4496],[23.9,4579],[15.9,4661],[15.4,4745],[15.4,4828],[15.4,4912],[11.4,4995],[8.4,5078],[7.9,5163],[7.9,5245],[7.9,5328],[7.9,5411],[7.9,5494],[7,5578],[5.2,5661],[4.3,5744],[3.7,5827],[2.3,5910],[0.4,5995],[30.9,9492],[45.4,9575],[45.9,9658],[45.9,9741],[45.9,9824],[53.6,9909],[69,9991],[72.1,10074],[72.1,10157],[72.1,10241],[83,10325],[88.4,10408],[88.4,10491],[88.4,10575],[88.4,10658],[88.9,10742],[90,10824],[90.6,10908],[91.9,10992],[93.7,11075],[98.5,11158],[100,11241],[100,11325],[100,11408],[100,11491],[100,11575],[100,11658],[100,11740],[100,11824],[100,11907],[100,11991],[100,12074],[100,12156],[100,12240],[100,12323],[100,12408],[100,12491],[100,12574],[100,12656],[100,12740],[100,12824],[100,12907],[100,12991],[100,13073],[100,13157],[100,13240],[100,13324],[100,13406],[100,13489],[100,13573],[100,13657],[100,13740],[100,13823],[100,13907],[100,13989],[100,14073],[100,14155],[100,14240],[100,14323],[100,14406],[100,14490],[100,14572],[100,14656],[100,14739],[100,14822],[100,14905],[100,14989],[100,15072],[100,15156],[100,15238],[100,15323],[100,15405],[100,15488],[100,15571],[100,15654],[100,15739],[100,15822],[100,15905],[100,15988],[100,16071],[100,16155],[100,16238],[100,16322],[100,16404],[100,16487],[100,16571],[100,16655],[100,16737],[100,16821],[100,16905],[100,16987],[100,17072],[100,17154],[100,17237],[100,17321],[100,17404],[100,17487],[100,17571],[100,17653],[100,17737],[100,17820],[100,17904],[100,17987],[100,18070],[100,18154],[100,18236],[100,18320],[100,18404],[100,18487],[100,18570],[100,18653],[100,18736],[100,18820],[100,18903],[100,18987],[100,19070],[100,19152],[100,19236],[100,19319],[100,19403],[100,19486],[100,19569],[100,19653],[100,19736],[100,19819],[100,19903],[100,19985],[100,20069],[100,20153],[100,20235],[100,20319],[100,20402]]",1,0,812.2327,821.359,99.76694743,7.4654,"[{""rating"":99.76694742838541,""responseTime"":7.465399999991064}]",space,8.5952,,821.3591,Not at all,0,830.0207,0,5.0351,"[{""rating"":0.9849463568793404,""responseTime"":3.86850000000004},{""rating"":0,""responseTime"":5.035099999994031}]",space,0,4,4,4,1,audio/Narrative7Situation4.wav,audio/Narrative8Situation4.wav,audio/Narrative5Situation4.wav,audio/Narrative6Situation4.wav,3,3,1,2,,,8.1152,,,,,,,,,,,,,,,,,,,,,,,,,,,,,,,,,,,,
,,,,,,63d80cb1ba40ad04c1edd4db,2024-02-08_09h51.49.638,group3.1-3.2-social-tom,2023.2.2,MacIntel,61.34969325,65c5074098b851296ff0b7ed,65c5142216d9865a4e004953,,,,,,,,,,,,,,,,,,,,,,,,,,,,,830.0215,2,audio/Narrative5Situation5.wav,835.0339,,835.0341,850.4564,"[[999,18],[999,99],[999,182],[999,265],[999,349],[999,432],[999,515],[999,598],[999,681],[999,764],[999,849],[999,932],[999,1014],[999,1097],[999,1182],[999,1264],[999,1348],[999,1430],[999,1515],[999,1598],[999,1681],[999,1764],[999,1847],[999,1930],[999,2013],[999,2098],[999,2180],[999,2263],[999,2347],[999,2430],[47.2,2514],[47.5,2596],[48.1,2680],[48.5,2763],[48.6,2846],[48.7,2930],[48.7,3014],[48.7,3097],[48.7,3179],[48.7,3264],[48.7,3345],[48.7,3430],[48.7,3513],[48.7,3596],[48.7,3679],[48.7,3763],[48.7,3846],[48.7,3930],[48.7,4012],[48.2,4096],[39.1,4180],[33.5,4262],[32.9,4346],[32.9,4429],[32.9,4512],[32.9,4596],[32.9,4678],[32.9,4761],[32.9,4845],[32.9,4929],[32.9,5012],[32.9,5094],[32.9,5178],[32.9,5261],[32.9,5344],[30.8,5427],[22.5,5512],[20.7,5596],[20.7,5679],[20.7,5761],[20.7,5844],[20.7,5927],[20.7,6011],[20.7,6094],[20.7,6177],[20.7,6260],[20.7,6345],[20.7,6427],[20.7,6511],[20.7,6594],[20.7,6678],[20.7,6760],[20,6844],[17.1,6926],[16.7,7010],[16.7,7094],[16.7,7178],[16.7,7260],[16.7,7344],[16.7,7426],[16.7,7510],[16.7,7593],[16.7,7677],[16.7,7759],[16.7,7844],[16.7,7926],[16.7,8010],[16.7,8093],[16.7,8177],[16.7,8260],[16.7,8342],[16.7,8427],[16.7,8509],[16.7,8592],[16.7,8677],[16.5,8759],[16.3,8842],[16.1,8925],[15.6,9010],[15.3,9092],[15,9175],[15,9259],[15,9343],[15,9425],[15,9508],[14.8,9592],[14.1,9675],[11.6,9759],[10,9842],[9.7,9926],[9.7,10008],[9.7,10091],[9.7,10176],[8.2,10259],[7.4,10341],[6.8,10425],[6,10509],[5.4,10591],[5.4,10674],[5.4,10759],[5.4,10842],[5.4,10924],[5.4,11008],[5.4,11090],[5.4,11174],[5.4,11258],[5.4,11341],[5,11424],[4.6,11507],[4.1,11590],[3.6,11675],[3.5,11757],[3.4,11840],[3.4,11924],[3.4,12007],[3.4,12090],[3.4,12173],[3.4,12257],[3.4,12341],[3.4,12424],[3.4,12507],[3.4,12589],[3.4,12673],[3.4,12756],[3.4,12839],[3.4,12923],[3.4,13006],[3.2,13089],[3,13173],[2.8,13256],[2.1,13339],[1.5,13423],[0.7,13506],[0.2,13589]]",1,0,850.4568,854.8533,0.408804152,1.3215,"[{""rating"":0.40880415174696094,""responseTime"":1.3215000000000146}]",space,3.852,,854.8534,Not at all,0,854.8709,,,[],,0,5,5,5,1,audio/Narrative7Situation5.wav,audio/Narrative8Situation5.wav,audio/Narrative5Situation5.wav,audio/Narrative6Situation5.wav,5,2,5,2,,,,,,,,,,,,,,,,,,,,,,,,,,,,,,,,,,,,,,,
,,,,,,63d80cb1ba40ad04c1edd4db,2024-02-08_09h51.49.638,group3.1-3.2-social-tom,2023.2.2,MacIntel,61.34969325,65c5074098b851296ff0b7ed,65c5142216d9865a4e004953,,,,,,,,,,,,,,,,,,,,,,,,,,,,,854.8714,2,audio/Narrative5Situation6.wav,857.8844,,857.8846,863.5803,"[[999,0],[999,83],[999,167],[999,249],[999,333],[999,416],[999,500],[999,582],[999,665],[999,749],[999,832],[999,915],[999,998],[999,1081],[999,1166],[999,1248],[999,1332],[999,1416],[999,1498],[999,1591],[999,1665],[999,1749],[999,1832],[999,1915],[999,1998],[999,2082],[999,2165],[999,2247],[999,2332],[999,2414],[999,2497],[999,2580],[999,2665],[999,2748],[999,2831],[999,2914],[999,2997],[999,3080],[999,3164],[999,3247],[999,3330],[999,3414],[999,3497],[999,3580],[999,3663],[999,3747],[46.9,3831],[46.9,3914],[46.9,3997],[47.1,4080],[47.5,4163],[47.7,4246],[47.8,4331],[48,4413],[48.1,4497],[48.3,4580],[48.6,4663],[48.8,4746],[49,4830],[49.1,4913],[49.2,4997],[49.4,5080],[49.5,5164],[49.6,5246],[49.6,5329],[49.6,5413],[49.6,5496],[49.6,5580],[49.6,5662]]",1,0,863.5804,869.5444,49.98733521,3.4959,"[{""rating"":49.987335205078125,""responseTime"":3.4959000000060314}]",space,5.4365,,869.5445,Not at all,0,869.5472,,,[],,0,6,6,6,1,audio/Narrative7Situation6.wav,audio/Narrative8Situation6.wav,audio/Narrative5Situation6.wav,audio/Narrative6Situation6.wav,3,2,3,2,,,,,,,,,,,,,,,,,,,,,,,,,,,,,,,,,,,,,,,
,,,,,,63d80cb1ba40ad04c1edd4db,2024-02-08_09h51.49.638,group3.1-3.2-social-tom,2023.2.2,MacIntel,61.34969325,65c5074098b851296ff0b7ed,65c5142216d9865a4e004953,,,,,,,,,,,,,,,,,,,,,,,,,,,,,869.5476,2,audio/Narrative5Situation7.wav,873.5581,,873.5582,894.5936,"[[999,17],[999,82],[999,165],[999,248],[999,332],[999,415],[999,499],[999,582],[999,666],[999,748],[999,831],[999,914],[999,998],[999,1082],[999,1164],[999,1247],[999,1331],[999,1415],[999,1498],[999,1581],[999,1664],[999,1748],[999,1831],[999,1914],[999,1998],[999,2080],[999,2165],[999,2248],[999,2330],[999,2414],[999,2497],[999,2580],[999,2664],[999,2747],[50.8,2831],[50.8,2914],[50.8,2997],[50.4,3081],[50.3,3164],[50.3,3247],[50.3,3329],[50.3,3413],[50.3,3496],[50.3,3580],[50.3,3663],[50.3,3747],[50.3,3829],[50.3,3914],[50.3,3997],[50.3,4080],[50.3,4163],[50.3,4246],[50.3,4330],[50.3,4412],[50.3,4496],[50.3,4579],[50.3,4662],[50.3,4746],[50.3,4828],[50.3,4912],[50.3,4995],[50.3,5079],[50.3,5162],[50.3,5246],[50.3,5328],[50.3,5412],[50.3,5495],[50.2,5578],[50.1,5662],[50.1,5745],[50.1,5828],[50.1,5911],[50.1,5995],[50.1,6078],[50.1,6161],[50.1,6245],[50.1,6328],[50.1,6412],[50.1,6495],[50.1,6578],[51.9,6661],[53.6,6744],[54.3,6827],[56,6911],[56.7,6994],[56.9,7078],[57.3,7160],[57.6,7243],[58,7327],[58.4,7411],[58.7,7493],[58.8,7578],[58.8,7661],[58.8,7743],[58.8,7828],[58.8,7910],[58.8,7994],[58.8,8078],[58.8,8161],[58.8,8243],[58.8,8327],[58.8,8410],[58.8,8494],[58.8,8576],[58.8,8660],[58.8,8743],[58.8,8826],[58.8,8910],[58.8,8994],[58.8,9076],[58.8,9160],[58.8,9243],[58.8,9327],[58.8,9409],[58.8,9493],[58.8,9576],[58.8,9660],[58.8,9743],[58.8,9825],[59,9910],[59.2,9993],[59.5,10075],[59.6,10159],[59.7,10243],[59.7,10325],[59.7,10408],[59.5,10492],[59.5,10575],[59.5,10658],[59.5,10741],[59.5,10826],[59.5,10908],[59.5,10991],[59.5,11074],[59.5,11158],[59.5,11242],[59.5,11324],[59.5,11408],[59.5,11491],[59.5,11574],[59.5,11658],[59.5,11742],[59.5,11824],[59.5,11908],[59.5,11992],[59.5,12075],[59.5,12158],[59.5,12241],[59.5,12324],[59.5,12407],[59.5,12491],[59.5,12574],[59.5,12658],[59.5,12740],[59.5,12823],[59.5,12908],[59.5,12991],[59.5,13073],[59.5,13156],[59.5,13239],[59.5,13323],[59.5,13407],[59.5,13490],[60.5,13573],[61,13657],[61.1,13739],[61.1,13823],[61.1,13907],[61.1,13989],[61.1,14074],[61.1,14156],[61.1,14239],[61.1,14323],[61.1,14406],[61.1,14489],[61.1,14573],[61.1,14656],[61.1,14740],[61.1,14823],[61.1,14905],[61.1,14989],[61.1,15073],[61.1,15156],[61.1,15238],[61.1,15322],[61.1,15405],[61.1,15489],[61.1,15573],[61.1,15655],[61.1,15738],[61.1,15821],[61.1,15906],[61.1,15988],[59.9,16072],[57.3,16155],[55.2,16238],[52.9,16322],[49.7,16404],[45.7,16487],[42.9,16571],[42.1,16655],[42.1,16738],[42.1,16820],[42.1,16904],[39.6,16988],[37.4,17071],[36.1,17155],[35.1,17237],[34.7,17321],[34.2,17404],[33.4,17487],[32.7,17571],[32.3,17653],[31.9,17738],[31.6,17821],[31.5,17904],[31.5,17991],[31.4,18071],[31.4,18154],[31.4,18237],[31.4,18320],[31.2,18403],[30.9,18487],[30.7,18570],[30.6,18654],[30.6,18736],[30.6,18821],[30.6,18904],[30.6,18986],[30.6,19070],[30.6,19153],[30.6,19235],[30.3,19320],[28.8,19402],[27.4,19486],[26.4,19569],[25.9,19652],[25.4,19736],[24.8,19819],[24.4,19902],[24.1,19986],[23.7,20069],[22.6,20152],[22.2,20236],[21.7,20319],[21.3,20403],[21.3,20485],[21.3,20569],[21.3,20652],[21.3,20735],[21.3,20818],[20.9,20901],[20.5,20986]]",1,0,894.5937,901.1056,14.24230787,4.4374,"[{""rating"":14.242307874891491,""responseTime"":4.437399999991044}]",space,5.9636,,901.1057,Definitely yes,100,901.1097,,,[],,0,7,7,7,1,audio/Narrative7Situation7.wav,audio/Narrative8Situation7.wav,audio/Narrative5Situation7.wav,audio/Narrative6Situation7.wav,5,3,4,5,,,,,,,,,,,,,,,,,,,,,,,,,,,,,,,,,,,,,,,
,,,,,,63d80cb1ba40ad04c1edd4db,2024-02-08_09h51.49.638,group3.1-3.2-social-tom,2023.2.2,MacIntel,61.34969325,65c5074098b851296ff0b7ed,65c5142216d9865a4e004953,,,,,,,,,,,,,,,,,,,,,,,,,,,,,901.11,2,audio/Narrative5Situation8.wav,904.1212,,904.1213,912.9487,"[[999,0],[999,82],[999,166],[999,249],[999,332],[999,416],[999,498],[999,581],[999,665],[999,748],[999,831],[999,915],[999,998],[999,1081],[999,1164],[999,1248],[999,1331],[999,1415],[999,1498],[999,1581],[999,1666],[999,1747],[999,1831],[999,1914],[999,1997],[999,2082],[999,2163],[999,2247],[999,2330],[999,2413],[999,2497],[999,2580],[999,2663],[999,2747],[999,2830],[999,2914],[999,2996],[999,3080],[999,3164],[999,3247],[999,3330],[999,3413],[999,3497],[999,3580],[999,3663],[23.3,3747],[22.8,3830],[22.3,3912],[22.1,3996],[22.1,4079],[22.1,4163],[22.1,4246],[18.7,4329],[14.8,4413],[13.6,4496],[12.2,4579],[11.7,4662],[11.7,4745],[11.7,4828],[11.7,4912],[10.1,4995],[8.2,5078],[7.5,5162],[7.1,5245],[6.5,5330],[5.5,5412],[4.8,5495],[4.2,5578],[3.5,5661],[2.9,5745],[2.1,5828],[1.4,5911],[0.8,5995],[0.5,6079],[0.4,6161],[0.3,6245],[0.2,6329],[0.1,6411],[0.1,6494],[0.1,6578],[0.1,6661],[0.1,6744],[0.1,6828],[0.1,6910],[0.1,6994],[0.1,7077],[0.1,7160],[0.1,7244],[0.1,7328],[0.1,7411],[0.1,7494],[0.1,7578],[0.1,7660],[0.1,7743],[0.1,7827],[0.1,7911],[0.1,7993],[0.1,8077],[0.1,8161],[0.1,8244],[0.1,8327],[0.1,8410],[0.1,8494],[0.1,8576],[0.1,8660],[0.1,8742],[0.1,8827]]",1,0,912.9489,916.6131,0.136642456,2.1093,"[{""rating"":0.1366424560546864,""responseTime"":2.109300000011899}]",space,3.1238,,916.6133,Not at all,0,916.6189,,,[],,0,8,8,8,1,audio/Narrative7Situation8.wav,audio/Narrative8Situation8.wav,audio/Narrative5Situation8.wav,audio/Narrative6Situation8.wav,2,3,3,5,,,,,,,,,,,,,,,,,,,,,,,,,,,,,,,,,,,,,,,
,,,,,,63d80cb1ba40ad04c1edd4db,2024-02-08_09h51.49.638,group3.1-3.2-social-tom,2023.2.2,MacIntel,61.34969325,65c5074098b851296ff0b7ed,65c5142216d9865a4e004953,,,,,,,,,,,,,,,,,,,,,,,,,,,,,916.6195,2,audio/Narrative5Situation9.wav,919.6274,,919.6275,959.1677,"[[999,0],[999,83],[999,165],[999,250],[999,333],[999,415],[999,499],[999,583],[999,665],[999,749],[999,832],[999,916],[999,999],[999,1082],[999,1165],[999,1248],[999,1332],[999,1415],[999,1497],[999,1582],[999,1665],[49.5,1748],[49.5,1831],[49.5,1915],[49.5,1998],[49.5,2081],[49.5,2163],[49.5,2247],[49.5,2330],[49.5,2414],[52.5,2497],[56,2580],[59,2663],[60.3,2748],[60.5,2831],[60.5,2914],[60.5,2996],[60.5,3081],[60.5,3163],[63.4,3247],[68.5,3330],[70.7,3413],[70.7,3498],[70.7,3580],[71.1,3663],[76.1,3746],[79.2,3829],[79.4,3913],[79.4,3997],[79.4,4079],[80.6,4162],[84,4246],[84.6,4329],[84.6,4413],[84.6,4496],[84.6,4580],[84.6,4662],[84.6,4746],[84.6,4829],[84.6,4912],[84.3,4996],[84.2,5080],[84.2,5162],[84.1,5245],[84.1,5330],[84.2,5412],[84.5,5496],[84.9,5578],[84.9,5663],[84.9,5745],[84.9,5828],[84.9,5912],[84.9,5994],[84.9,6079],[84.9,6161],[84.9,6244],[84.9,6328],[84.9,6411],[84.9,6495],[84.9,6578],[84.9,6661],[84.9,6744],[84.9,6828],[84.9,6911],[84.9,6995],[84.9,7077],[85.3,7160],[88.3,7244],[90,7327],[90.6,7411],[90.6,7494],[90.6,7578],[90.6,7660],[90.6,7744],[90.6,7827],[90.6,7910],[90.6,8000],[90.6,8076],[90.6,8160],[93,8244],[97,8326],[99.5,8410],[100,8493],[100,8576],[100,8660],[100,8743],[100,8827],[100,8911],[100,8992],[100,9076],[100,9159],[100,9243],[100,9326],[100,9409],[100,9493],[100,9576],[100,9659],[100,9743],[100,9826],[100,9908],[100,9992],[100,10076],[100,10159],[100,10243],[100,10325],[100,10408],[100,10493],[100,10575],[100,10659],[100,10741],[100,10826],[100,10908],[100,10992],[100,11076],[100,11158],[100,11242],[100,11326],[100,11408],[100,11492],[100,11574],[100,11658],[100,11742],[100,11825],[100,11908],[100,11992],[100,12074],[100,12158],[100,12241],[100,12323],[100,12407],[100,12490],[100,12574],[100,12657],[100,12740],[100,12824],[100,12907],[100,12990],[100,13074],[100,13157],[100,13240],[100,13324],[100,13407],[100,13490],[100,13574],[100,13657],[100,13740],[100,13824],[100,13907],[100,13990],[100,14073],[100,14157],[100,14240],[100,14323],[100,14406],[100,14490],[100,14572],[100,14656],[100,14739],[100,14822],[100,14905],[100,14989],[100,15073],[100,15157],[100,15239],[100,15322],[100,15406],[100,15489],[100,15573],[100,15655],[100,15739],[100,15821],[100,15905],[100,15989],[100,16072],[100,16154],[100,16239],[100,16321],[100,16405],[100,16489],[100,16572],[100,16655],[100,16737],[100,16821],[100,16905],[100,16987],[100,17071],[100,17154],[100,17238],[100,17322],[100,17405],[100,17487],[100,17571],[100,17655],[100,17738],[100,17821],[100,17903],[100,17988],[100,18070],[100,18154],[100,18236],[100,18320],[100,18404],[100,18487],[100,18570],[100,18653],[100,18737],[100,18820],[100,18904],[100,18986],[100,19070],[100,19152],[100,19236],[100,19320],[100,19403],[100,19485],[100,19569],[100,19653],[100,19736],[100,19820],[100,19903],[100,19986],[100,20068],[100,20152],[100,20236],[100,20319],[100,20403],[100,20485],[100,20569],[100,20653],[100,20735],[100,20818],[100,20901],[100,20986],[100,21068],[100,21152],[100,21235],[100,21319],[100,21402],[100,21484],[100,21568],[100,21651],[100,21735],[100,21817],[100,21901],[100,21985],[100,22068],[100,22151],[100,22234],[100,22317],[100,22401],[100,22485],[100,22568],[100,22650],[100,22734],[100,22818],[100,22900],[100,22983],[100,23067],[100,23150],[100,23234],[100,23317],[100,23401],[100,23483],[100,23567],[100,23651],[100,23733],[100,23816],[100,23900],[100,23984],[100,24067],[100,24149],[100,24233],[100,24317],[100,24399],[100,24483],[100,24566],[100,24650],[100,24733],[100,24815],[100,24899],[100,24982],[100,25066],[100,25149],[100,25233],[100,25315],[100,25399],[100,25482],[100,25565],[100,25648],[98.8,25731],[95.5,25815],[92.3,25898],[89.6,25981],[88.8,26065],[88.5,26148],[88.5,26233],[88,26315],[87.5,26398],[87.5,26482],[87.5,26564],[87.5,26648],[89.8,26731],[92.6,26815],[94.2,26897],[95,26982],[95.5,27064],[95.9,27148],[96.2,27231],[96.5,27314],[96.5,27398],[96.5,27482],[96.5,27564],[96.5,27647],[97.6,27731],[98.7,27814],[99.8,27897],[100,27981],[100,28064],[100,28147],[100,28231],[100,28314],[100,28398],[100,28480],[100,28564],[100,28646],[100,28730],[100,28814],[100,28897],[100,28980],[100,29063],[100,29146],[100,29229],[100,29313],[100,29396],[100,29480],[100,29563],[100,29647],[100,29729],[100,29812],[100,29896],[100,29980],[100,30063],[100,30145],[100,30229],[100,30313],[100,30396],[100,30479],[100,30562],[100,30646],[100,30730],[100,30812],[100,30895],[100,30979],[100,31063],[100,31145],[100,31229],[100,31311],[100,31395],[100,31479],[100,31562],[100,31644],[100,31727],[100,31811],[100,31895],[100,31977],[100,32061],[100,32144],[100,32228],[100,32311],[100,32394],[100,32477],[100,32560],[100,32644],[100,32727],[100,32810],[100,32894],[100,32977],[100,33061],[100,33143],[100,33227],[100,33310],[100,33393],[100,33477],[100,33560],[100,33644],[100,33727],[100,33809],[100,33893],[100,33976],[100,34060],[100,34143],[100,34227],[100,34310],[100,34393],[100,34476],[100,34559],[100,34643],[100,34725],[100,34810],[100,34892],[100,34976],[100,35059],[100,35143],[100,35226],[100,35309],[100,35393],[100,35476],[100,35559],[100,35642],[100,35725],[100,35809],[100,35893],[99.5,35975],[99.3,36058],[98.4,36142],[96.8,36225],[95.5,36309],[94,36391],[93.8,36476],[93.8,36558],[93.8,36641],[91.1,36725],[83.8,36808],[81,36891],[80.9,36975],[80.9,37059],[80.3,37140],[74.3,37224],[72.4,37307],[72.3,37391],[72.3,37475],[72.3,37557],[67.5,37641],[65.9,37725],[65.8,37807],[65.8,37890],[65.8,37973],[65.8,38058],[65.8,38140],[65.8,38223],[65.8,38307],[65.7,38390],[62,38474],[59.2,38557],[59,38640],[59,38723],[59,38806],[58.6,38890],[56.3,38973],[55.6,39057],[55.1,39140],[55,39224],[54.9,39307],[54.5,39390],[54,39473]]",1,0,959.1679,963.1655,99.45137872,2.191,"[{""rating"":99.45137871636285,""responseTime"":2.1909999999999172}]",space,3.4509,,963.1657,Partially,50,963.17,,,[],,0,9,9,9,1,audio/Narrative7Situation9.wav,audio/Narrative8Situation9.wav,audio/Narrative5Situation9.wav,audio/Narrative6Situation9.wav,2,3,3,4,,,,,,,,,,,,,,,,,,,,,,,,,,,,,,,,,,,,,,,
,,,,,,63d80cb1ba40ad04c1edd4db,2024-02-08_09h51.49.638,group3.1-3.2-social-tom,2023.2.2,MacIntel,61.34969325,65c5074098b851296ff0b7ed,65c5142216d9865a4e004953,,,,,,,,,,,,,,,,,,,,,,,,,,,,,963.1704,2,audio/Narrative6Situation1.wav,965.1805,,965.1806,991.7635,"[[999,0],[999,82],[999,166],[999,249],[999,333],[999,414],[999,499],[999,582],[999,664],[999,748],[999,832],[999,915],[999,998],[999,1081],[999,1166],[999,1248],[999,1331],[999,1414],[999,1498],[999,1582],[999,1664],[34.9,1748],[26.6,1832],[25.4,1915],[25.4,1998],[25.4,2081],[25.4,2165],[22,2247],[16,2330],[15.6,2414],[15.6,2498],[15.6,2581],[15.6,2663],[15.6,2748],[14.8,2831],[12.2,2914],[10.2,2997],[8.2,3080],[7.8,3163],[7.8,3247],[7.8,3330],[7,3413],[3.3,3496],[1.9,3580],[1.2,3663],[0.7,3746],[0.3,3830],[0.1,3913],[0.1,3996],[0.1,4080],[0.1,4163],[0.1,4247],[0.1,4329],[0.1,4413],[0.1,4496],[0.1,4579],[0.1,4662],[0.1,4746],[0.1,4830],[0.1,4913],[0.1,4995],[0.1,5080],[0.1,5162],[0.1,5246],[0.1,5329],[0.1,5412],[1.4,5495],[19.8,5580],[33.6,5661],[35,5744],[35,5829],[35,5912],[37.3,5995],[44.9,6077],[47.2,6161],[47.7,6244],[48,6329],[48.8,6411],[49.2,6494],[49.5,6578],[49.5,6661],[49.5,6745],[49.5,6828],[51.1,6911],[53.5,6995],[55.7,7078],[59.4,7161],[60.4,7244],[60.4,7328],[60.4,7411],[60.6,7494],[71.6,7578],[81.4,7660],[93.2,8243],[93.9,8326],[95.9,8410],[97.1,8493],[97.8,8577],[98.7,8659],[99.3,8743],[99.5,8826],[99.6,8910],[99.6,8993],[99.8,9076],[99.8,9160],[99.9,9243],[99.9,9326],[99.9,9410],[99.9,9493],[99.9,9576],[99.9,9660],[99.9,9742],[99.9,9826],[99.9,9909],[99.9,9993],[99.9,10076],[99.9,10159],[99.9,10242],[99.9,10326],[99.9,10409],[99.9,10492],[99.9,10575],[99.9,10659],[99.9,10742],[99.9,10826],[99.9,10908],[99.9,10992],[99.9,11076],[99.9,11158],[97.1,11241],[51.9,11908],[51.4,11991],[51.4,12074],[50.9,12158],[50.8,12241],[50.6,12325],[50.6,12407],[50.6,12490],[50.6,12573],[50.6,12658],[49.6,12741],[48.8,12823],[48.3,12907],[46.1,12991],[42.2,13073],[40.8,13157],[40.8,13240],[39.6,13326],[36.9,13407],[35,13490],[35,13573],[35,13656],[33.9,13739],[29.1,13823],[26.2,13906],[25.8,13989],[25.8,14073],[25.5,14156],[25.2,14239],[24.8,14323],[24,14406],[23.6,14489],[23.1,14572],[21.7,14656],[21,14740],[20.8,14822],[20.8,14906],[20.8,14989],[20.8,15072],[19.3,15156],[18.3,15239],[17.7,15322],[16.6,15406],[15.6,15489],[15,15572],[15,15656],[15,15738],[15,15822],[14.6,15905],[13.3,15988],[12.9,16072],[12.3,16154],[12.1,16238],[11.9,16322],[11.6,16404],[10.8,16489],[9.8,16572],[8.5,16655],[7.2,16738],[6,16821],[5.3,16905],[4.8,16988],[4.8,17071],[4.8,17155],[4.8,17237],[4.8,17320],[4.8,17405],[4.8,17488],[4.8,17572],[4.8,17653],[4.8,17737],[4.8,17821],[4.8,17904],[4.8,17987],[4.8,18070],[4.8,18153],[4.8,18236],[4.8,18320],[4.8,18403],[3.7,18486],[2.6,18574],[2.1,18654],[1.8,18736],[1.6,18821],[1.4,18903],[1.1,18986],[1,19070],[0.7,19153],[0.5,19236],[0.4,19320],[0.2,19403],[0.2,21401],[8.1,21484],[24.3,21569],[38,21651],[40.8,21735],[40.8,21818],[40.8,21901],[41.8,21985],[46.3,22067],[47.8,22151],[48.3,22234],[48.5,22318],[49.6,22400],[49.9,22484],[50,22567],[50,22651],[50.1,22734],[50.1,22818],[50.1,22901],[50.1,22985],[50.1,23068],[50.1,23150],[50.1,23233],[50.1,23317],[50.1,23401],[50.1,23484],[50.1,23566],[50.1,23651],[50.1,23733],[50.1,23817],[50.1,23899],[50.1,23984],[50.1,24066],[50.1,24150],[50.1,24232],[50.2,24316],[51.5,24399],[59.9,24482],[74,24567],[76.8,24649],[76.8,24732],[76.8,24815],[84.1,24899],[92.1,24983],[94.4,25065],[94.4,25150],[94.4,25233],[94.4,25315],[96.9,25398],[98.6,25483],[99.1,25566],[99.5,25648],[100,25732],[100,25815],[100,25899],[100,25982],[100,26066],[100,26148],[100,26232],[100,26315],[100,26398],[100,26482],[100,26565]]",1,0,991.7638,1000.7072,67.77702332,7.3758,"[{""rating"":88.17306518554688,""responseTime"":3.3258000000118955},{""rating"":67.77702331542969,""responseTime"":7.375800000011964}]",space,8.4046,,1000.7074,Definitely yes,100,1000.7114,,,[],,0,10,10,10,1,audio/Narrative8Situation1.wav,audio/Narrative7Situation1.wav,audio/Narrative6Situation1.wav,audio/Narrative5Situation1.wav,5,2,2,5,,,,,,,,,,,,,,,,,,,,,,,,,,,,,,,,,,,,,,,
,,,,,,63d80cb1ba40ad04c1edd4db,2024-02-08_09h51.49.638,group3.1-3.2-social-tom,2023.2.2,MacIntel,61.34969325,65c5074098b851296ff0b7ed,65c5142216d9865a4e004953,,,,,,,,,,,,,,,,,,,,,,,,,,,,,1000.7119,2,audio/Narrative6Situation2.wav,1003.721,,1003.721,1032.22,"[[999,17],[999,82],[999,166],[999,250],[999,332],[999,416],[999,499],[999,582],[999,665],[999,749],[999,832],[999,916],[999,999],[999,1082],[999,1165],[999,1249],[999,1332],[999,1415],[999,1498],[999,1582],[999,1665],[999,1749],[999,1831],[8.1,1915],[5.7,1998],[4.6,2081],[3.2,2164],[2.3,2248],[1.1,2331],[0.8,2415],[0,2498],[5.2,4330],[24.9,4413],[40.4,4497],[41.4,4579],[41.4,4663],[42.1,4748],[64,4831],[85.5,4914],[87.2,4997],[87.2,5080],[87.2,5162],[98.9,5246],[100,5329],[100,5412],[100,5496],[100,5578],[100,5662],[100,5746],[100,5829],[100,5912],[100,5996],[100,6079],[100,6162],[100,6246],[100,6329],[100,6413],[100,6495],[100,6579],[100,6662],[100,6745],[100,6829],[100,6912],[100,6995],[100,7079],[100,7162],[100,7245],[100,7328],[100,7412],[100,7495],[100,7578],[100,7661],[100,7746],[100,7827],[100,7911],[100,7995],[100,8079],[100,8162],[100,8244],[100,8328],[100,8412],[100,8495],[100,8578],[100,8661],[100,8743],[100,8828],[100,8910],[100,8993],[100,9078],[100,9161],[100,9244],[100,9327],[100,9410],[100,9494],[100,9577],[100,9661],[100,9743],[100,9827],[100,9910],[100,9994],[100,10076],[100,10160],[100,10243],[100,10327],[100,10409],[100,10492],[100,10576],[100,10659],[100,10743],[100,10826],[100,10909],[100,10992],[100,11076],[100,11159],[100,11242],[100,11326],[100,11410],[100,11492],[100,11575],[100,11659],[100,11743],[100,11825],[100,11908],[100,11991],[100,12076],[100,12158],[100,12242],[100,12325],[100,12408],[100,12492],[100,12575],[100,12658],[100,12741],[100,12825],[100,12907],[100,12992],[100,13073],[100,13158],[100,13242],[100,13325],[100,13408],[100,13491],[100,13575],[100,13658],[100,13740],[100,13824],[100,13907],[100,13991],[100,14074],[100,14157],[100,14241],[100,14324],[100,14408],[100,14491],[100,14573],[100,14656],[100,14741],[100,14824],[100,14906],[100,14989],[100,15073],[100,15156],[100,15239],[100,15322],[100,15407],[100,15490],[100,15573],[100,15656],[100,15739],[100,15823],[100,15906],[100,15990],[100,16072],[100,16155],[100,16240],[100,16322],[100,16405],[100,16488],[98.4,16572],[97.1,16656],[96.6,16738],[96.2,16821],[96,16906],[96,16988],[96.9,17071],[97.9,17155],[98.5,17239],[99.1,17321],[99.5,17405],[99.7,17488],[100,17571],[100,17655],[100,17738],[100,17822],[100,17904],[100,17988],[100,18071],[100,18155],[100,18237],[100,18322],[100,18405],[100,18488],[100,18570],[100,18654],[100,18738],[100,18821],[100,18905],[100,18988],[100,19070],[100,19153],[100,19238],[100,19320],[100,19403],[100,19486],[100,19570],[100,19654],[100,19736],[100,19820],[100,19903],[100,19986],[100,20069],[100,20152],[100,20236],[100,20320],[100,20403],[100,20486],[100,20569],[100,20652],[100,20737],[100,20820],[100,20902],[100,20985],[100,21070],[100,21153],[100,21236],[100,21321],[100,21402],[100,21485],[100,21570],[100,21652],[100,21735],[100,21819],[100,21902],[100,21985],[100,22068],[100,22151],[100,22236],[100,22319],[100,22402],[100,22484],[100,22569],[100,22651],[100,22734],[100,22818],[100,22902],[100,22985],[100,23068],[100,23151],[100,23234],[100,23318],[100,23401],[100,23484],[100,23567],[100,23651],[100,23735],[100,23818],[100,23900],[100,23984],[100,24068],[100,24150],[100,24233],[100,24317],[100,24400],[100,24484],[100,24566],[100,24650],[100,24734],[100,24816],[100,24900],[100,24983],[100,25066],[100,25150],[100,25233],[100,25316],[100,25400],[100,25483],[100,25566],[100,25650],[100,25732],[100,25815],[100,25899],[100,25982],[100,26065],[100,26149],[100,26232],[100,26316],[100,26399],[100,26482],[100,26565],[100,26649],[100,26731],[100,26815],[100,26898],[100,26982],[100,27065],[100,27148],[100,27232],[100,27315],[100,27399],[100,27481],[100,27565],[100,27648],[100,27731],[100,27815],[100,27898],[100,27981],[100,28064],[100,28155],[100,28230],[100,28315],[100,28399],[100,28482]]",1,0,1032.2203,1037.0992,99.41173977,2.5388,"[{""rating"":99.41173977322049,""responseTime"":2.538800000011861}]",space,4.3364,,1037.0992,Not at all,0,1037.1032,,,[],,0,11,11,11,1,audio/Narrative8Situation2.wav,audio/Narrative7Situation2.wav,audio/Narrative6Situation2.wav,audio/Narrative5Situation2.wav,3,3,3,3,,,,,,,,,,,,,,,,,,,,,,,,,,,,,,,,,,,,,,,
,,,,,,63d80cb1ba40ad04c1edd4db,2024-02-08_09h51.49.638,group3.1-3.2-social-tom,2023.2.2,MacIntel,61.34969325,65c5074098b851296ff0b7ed,65c5142216d9865a4e004953,,,,,,,,,,,,,,,,,,,,,,,,,,,,,1037.1037,2,audio/Narrative6Situation3.wav,1042.113,,1042.1131,1054.7536,"[[999,18],[999,99],[999,183],[999,265],[999,349],[999,431],[999,515],[999,598],[999,681],[999,766],[999,848],[999,932],[999,1015],[999,1098],[999,1181],[999,1265],[999,1348],[999,1432],[999,1515],[999,1597],[999,1680],[999,1764],[999,1847],[999,1931],[999,2015],[999,2097],[15.2,2181],[15.1,2263],[15.1,2348],[15.1,2431],[15.1,2513],[15.1,2597],[15.1,2681],[14.9,2763],[12.9,2848],[8.1,2930],[6.9,3014],[6.9,3097],[6.9,3179],[6.9,3263],[6.7,3346],[6.5,3429],[6.5,3512],[6.5,3597],[6.2,3679],[5.2,3764],[4,3846],[3.8,3930],[3.8,4013],[3.8,4096],[3.8,4179],[3.8,4263],[1,4345],[9.6,5761],[20.6,5845],[24,5928],[24,6012],[24,6094],[24.9,6178],[47.5,6844],[51.7,6928],[55.8,7010],[64.9,7095],[72.7,7178],[73.4,7261],[73.4,7344],[75.3,7427],[91.8,7511],[100,7593],[100,7678],[100,7761],[100,7844],[100,7926],[100,8010],[100,8094],[100,8177],[100,8260],[100,8343],[100,8426],[100,8511],[100,8594],[100,8676],[100,8759],[100,8843],[100,8927],[100,9010],[100,9092],[100,9177],[100,9260],[100,9343],[100,9426],[100,9509],[100,9593],[100,9675],[100,9759],[100,9842],[100,9926],[100,10009],[100,10093],[100,10175],[100,10258],[100,10343],[100,10426],[100,10509],[100,10591],[100,10676],[100,10759],[100,10843],[100,10925],[100,11008],[100,11092],[100,11175],[100,11258],[100,11341],[100,11424],[100,11508],[100,11592],[100,11675],[100,11759],[100,11842],[100,11924],[100,12008],[100,12090],[100,12173],[100,12258],[100,12342],[100,12425],[100,12508],[100,12590]]",1,0,1054.7537,1058.4017,99.36304728,2.0717,"[{""rating"":99.36304728190105,""responseTime"":2.071699999988141}]",space,3.0985,,1058.402,Definitely yes,100,1058.4061,,,[],,0,12,12,12,1,audio/Narrative8Situation3.wav,audio/Narrative7Situation3.wav,audio/Narrative6Situation3.wav,audio/Narrative5Situation3.wav,4,8,5,3,,,,,,,,,,,,,,,,,,,,,,,,,,,,,,,,,,,,,,,
,,,,,,63d80cb1ba40ad04c1edd4db,2024-02-08_09h51.49.638,group3.1-3.2-social-tom,2023.2.2,MacIntel,61.34969325,65c5074098b851296ff0b7ed,65c5142216d9865a4e004953,,,,,,,,,,,,,,,,,,,,,,,,,,,,,1058.4065,2,audio/Narrative6Situation4.wav,1060.4169,,1060.417,1073.0418,"[[999,0],[999,82],[999,166],[999,250],[999,332],[999,416],[999,499],[999,582],[999,665],[999,750],[999,832],[999,915],[999,999],[999,1082],[999,1166],[999,1249],[999,1333],[999,1415],[999,1498],[999,1582],[999,1665],[999,1748],[999,1832],[999,1915],[999,1998],[999,2082],[999,2164],[24.2,2247],[22.6,2331],[21.7,2415],[19.4,2498],[11.1,2580],[9.1,2665],[9.1,2749],[9.1,2832],[8.3,2914],[4.8,2997],[3.6,3081],[3.6,3165],[3.6,3248],[3.6,3331],[3.6,3413],[4,3496],[9.8,3580],[31.3,3664],[36.4,3746],[36.4,3830],[36.4,3913],[36.4,3997],[39.8,4080],[44.7,4163],[46.1,4247],[47.9,4330],[48.3,4413],[48.3,4496],[48.3,4580],[48.3,4664],[48.3,4746],[48.4,4829],[49,4912],[49.2,4996],[49.3,5079],[49.7,5163],[55.9,5246],[61.8,5330],[61.8,5412],[61.8,5495],[61.8,5578],[61.8,5663],[61.8,5746],[61.8,5829],[60.9,5912],[54.4,5995],[51.5,6079],[50.5,6162],[49.8,6245],[49.2,6328],[48.8,6412],[48.8,6494],[48.8,6579],[48.8,6662],[48.8,6744],[48.8,6829],[48.8,6912],[48.8,6995],[48.8,7079],[48.8,7162],[48.8,7245],[48.6,7328],[47.4,7412],[47.1,7494],[46.9,7577],[46.1,7661],[45.3,7744],[44.5,7827],[43.4,7911],[42.9,7995],[42.4,8077],[41.4,8161],[41.2,8244],[41.2,8326],[41.2,8411],[41.2,8493],[41.2,8577],[41.2,8661],[41.2,8744],[40.3,8826],[35.7,8910],[33.9,8993],[32.5,9076],[31.1,9160],[30.5,9243],[30.2,9326],[30.2,9410],[30.2,9494],[30.2,9576],[30.2,9660],[30.2,9743],[30.2,9827],[30.2,9909],[29.3,9993],[29.2,10076],[29.2,10159],[29.2,10243],[28.9,10326],[28.6,10409],[25.8,10492],[20.8,10576],[18.8,10659],[18.7,10743],[18.7,10826],[18.7,10909],[18.7,10993],[18.7,11076],[18.7,11159],[18.7,11242],[18.7,11326],[18.7,11409],[18.7,11492],[18.7,11576],[18.7,11658],[18.7,11743],[18.7,11825],[18.7,11908],[18.7,11992],[18.7,12075],[18.7,12159],[18.7,12242],[18.7,12325],[18.7,12409],[18.7,12492],[18.7,12575]]",1,0,1073.0421,1083.0689,0,6.7016,"[{""rating"":19.46075439453125,""responseTime"":1.5131000000089898},{""rating"":12.7054680718316,""responseTime"":3.97199999999998},{""rating"":0,""responseTime"":6.701600000008966}]",space,9.4841,,1083.0691,Not at all,0,1083.0846,,,[],,0,13,13,13,1,audio/Narrative8Situation4.wav,audio/Narrative7Situation4.wav,audio/Narrative6Situation4.wav,audio/Narrative5Situation4.wav,3,3,2,1,,,,,,,,,,,,,,,,,,,,,,,,,,,,,,,,,,,,,,,
,,,,,,63d80cb1ba40ad04c1edd4db,2024-02-08_09h51.49.638,group3.1-3.2-social-tom,2023.2.2,MacIntel,61.34969325,65c5074098b851296ff0b7ed,65c5142216d9865a4e004953,,,,,,,,,,,,,,,,,,,,,,,,,,,,,1083.0848,2,audio/Narrative6Situation5.wav,1085.1015,,1085.1016,1093.0618,"[[999,0],[999,82],[999,165],[999,248],[999,332],[999,415],[999,498],[999,581],[999,665],[999,748],[999,831],[999,915],[46.6,997],[66.7,3080],[69.7,3163],[70.8,3246],[73.5,3330],[75.1,3414],[76,3497],[76,3580],[76,3662],[77.2,3747],[84.2,3830],[85.9,3913],[85.9,3997],[85.9,4079],[87.9,4162],[92.8,4246],[98.9,4329],[100,4412],[100,4495],[100,4578],[100,4663],[100,4745],[100,4829],[100,4913],[100,4996],[100,5079],[100,5162],[100,5245],[100,5329],[100,5412],[100,5494],[100,5578],[100,5661],[100,5745],[100,5827],[100,5911],[100,5995],[100,6077],[100,6162],[100,6245],[100,6328],[100,6412],[100,6495],[100,6577],[100,6661],[100,6744],[100,6827],[100,6910],[100,6995],[100,7077],[100,7160],[100,7244],[100,7328],[100,7411],[100,7494],[100,7577],[100,7660],[100,7744],[100,7827],[100,7911]]",1,0,1093.0621,1096.2607,99.57266914,1.8407,"[{""rating"":99.57266913519966,""responseTime"":1.8406999999881464}]",space,2.6502,,1096.2607,Not at all,0,1096.2644,,,[],,0,14,14,14,1,audio/Narrative8Situation5.wav,audio/Narrative7Situation5.wav,audio/Narrative6Situation5.wav,audio/Narrative5Situation5.wav,2,5,2,5,,,,,,,,,,,,,,,,,,,,,,,,,,,,,,,,,,,,,,,
,,,,,,63d80cb1ba40ad04c1edd4db,2024-02-08_09h51.49.638,group3.1-3.2-social-tom,2023.2.2,MacIntel,61.34969325,65c5074098b851296ff0b7ed,65c5142216d9865a4e004953,,,,,,,,,,,,,,,,,,,,,,,,,,,,,1096.2648,2,audio/Narrative6Situation6.wav,1098.2755,,1098.2756,1109.3687,"[[999,0],[999,82],[999,167],[999,249],[999,332],[999,415],[999,499],[999,582],[999,666],[999,748],[999,833],[999,914],[999,999],[999,1081],[999,1164],[999,1248],[999,1331],[999,1415],[999,1498],[999,1581],[999,1665],[999,1748],[999,1831],[999,1914],[999,1998],[999,2081],[50.7,2164],[51.1,2248],[51.2,2331],[51.2,2414],[51.2,2498],[51.2,2581],[51.2,2664],[57.1,2747],[82.7,2830],[89.2,2914],[89.2,2998],[89.2,3081],[90.8,3164],[100,3246],[100,3329],[100,3414],[100,3497],[100,3580],[100,3664],[100,3747],[100,3831],[100,3913],[100,3996],[100,4079],[100,4164],[100,4247],[100,4330],[100,4412],[100,4496],[100,4580],[100,4663],[100,4747],[100,4829],[100,4913],[100,4997],[100,5079],[100,5162],[100,5245],[100,5329],[100,5413],[100,5495],[100,5578],[100,5663],[100,5746],[100,5828],[100,5911],[100,5996],[100,6079],[100,6161],[100,6246],[100,6329],[100,6412],[100,6495],[100,6578],[100,6662],[100,6745],[100,6828],[100,6911],[100,6995],[100,7077],[100,7162],[100,7244],[100,7328],[100,7410],[100,7494],[100,7578],[100,7661],[100,7744],[100,7827],[100,7911],[100,7994],[100,8077],[100,8160],[100,8244],[100,8327],[100,8411],[100,8493],[100,8576],[100,8660],[100,8743],[100,8827],[100,8909],[100,8994],[100,9076],[100,9160],[100,9243],[100,9327],[100,9410],[100,9493],[100,9576],[100,9660],[100,9743],[100,9825],[100,9910],[100,9993],[100,10076],[100,10160],[100,10242],[100,10326],[100,10410],[100,10493],[100,10575],[100,10659],[100,10742],[100,10825],[100,10908],[100,10992],[100,11076]]",1,0,1109.369,1113.8823,99.70158895,3.6359,"[{""rating"":99.7015889485677,""responseTime"":3.635899999976118}]",space,3.9706,,1113.8824,Definitely yes,100,1113.8865,,,[],,0,15,15,15,1,audio/Narrative8Situation6.wav,audio/Narrative7Situation6.wav,audio/Narrative6Situation6.wav,audio/Narrative5Situation6.wav,2,3,2,3,,,,,,,,,,,,,,,,,,,,,,,,,,,,,,,,,,,,,,,
