exp_question,consent.started,consent.stopped,consentResponse.keys,consentResponse.rt,consentResponse.duration,participantID,date,expName,psychopyVersion,OS,frameRate,STUDY_ID,SESSION_ID,opening1.started,opening1.stopped,keyEndingOpening1.keys,keyEndingOpening1.rt,keyEndingOpening1.duration,volumeAdjust.started,volumeAdjust.stopped,endingAdjust.keys,endingAdjust.rt,endingAdjust.duration,opening2.started,opening2.stopped,keyEndingOpening.keys,keyEndingOpening.rt,keyEndingOpening.duration,mouse.x,mouse.y,mouse.leftButton,mouse.midButton,mouse.rightButton,mouse.time,instructionLoop.thisRepN,instructionLoop.thisTrialN,instructionLoop.thisN,instructionLoop.thisIndex,instructionLoop.ran,readyForAudio.started,readyForAudio.stopped,fixation.started,run,audio_played,fixation.stopped,endPractice.keys,audioPre.started,audioPre.stopped,continuousResponses_audio,continuousSlider.response,continuousSlider.rt,intRating.started,intRating.stopped,intQuestionSlider.response,intQuestionSlider.rt,intQuestionSlider.history,confirmResponse.keys,confirmResponse.rt,confirmResponse.duration,catchQuestion.started,catch_label,catch_value,catchQuestion.stopped,catchQuestionSlider.response,catchQuestionSlider.rt,catchQuestionSlider.history,confirmResponse_2.keys,audioRunLoop.thisRepN,audioRunLoop.thisTrialN,audioRunLoop.thisN,audioRunLoop.thisIndex,audioRunLoop.ran,conditions1_1,conditions2_1,conditions1_2,conditions2_2,dur1_1,dur2_1,dur1_2,dur2_2,endPractice.rt,endPractice.duration,confirmResponse_2.rt,confirmResponse_2.duration,runIntervalBreak.started,runIntervalBreak.stopped,endingBreakKey.keys,endingBreakKey.rt,endingBreakKey.duration,connection.started,connection.stopped,connectionEnding.keys,connectionEnding.rt,connectionEnding.duration,readyForText.started,readyForText.stopped,textPre.started,run_dup,textPre.stopped,continuousResponses_text,textRunLoop.thisRepN,textRunLoop.thisTrialN,textRunLoop.thisN,textRunLoop.thisIndex,textRunLoop.ran,text1_1,text1_2,text2_1,text2_2,runBreakText.started,runBreakText.stopped,endingBreakKey_2.keys,endingBreakKey_2.rt,endingBreakKey_2.duration,ending.started,ending.stopped,endingEnding.keys,endingEnding.rt,endingEnding.duration
tom,0.001,8.964,y,8.64,,63e63a16d7a7a9ceb751d456,2024-02-08_13h01.15.219,group3.1-3.2-social-tom,2023.2.2,Win32,59.95203837,65c5074098b851296ff0b7ed,65c515d23e09a7c7763786fe,,,,,,,,,,,,,,,,,,,,,,,,,,,,,,,,,,,,,,,,,,,,,,,,,,,,,,,,,,,,,,,,,,,,,,,,,,,,,,,,,,,,,,,,,,,,,,,,,,,,,,,,,,
,,,,,,63e63a16d7a7a9ceb751d456,2024-02-08_13h01.15.219,group3.1-3.2-social-tom,2023.2.2,Win32,59.95203837,65c5074098b851296ff0b7ed,65c515d23e09a7c7763786fe,8.964,17.467,space,8.464,,,,,,,,,,,,,,,,,,,,,,,,,,,,,,,,,,,,,,,,,,,,,,,,,,,,,,,,,,,,,,,,,,,,,,,,,,,,,,,,,,,,,,,,,,,,,,,,,,,,,,
,,,,,,63e63a16d7a7a9ceb751d456,2024-02-08_13h01.15.219,group3.1-3.2-social-tom,2023.2.2,Win32,59.95203837,65c5074098b851296ff0b7ed,65c515d23e09a7c7763786fe,,,,,,17.467,83.961,space,66.176,,,,,,,,,,,,,,,,,,,,,,,,,,,,,,,,,,,,,,,,,,,,,,,,,,,,,,,,,,,,,,,,,,,,,,,,,,,,,,,,,,,,,,,,,,,,,,,,,
,,,,,,63e63a16d7a7a9ceb751d456,2024-02-08_13h01.15.219,group3.1-3.2-social-tom,2023.2.2,Win32,59.95203837,65c5074098b851296ff0b7ed,65c515d23e09a7c7763786fe,,,,,,,,,,,83.976,95.981,space,11.966,,[],[],[],[],[],[],0,0,0,0,1,,,,,,,,,,,,,,,,,,,,,,,,,,,,,,,,,,,,,,,,,,,,,,,,,,,,,,,,,,,,,,,,,,,,,,,,,,,,,,,,
,,,,,,63e63a16d7a7a9ceb751d456,2024-02-08_13h01.15.219,group3.1-3.2-social-tom,2023.2.2,Win32,59.95203837,65c5074098b851296ff0b7ed,65c515d23e09a7c7763786fe,,,,,,,,,,,95.987,384.537,space,288.453,,[0.5758333333333333],[-0.23479729729729729],[1],[0],[0],[288.32300000000004],1,0,1,0,1,,,,,,,,,,,,,,,,,,,,,,,,,,,,,,,,,,,,,,,,,,,,,,,,,,,,,,,,,,,,,,,,,,,,,,,,,,,,,,,,
,,,,,,63e63a16d7a7a9ceb751d456,2024-02-08_13h01.15.219,group3.1-3.2-social-tom,2023.2.2,Win32,59.95203837,65c5074098b851296ff0b7ed,65c515d23e09a7c7763786fe,,,,,,,,,,,384.54,405.148,space,20.529,,[],[],[],[],[],[],2,0,2,0,1,,,,,,,,,,,,,,,,,,,,,,,,,,,,,,,,,,,,,,,,,,,,,,,,,,,,,,,,,,,,,,,,,,,,,,,,,,,,,,,,
,,,,,,63e63a16d7a7a9ceb751d456,2024-02-08_13h01.15.219,group3.1-3.2-social-tom,2023.2.2,Win32,59.95203837,65c5074098b851296ff0b7ed,65c515d23e09a7c7763786fe,,,,,,,,,,,405.149,868.827,space,463.643,,"[-0.785,-0.3875]","[-0.3091216216216216,-0.7989864864864865]","[1,1]","[0,0]","[0,0]","[432.9200000000001,441.54099999999994]",3,0,3,0,1,,,,,,,,,,,,,,,,,,,,,,,,,,,,,,,,,,,,,,,,,,,,,,,,,,,,,,,,,,,,,,,,,,,,,,,,,,,,,,,,
,,,,,,63e63a16d7a7a9ceb751d456,2024-02-08_13h01.15.219,group3.1-3.2-social-tom,2023.2.2,Win32,59.95203837,65c5074098b851296ff0b7ed,65c515d23e09a7c7763786fe,,,,,,,,,,,868.831,885.582,space,16.712,,[],[],[],[],[],[],4,0,4,0,1,,,,,,,,,,,,,,,,,,,,,,,,,,,,,,,,,,,,,,,,,,,,,,,,,,,,,,,,,,,,,,,,,,,,,,,,,,,,,,,,
,,,,,,63e63a16d7a7a9ceb751d456,2024-02-08_13h01.15.219,group3.1-3.2-social-tom,2023.2.2,Win32,59.95203837,65c5074098b851296ff0b7ed,65c515d23e09a7c7763786fe,,,,,,,,,,,,,,,,,,,,,,,,,,,885.586,888.165,888.187,1,audio/Narrative13Situation2.wav,890.199,,890.199,919.945,"[[999,0],[999,99],[999,182],[999,267],[999,349],[999,432],[999,517],[999,599],[999,683],[999,767],[999,849],[999,932],[999,1017],[999,1100],[999,1183],[999,1267],[999,1349],[999,1433],[999,1518],[999,1599],[999,1683],[999,1767],[999,1849],[999,1934],[999,2017],[999,2099],[999,2183],[999,2267],[999,2350],[999,2433],[999,2518],[999,2604],[999,2684],[999,2767],[55.8,2855],[56.9,3018],[54.1,3103],[54.1,3183],[54.7,3268],[54.7,3350],[54.8,3433],[54.8,3518],[54.8,3600],[54.8,3683],[54.8,3768],[54.8,3852],[54.8,3933],[54.8,4018],[54.8,4100],[54.7,4183],[54.7,4268],[54.6,4352],[54.6,4434],[54.6,4518],[54.6,4600],[54.6,4684],[54.6,4769],[54.6,4853],[54.6,4934],[54.6,5019],[54.6,5102],[54.6,5184],[54.6,5268],[54.6,5352],[54.6,5434],[54.6,5519],[54.6,5602],[54.6,5684],[54.6,5768],[54.6,5852],[54.6,5935],[54.6,6019],[54.6,6103],[54.6,6184],[54.6,6268],[54.6,6352],[54.6,6434],[54.6,6519],[54.6,6602],[54.6,6685],[54.6,6769],[54.6,6853],[54.6,6935],[54.6,7019],[54.6,7102],[54.6,7185],[54.6,7269],[54.6,7352],[54.6,7435],[54.6,7519],[54.6,7602],[54.6,7685],[54.6,7769],[54.6,7854],[54.6,7936],[54.6,8019],[54.6,8103],[54.6,8185],[54.6,8269],[54.6,8353],[54.6,8436],[54.8,8519],[55.9,8604],[59.3,8686],[63.3,8770],[65.8,8855],[65.9,8935],[65.9,9019],[65.9,9104],[65.9,9185],[65.8,9270],[65.5,9353],[65.5,9436],[65.4,9519],[65.3,9604],[65.3,9685],[65.1,9769],[61.8,9855],[64.1,11354],[64.2,11442],[64.2,11520],[64.2,11604],[64.2,11688],[64.2,11770],[64.2,11854],[64.2,11938],[64.2,12020],[64.2,12104],[60,12189],[58,12271],[57.9,12355],[57.9,12436],[57.9,12520],[57.9,12604],[57.9,12688],[57.9,12770],[57.9,12854],[57.9,12938],[57.9,13020],[57.9,13105],[57.9,13188],[57.9,13270],[57.9,13355],[57.9,13438],[57.9,13520],[57.9,13605],[57.9,13688],[57.9,13770],[57.9,13855],[57.9,13939],[57.9,14021],[57.9,14105],[57.9,14189],[57.9,14270],[57.9,14355],[57.9,14438],[57.9,14521],[57.9,14605],[57.9,14689],[57.9,14771],[57.9,14855],[57.9,14939],[57.9,15021],[57.9,15105],[57.9,15190],[57.9,15271],[57.9,15355],[57.9,15439],[57.9,15521],[57.9,15605],[57.9,15689],[57.9,15771],[57.9,15855],[57.9,15940],[57.9,16021],[57.9,16105],[57.9,16189],[57.9,16271],[57.9,16355],[57.9,16440],[57.9,16522],[57.9,16605],[57.9,16689],[57.9,16772],[57.9,16855],[57.9,16940],[57.9,17021],[57.9,17105],[57.9,17190],[57.9,17272],[57.9,17356],[57.9,17439],[57.9,17522],[57.9,17605],[57.9,17690],[57.9,17772],[57.9,17856],[57.9,17941],[57.9,18022],[57.9,18106],[57.9,18191],[57.9,18273],[57.9,18356],[57.9,18440],[57.9,18522],[57.9,18607],[57.9,18690],[57.9,18773],[57.9,18856],[57.9,18942],[57.9,19022],[57.9,19106],[57.9,19190],[57.9,19272],[57.9,19356],[57.9,19440],[57.9,19523],[57.9,19607],[57.9,19690],[57.9,19773],[57.9,19857],[57.9,19942],[57.9,20023],[57.9,20106],[57.9,20191],[57.9,20273],[57.9,20356],[57.9,20440],[57.9,20525],[57.9,20607],[57.9,20691],[57.9,20773],[57.9,20856],[57.9,20942],[57.9,21025],[57.9,21107],[57.9,21191],[57.9,21273],[57.9,21357],[57.9,21441],[57.9,21525],[57.9,21608],[57.9,21691],[57.9,21775],[57.9,21857],[57.9,21941],[57.9,22025],[57.9,22107],[57.9,22191],[57.9,22275],[57.9,22357],[57.9,22442],[57.9,22525],[57.9,22607],[57.9,22692],[57.9,22775],[57.9,22857],[57.9,22942],[57.9,23025],[57.9,23107],[57.9,23192],[57.9,23277],[57.9,23358],[57.9,23442],[57.9,23525],[57.9,23608],[57.9,23692],[57.9,23775],[57.9,23858],[57.9,23942],[57.9,24025],[57.9,24109],[57.9,24192],[57.9,24276],[57.9,24358],[57.9,24442],[57.9,24526],[57.9,24609],[57.9,24692],[57.9,24776],[57.9,24861],[57.9,24942],[57.9,25026],[57.9,25109],[57.9,25192],[57.9,25276],[57.9,25359],[57.9,25442],[57.9,25526],[57.9,25609],[57.9,25692],[57.9,25776],[57.9,25859],[57.9,25942],[57.9,26026],[57.9,26109],[57.9,26192],[57.9,26277],[57.9,26361],[57.9,26443],[57.9,26527],[57.9,26609],[57.9,26692],[57.9,26777],[57.9,26859],[57.9,26943],[57.9,27026],[57.9,27111],[57.9,27192],[57.9,27277],[57.9,27362],[57.9,27443],[57.9,27527],[57.9,27609],[57.9,27692],[57.9,27777],[57.9,27861],[57.9,27943],[57.9,28027],[57.9,28109],[57.9,28192],[57.9,28277],[57.9,28361],[57.9,28443],[57.9,28527],[57.9,28609],[57.9,28693],[57.9,28778],[57.9,28863],[57.9,28943],[57.9,29028],[57.9,29109],[57.9,29194],[57.9,29278],[57.9,29362],[57.9,29443],[57.9,29527],[57.9,29609],[57.9,29693]]",1,0,919.946,936.551,98.66666667,10.422,"[{""rating"":98.66666666666667,""responseTime"":10.422000000000025}]",space,16.059,,936.552,Not at all,0,936.56,,,[],,0,0,0,0,1,audio/Narrative13Situation2.wav,audio/Narrative13Situation2.wav,audio/Narrative13Situation2.wav,audio/Narrative13Situation2.wav,2,2,2,2,,,,,,,,,,,,,,,,,,,,,,,,,,,,,,,,,,,,,,,
,,,,,,63e63a16d7a7a9ceb751d456,2024-02-08_13h01.15.219,group3.1-3.2-social-tom,2023.2.2,Win32,59.95203837,65c5074098b851296ff0b7ed,65c515d23e09a7c7763786fe,,,,,,,,,,,,,,,,,,,,,,,,,,,,,936.561,1,audio/Narrative7Situation1.wav,941.636,space,941.636,997.54,"[[999,2],[999,86],[999,165],[999,249],[999,333],[999,416],[999,499],[999,585],[999,666],[999,750],[999,833],[999,916],[999,1000],[999,1083],[999,1167],[999,1250],[999,1336],[999,1416],[999,1500],[999,1584],[999,1666],[999,1749],[999,1833],[999,1916],[999,2000],[999,2083],[999,2166],[999,2249],[999,2333],[999,2417],[999,2501],[999,2585],[999,2667],[999,2751],[999,2834],[999,2917],[999,3000],[999,3083],[999,3166],[999,3250],[999,3333],[999,3417],[999,3500],[999,3584],[999,3668],[999,3750],[999,3834],[999,3917],[999,4000],[999,4083],[999,4168],[999,4250],[999,4334],[999,4418],[999,4500],[999,4585],[999,4668],[999,4751],[999,4834],[999,4918],[999,5001],[999,5084],[999,5168],[999,5251],[999,5335],[999,5417],[999,5502],[999,5584],[999,5668],[999,5751],[999,5834],[999,5917],[999,6001],[999,6084],[999,6168],[999,6252],[999,6334],[999,6418],[999,6501],[999,6586],[999,6668],[999,6752],[999,6835],[999,6918],[999,7001],[999,7085],[999,7169],[999,7252],[999,7335],[999,7418],[999,7503],[999,7585],[999,7668],[999,7752],[999,7835],[999,7919],[999,8002],[999,8086],[999,8169],[999,8252],[999,8335],[999,8419],[999,8503],[999,8586],[999,8669],[999,8752],[999,8836],[999,8919],[999,9003],[999,9086],[999,9169],[999,9253],[999,9335],[999,9419],[999,9504],[999,9586],[999,9669],[999,9754],[999,9836],[999,9920],[999,10003],[999,10086],[999,10169],[999,10254],[999,10336],[999,10419],[999,10503],[999,10586],[999,10669],[999,10753],[999,10836],[999,10920],[999,11003],[999,11086],[999,11170],[999,11253],[999,11336],[999,11420],[999,11503],[999,11586],[999,11670],[999,11754],[999,11836],[999,11920],[999,12003],[999,12086],[999,12170],[999,12253],[999,12336],[999,12420],[999,12503],[999,12586],[999,12671],[999,12754],[999,12836],[999,12920],[999,13004],[999,13088],[999,13170],[999,13254],[999,13338],[999,13420],[999,13505],[999,13588],[999,13670],[999,13755],[999,13836],[999,13921],[999,14004],[999,14086],[999,14173],[999,14254],[999,14338],[999,14421],[999,14504],[999,14586],[999,14672],[999,14755],[999,14839],[999,14921],[999,15004],[999,15088],[999,15171],[999,15255],[999,15339],[999,15422],[999,15505],[999,15589],[999,15671],[999,15755],[999,15838],[999,15922],[999,16005],[999,16088],[999,16172],[999,16255],[999,16338],[999,16422],[999,16506],[999,16588],[999,16672],[999,16756],[999,16838],[999,16922],[999,17005],[999,17089],[999,17172],[999,17256],[999,17339],[999,17423],[999,17506],[999,17589],[999,17673],[999,17756],[999,17839],[999,17922],[999,18006],[999,18089],[999,18172],[999,18258],[999,18340],[999,18423],[999,18506],[999,18589],[999,18673],[999,18756],[999,18839],[999,18923],[999,19008],[999,19093],[48.7,19174],[38.4,20090],[38.8,20173],[38.8,20257],[40.9,20340],[45.9,20427],[47.3,20507],[47.9,20591],[48.7,20674],[48.7,20757],[48.7,20841],[48.8,20923],[48.8,21007],[48.8,21090],[48.8,21174],[48.8,21257],[48.8,21341],[48.8,21424],[48.8,21507],[48.8,21591],[48.8,21674],[48.8,21758],[48.8,21841],[48.8,21924],[48.8,22008],[48.8,22090],[48.8,22174],[48.8,22258],[48.8,22341],[48.8,22425],[48.8,22508],[48.8,22591],[48.8,22674],[48.8,22758],[48.8,22841],[48.8,22924],[48.8,23008],[48.8,23091],[48.8,23175],[48.8,23258],[48.8,23341],[48.8,23425],[48.8,23508],[48.8,23592],[48.8,23675],[48.8,23759],[48.8,23841],[48.8,23926],[48.8,24008],[48.8,24092],[48.8,24175],[48.8,24258],[48.8,24342],[48.8,24424],[48.8,24509],[49.1,24592],[49.3,24675],[49.3,24759],[49.3,24841],[49.3,24926],[49.3,25008],[49.3,25092],[49.3,25175],[49.3,25259],[49.3,25342],[49.3,25425],[49.3,25509],[49.3,25593],[49.3,25675],[49.3,25758],[49.3,25842],[49.3,25926],[49.3,26009],[49.3,26093],[49.3,26175],[49.3,26259],[49.3,26343],[49.3,26426],[49.3,26509],[49.3,26593],[49.3,26676],[49.3,26759],[49.3,26843],[49.3,26926],[49.3,27009],[49.3,27093],[49.3,27175],[49.3,27259],[49.3,27344],[49.3,27426],[49.3,27509],[49.3,27593],[49.3,27676],[49.3,27759],[49.3,27843],[49.3,27926],[49.3,28009],[49.3,28093],[49.3,28177],[49.3,28259],[49.3,28344],[49.3,28426],[49.3,28509],[49.3,28595],[49.3,28676],[49.3,28759],[49.3,28843],[49.3,28927],[49.3,29009],[49.3,29094],[49.3,29177],[49.3,29259],[49.3,29344],[49.3,29427],[49.3,29509],[49.3,29594],[49.3,29677],[49.3,29759],[49.3,29843],[49.3,29928],[49.3,30011],[49.3,30094],[49.3,30177],[49.3,30259],[49.3,30344],[49.3,30427],[49.3,30509],[49.3,30594],[49.3,30678],[49.3,30761],[49.3,30844],[49.3,30928],[49.3,31012],[49.3,31094],[49.3,31177],[49.3,31261],[49.3,31344],[49.3,31427],[49.3,31511],[49.3,31594],[49.3,31677],[49.3,31761],[49.3,31845],[49.3,31928],[49.3,32011],[49.3,32094],[49.3,32178],[49.3,32261],[49.3,32345],[49.3,32429],[49.3,32511],[49.3,32595],[49.3,32678],[49.3,32762],[49.3,32845],[49.3,32928],[49.3,33011],[49.3,33095],[49.3,33179],[49.3,33262],[49.3,33345],[49.3,33429],[49.3,33512],[49.3,33595],[49.3,33679],[49.3,33762],[49.3,33845],[49.3,33929],[49.3,34012],[49.3,34095],[49.3,34178],[49.3,34263],[49.3,34346],[49.3,34430],[49.3,34512],[49.3,34595],[49.3,34679],[49.3,34762],[49.3,34846],[49.3,34930],[49.3,35013],[49.3,35095],[49.3,35179],[49.3,35263],[49.3,35346],[49.3,35431],[49.3,35513],[49.3,35596],[49.3,35679],[49.3,35763],[49.3,35846],[49.3,35929],[49.3,36012],[49.3,36096],[49.3,36180],[49.3,36263],[49.3,36346],[49.3,36430],[49.3,36513],[49.3,36596],[49.3,36680],[49.3,36763],[49.3,36847],[49.3,36930],[49.3,37013],[49.3,37096],[49.3,37180],[49.3,37265],[49.3,37347],[49.3,37430],[49.3,37513],[49.3,37597],[49.3,37680],[49.3,37764],[49.3,37847],[49.3,37930],[49.3,38013],[49.3,38097],[49.3,38180],[49.3,38265],[49.3,38347],[49.3,38431],[49.3,38514],[49.3,38597],[49.3,38680],[49.3,38764],[49.3,38847],[49.3,38931],[49.3,39013],[49.3,39097],[49.3,39181],[49.3,39264],[49.3,39347],[49.3,39431],[49.3,39514],[49.3,39597],[49.3,39681],[49.3,39764],[49.3,39848],[49.3,39930],[49.3,40014],[49.3,40098],[49.3,40181],[49.3,40264],[49.3,40348],[49.3,40431],[49.3,40514],[49.3,40598],[49.3,40681],[49.3,40765],[49.3,40848],[49.3,40931],[49.3,41015],[49.3,41098],[49.3,41181],[49.3,41265],[49.3,41348],[49.3,41431],[49.3,41515],[49.3,41599],[49.3,41682],[49.3,41765],[49.3,41848],[49.3,41932],[49.3,42015],[49.3,42098],[49.3,42182],[49.3,42265],[49.3,42349],[49.3,42432],[49.3,42515],[49.3,42599],[49.3,42682],[49.3,42765],[49.3,42849],[49.3,42932],[49.3,43015],[49.3,43099],[49.3,43182],[49.3,43266],[49.3,43349],[49.3,43432],[49.3,43516],[49.3,43599],[49.3,43682],[49.3,43766],[49.3,43849],[49.3,43932],[49.3,44016],[49.3,44099],[49.3,44182],[51.7,44266],[52,44349],[52.2,44432],[52.2,44518],[52.2,44600],[52.2,44682],[52.2,44766],[52.2,44849],[52.2,44932],[52.2,45016],[52.2,45099],[52.2,45184],[52.2,45267],[52.2,45350],[52.2,45432],[52.2,45517],[52.2,45600],[52.2,45682],[52.2,45766],[52.2,45850],[52.2,45934],[52.2,46016],[52.2,46100],[52.2,46184],[52.2,46267],[52.2,46350],[52.2,46432],[52.2,46517],[52.2,46600],[52.2,46686],[52.2,46768],[52.2,46851],[52.2,46932],[52.2,47017],[52.2,47100],[52.2,47185],[52.2,47268],[52.2,47350],[52.2,47434],[52.2,47517],[52.2,47601],[52.2,47684],[52.2,47768],[52.2,47851],[52.2,47934],[52.2,48017],[52.2,48103],[52.2,48184],[52.2,48267],[52.2,48351],[52.2,48434],[52.2,48519],[52.2,48601],[52.2,48684],[52.2,48767],[52.2,48851],[52.2,48934],[52.2,49018],[52.2,49101],[52.2,49184],[52.2,49267],[52.2,49351],[52.2,49437],[52.2,49519],[52.2,49603],[52.2,49684],[52.2,49768],[52.2,49852],[52.2,49935],[52.2,50018],[52.2,50103],[52.2,50185],[52.2,50269],[52.2,50352],[52.2,50436],[52.2,50519],[52.2,50601],[52.2,50685],[52.2,50768],[52.2,50854],[52.2,50935],[52.2,51019],[52.2,51104],[52.2,51185],[52.1,51271],[52.1,51352],[52.1,51436],[52.1,51519],[52.1,51603],[52.1,51686],[52.1,51769],[52.1,51853],[52.1,51940],[52.1,52019],[52.1,52105],[52.1,52203],[52.1,52286],[52.1,52369],[52.1,52455],[52.1,52536],[52.1,52619],[52.1,52703],[52.1,52786],[52.1,52869],[52.1,52952],[52.1,53036],[52.1,53120],[52.1,53203],[52.1,53286],[52.1,53370],[52.1,53452],[52.1,53537],[52.1,53620],[52.1,53702],[52.1,53787],[52.1,53869],[52.1,53957],[52.1,54051],[52.1,54120],[52.1,54203],[52.1,54287],[52.1,54369],[52.1,54454],[52.1,54536],[52.1,54624],[52.1,54704],[52.1,54786],[52.1,54870],[52.1,54954],[52.1,55036],[52.1,55120],[52.1,55204],[52.1,55287],[52.1,55370],[52.1,55453],[52.1,55537],[52.2,55620],[53,55704],[53.8,55790],[55.4,55870]]",1,0,997.54,1007.045,68.58333333,5.757,"[{""rating"":68.58333333333333,""responseTime"":5.757000000000062}]",space,8.972,,1007.045,Half the time,50,1007.057,,,[],,0,1,1,1,1,audio/Narrative7Situation1.wav,audio/Narrative8Situation1.wav,audio/Narrative5Situation1.wav,audio/Narrative6Situation1.wav,2,5,5,2,5.055,,,,,,,,,,,,,,,,,,,,,,,,,,,,,,,,,,,,,,
,,,,,,63e63a16d7a7a9ceb751d456,2024-02-08_13h01.15.219,group3.1-3.2-social-tom,2023.2.2,Win32,59.95203837,65c5074098b851296ff0b7ed,65c515d23e09a7c7763786fe,,,,,,,,,,,,,,,,,,,,,,,,,,,,,1007.059,1,audio/Narrative7Situation2.wav,1010.061,,1010.061,1017.548,"[[42.6,3834],[42.4,3917],[42.3,4001],[42.2,4084],[42.2,4168],[42.2,4251],[42.2,4334],[42.5,4417],[42.8,4501],[44,4586],[47.6,4668],[52.4,4751],[60.3,4834],[63.8,4923],[64.6,5001],[64.6,5084],[64.6,5168],[64.6,5251],[64.6,5334],[64.6,5418],[64.6,5500],[64.6,5586],[64.6,5668],[64.6,5751],[63.8,5836],[63.6,5919],[63.3,6001],[63.3,6086],[63.3,6168],[47.2,6252],[43.2,6336],[35.1,6418],[32,6503],[29.5,6586],[27.3,6668],[23.2,6754],[20.5,6836],[19.9,6922],[17.3,7002],[17.3,7087],[17.3,7169],[17.3,7252],[17.3,7336],[17.3,7418]]",1,0,1017.549,1024.016,27.5,5.345,"[{""rating"":27.500000000000004,""responseTime"":5.345000000000027}]",space,5.925,,1024.016,All the time,100,1024.027,,,[],,0,2,2,2,1,audio/Narrative7Situation2.wav,audio/Narrative8Situation2.wav,audio/Narrative5Situation2.wav,audio/Narrative6Situation2.wav,3,3,3,3,,,,,,,,,,,,,,,,,,,,,,,,,,,,,,,,,,,,,,,
,,,,,,63e63a16d7a7a9ceb751d456,2024-02-08_13h01.15.219,group3.1-3.2-social-tom,2023.2.2,Win32,59.95203837,65c5074098b851296ff0b7ed,65c515d23e09a7c7763786fe,,,,,,,,,,,,,,,,,,,,,,,,,,,,,1024.027,1,audio/Narrative7Situation3.wav,1032.036,,1032.036,1041.29,"[[999,0],[999,83],[999,193],[999,282],[999,372],[999,474],[999,567],[999,650],[999,734],[999,817],[999,901],[999,983],[999,1067],[68.2,1151],[75.5,1233],[75.5,1317],[75.8,1401],[75.8,1483],[75.1,1567],[74.6,1650],[74.5,1733],[74.5,1817],[74.5,1901],[74.5,1983],[74.5,2068],[74.5,2151],[74.5,2234],[74.5,2317],[74.5,2401],[74.5,2483],[74.5,2567],[74.5,2651],[74.5,2734],[74.5,2817],[74.5,2902],[74.5,2983],[74.5,3069],[74.5,3153],[74.5,3237],[74.5,3317],[74.5,3405],[74.5,3483],[74.5,3567],[74.5,3652],[74.5,3736],[74.5,3818],[74.5,3902],[74.5,3988],[74.5,4069],[74.4,4153],[74.4,4234],[74.4,4317],[74.4,4402],[74.4,4484],[74.4,4569],[74.4,4652],[74.4,4734],[74.4,4817],[74.4,4903],[74.4,4986],[74.4,5068],[74.4,5152],[74.4,5234],[74.4,5318],[74.4,5402],[74.4,5486],[74.3,5577],[74.3,5668],[74.3,5752],[74.3,5836],[74.3,5923],[74.3,6002],[74.3,6086],[74.3,6169],[74.3,6252],[74.3,6335],[74.3,6419],[74.3,6503],[74.3,6586],[74.3,6669],[74.3,6753],[74.3,6835],[74.3,6919],[74.3,7001],[74.3,7086],[74.3,7170],[74.3,7251],[74.3,7336],[74.3,7419],[74.3,7502],[74.3,7586],[74.3,7670],[74.3,7752],[74.3,7836],[74.3,7919],[74.3,8002],[74.3,8086],[74.3,8170],[74.3,8252],[74.3,8336],[74.3,8420],[74.3,8502],[74.3,8586],[74.3,8671],[74.3,8752],[74.3,8836],[74.3,8920],[74.3,9003],[74.3,9086],[74.3,9170],[74.3,9252]]",1,0,1041.29,1050.194,29,7.25,"[{""rating"":29.000000000000004,""responseTime"":7.25}]",space,8.373,,1050.194,Not at all,0,1050.204,,,[],,0,3,3,3,1,audio/Narrative7Situation3.wav,audio/Narrative8Situation3.wav,audio/Narrative5Situation3.wav,audio/Narrative6Situation3.wav,8,4,3,5,,,,,,,,,,,,,,,,,,,,,,,,,,,,,,,,,,,,,,,
,,,,,,63e63a16d7a7a9ceb751d456,2024-02-08_13h01.15.219,group3.1-3.2-social-tom,2023.2.2,Win32,59.95203837,65c5074098b851296ff0b7ed,65c515d23e09a7c7763786fe,,,,,,,,,,,,,,,,,,,,,,,,,,,,,1050.204,1,audio/Narrative7Situation4.wav,1053.211,,1053.211,1064.95,[],1,0,1064.951,1068.719,49.58333333,2.593,"[{""rating"":49.583333333333336,""responseTime"":2.5930000000000746}]",space,3.217,,1068.72,Half the time,50,1068.752,,,[],,0,4,4,4,1,audio/Narrative7Situation4.wav,audio/Narrative8Situation4.wav,audio/Narrative5Situation4.wav,audio/Narrative6Situation4.wav,3,3,1,2,,,,,,,,,,,,,,,,,,,,,,,,,,,,,,,,,,,,,,,
,,,,,,63e63a16d7a7a9ceb751d456,2024-02-08_13h01.15.219,group3.1-3.2-social-tom,2023.2.2,Win32,59.95203837,65c5074098b851296ff0b7ed,65c515d23e09a7c7763786fe,,,,,,,,,,,,,,,,,,,,,,,,,,,,,1068.753,1,audio/Narrative7Situation5.wav,1073.769,,1073.769,1082.255,"[[53.3,6253],[53.8,6336],[53.8,6420],[53.8,6503],[53.8,6589],[53.8,6669],[53.8,6751],[53.8,6836],[53.8,6919],[53.8,7001],[53.8,7085],[53.8,7170],[53.8,7251],[53.8,7336],[53.8,7419],[53.8,7501],[53.8,7586],[54.5,7670],[57.3,7753],[57.8,7836],[57.8,7920],[57.8,8001],[59.4,8086],[61.6,8173],[62,8254],[62.3,8335],[62.4,8419]]",1,0,1082.255,1084.756,30,1.942,"[{""rating"":30,""responseTime"":1.9420000000000073}]",space,1.968,,1084.756,All the time,100,1084.762,,,[],,0,5,5,5,1,audio/Narrative7Situation5.wav,audio/Narrative8Situation5.wav,audio/Narrative5Situation5.wav,audio/Narrative6Situation5.wav,5,2,5,2,,,,,,,,,,,,,,,,,,,,,,,,,,,,,,,,,,,,,,,
,,,,,,63e63a16d7a7a9ceb751d456,2024-02-08_13h01.15.219,group3.1-3.2-social-tom,2023.2.2,Win32,59.95203837,65c5074098b851296ff0b7ed,65c515d23e09a7c7763786fe,,,,,,,,,,,,,,,,,,,,,,,,,,,,,1084.762,1,audio/Narrative7Situation6.wav,1087.774,,1087.774,1097.761,"[[32.8,9421],[40.4,9503],[44.3,9587],[45.4,9671],[47.4,9753],[49.1,9837],[49.7,9919]]",1,0,1097.762,1104.681,14.83333333,1.333,"[{""rating"":14.833333333333332,""responseTime"":1.3329999999998563}]",space,6.389,,1104.681,Half the time,50,1104.693,,,[],,0,6,6,6,1,audio/Narrative7Situation6.wav,audio/Narrative8Situation6.wav,audio/Narrative5Situation6.wav,audio/Narrative6Situation6.wav,3,2,3,2,,,,,,,,,,,,,,,,,,,,,,,,,,,,,,,,,,,,,,,
,,,,,,63e63a16d7a7a9ceb751d456,2024-02-08_13h01.15.219,group3.1-3.2-social-tom,2023.2.2,Win32,59.95203837,65c5074098b851296ff0b7ed,65c515d23e09a7c7763786fe,,,,,,,,,,,,,,,,,,,,,,,,,,,,,1104.694,1,audio/Narrative7Situation7.wav,1109.7,,1109.7,1126.872,"[[42.5,3175],[39.5,3849],[38.6,3933],[36.8,4017],[35.1,4101],[33.7,4185],[33.4,4267],[33.4,4349],[33.4,4441],[33.4,4518],[33.4,4603],[33.4,4684],[33.4,4767],[33.4,4851],[33.4,4933],[33.4,5018],[33.4,5101],[33.4,5183],[33.4,5268],[33.4,5351],[33.4,5433],[33.4,5519],[33.4,5605],[33.4,5684],[33.4,5769],[31.3,5851],[25.4,5934],[23.8,6018],[22.9,6103],[21.5,6184],[19.9,6269],[19.9,6351],[19.9,6434],[19.9,6519],[19.9,6602],[19.9,6684],[19.9,6768],[20.1,6851],[20.3,6938],[22.5,7018],[22.8,7102],[22.8,7185],[22.8,7270],[22.8,7351],[22.8,7435],[22.8,7520],[22.8,7602],[22.8,7684],[22.8,7769],[22.8,7852],[22.8,7934],[22.8,8019],[22.8,8102],[22.8,8185],[22.8,8269],[22.8,8352],[22.8,8435],[22.8,8519],[22.8,8602],[22.8,8685],[22.8,8768],[22.8,8852],[22.8,8935],[22.8,9019],[22.8,9102],[22.8,9184],[22.8,9269],[22.8,9352],[22.8,9435],[22.8,9519],[22.8,9603],[22.8,9687],[22.8,9769],[22.8,9853],[22.8,9935],[22.8,10019],[22.8,10104],[22.8,10185],[22.8,10269],[22.8,10353],[22.8,10435],[22.8,10519],[22.8,10602],[22.8,10687],[22.8,10770],[22.8,10853],[22.8,10935],[22.8,11019],[22.8,11103],[22.8,11185],[22.8,11269],[22.8,11353],[22.8,11437],[22.8,11519],[22.8,11603],[22.8,11687],[22.8,11769],[22.8,11854],[22.8,11937],[22.8,12020],[22.8,12104],[22.8,12188],[22.8,12270],[22.8,12353],[22.8,12440],[22.8,12519],[22.8,12604],[22.8,12687],[22.8,12769],[22.8,12854],[22.8,12937],[22.8,13019],[22.8,13104],[22.8,13187],[22.8,13269],[22.8,13355],[22.8,13438],[22.8,13520],[22.8,13603],[22.8,13688],[22.8,13770],[22.8,13854],[22.8,13938],[22.8,14020],[22.8,14104],[22.8,14187],[22.8,14270],[22.8,14354],[22.8,14438],[22.8,14520],[22.8,14604],[22.8,14688],[22.8,14771],[22.8,14854],[22.8,14938],[22.8,15020],[22.8,15105],[22.8,15189],[22.8,15270],[22.8,15354],[22.8,15440],[22.8,15520],[22.8,15605],[22.8,15688],[22.8,15771],[22.8,15855],[22.8,15938],[22.8,16020],[22.8,16105],[22.8,16188],[22.8,16271],[22.8,16355],[22.8,16438],[22.8,16521],[22.8,16605],[22.8,16688],[22.8,16771],[22.8,16855],[22.8,16938],[22.8,17021],[22.8,17105]]",1,0,1126.873,1138.394,24.58333333,4.632,"[{""rating"":20.916666666666668,""responseTime"":2.5119999999999436},{""rating"":24.583333333333336,""responseTime"":4.632000000000062}]",space,10.972,,1138.394,All the time,100,1150.501,99.58333333,7.646,"[{""rating"":99.58333333333333,""responseTime"":7.645999999999958}]",space,0,7,7,7,1,audio/Narrative7Situation7.wav,audio/Narrative8Situation7.wav,audio/Narrative5Situation7.wav,audio/Narrative6Situation7.wav,5,3,4,5,,,11.576,,,,,,,,,,,,,,,,,,,,,,,,,,,,,,,,,,,,
,,,,,,63e63a16d7a7a9ceb751d456,2024-02-08_13h01.15.219,group3.1-3.2-social-tom,2023.2.2,Win32,59.95203837,65c5074098b851296ff0b7ed,65c515d23e09a7c7763786fe,,,,,,,,,,,,,,,,,,,,,,,,,,,,,1150.503,1,audio/Narrative7Situation8.wav,1152.516,,1152.516,1162.553,"[[999,0],[999,81],[999,165],[999,250],[999,331],[999,415],[999,499],[999,584],[999,665],[999,750],[999,831],[999,915],[999,1000],[999,1083],[999,1165],[999,1250],[999,1333],[999,1416],[999,1500],[999,1583],[999,1665],[999,1749],[999,1833],[999,1915],[999,2000],[999,2083],[999,2165],[999,2250],[999,2333],[999,2416],[999,2500],[999,2584],[999,2665],[999,2750],[999,2834],[999,2917],[999,3000],[50.1,3083],[47.9,3166],[47.8,3250],[47.8,3334],[47.8,3416],[47.8,3500],[47.8,3583],[47.8,3667],[47.8,3750],[47.8,3834],[47.8,3916],[47.8,4000],[47.8,4084],[47.8,4166],[47.8,4250],[47.8,4334],[45.3,4416],[38.8,4502],[38.2,4587],[34.7,4667],[32,4751],[29.5,4835],[28.8,4917],[28.4,5000],[26.5,5086],[26.3,5167],[26.3,5250],[26.3,5334],[26.3,5417],[26.3,5501],[26.3,5584],[26.3,5667],[26.3,5750],[26.3,5835],[26.3,5917],[26.3,6001],[26.3,6084],[26.3,6169],[26.3,6251],[26.3,6334],[26.3,6419],[26.3,6503],[26.3,6585],[26.3,6667],[26.3,6751],[26.3,6835],[26.3,6919],[26.3,7001],[26.3,7085],[26.3,7169],[26.3,7251],[26.3,7335],[26.3,7417],[26.3,7502],[26.3,7585],[26.3,7669],[26.3,7751],[26.3,7835],[26.3,7919],[26.3,8001],[26.3,8085],[26.3,8169],[26.3,8251],[26.3,8335],[26.3,8419],[26.3,8502],[26.3,8585],[26.3,8669],[26.3,8752],[26.3,8836],[26.3,8920],[26.3,9001],[26.3,9085],[26.3,9169],[26.3,9251],[26.3,9336],[26.3,9419],[26.3,9502],[26.3,9586],[26.3,9669],[26.3,9752],[26.3,9836],[26.3,9919],[26.3,10002]]",1,0,1162.554,1167.604,28.66666667,3.632,"[{""rating"":28.666666666666664,""responseTime"":3.632000000000062}]",space,4.51,,1167.605,All the time,100,1167.61,,,[],,0,8,8,8,1,audio/Narrative7Situation8.wav,audio/Narrative8Situation8.wav,audio/Narrative5Situation8.wav,audio/Narrative6Situation8.wav,2,3,3,5,,,,,,,,,,,,,,,,,,,,,,,,,,,,,,,,,,,,,,,
,,,,,,63e63a16d7a7a9ceb751d456,2024-02-08_13h01.15.219,group3.1-3.2-social-tom,2023.2.2,Win32,59.95203837,65c5074098b851296ff0b7ed,65c515d23e09a7c7763786fe,,,,,,,,,,,,,,,,,,,,,,,,,,,,,1167.611,1,audio/Narrative7Situation9.wav,1169.622,,1169.622,1178.26,"[[41.7,1333],[41.6,1416],[41.3,1500],[41.2,1584],[41.2,1666],[41.2,1750],[41.2,1834],[41.2,1917],[41.2,2000],[41.2,2084],[41.2,2166],[41.2,2250],[41.2,2334],[41.2,2417],[41.2,2500],[41.2,2584],[41.2,2666],[41.2,2750],[41.2,2834],[41.2,2916],[41.2,3000],[41.2,3084],[41.2,3166],[41.2,3250],[41.2,3335],[41.2,3417],[41.2,3501],[41.2,3585],[41.2,3667],[41.2,3750],[41.2,3835],[41.2,3917],[41.2,4000],[41.2,4085],[41.2,4167],[41.2,4251],[41.2,4334],[41.2,4417],[41.2,4500],[41.2,4585],[41.2,4666],[41.2,4750],[41.2,4835],[41.2,4917],[41.2,5000],[41.2,5085],[41.2,5169],[41.2,5250],[41.2,5335],[41.2,5417],[41.2,5501],[41.2,5585],[41.2,5667],[41.2,5751],[41.2,5835],[41.2,5919],[41.2,6001],[41.2,6086],[41.2,6169],[41.2,6251],[41.2,6335],[41.2,6419],[41.2,6501],[41.2,6585],[41.2,6669],[41.2,6751],[41.2,6836],[41.2,6919],[41.2,7001],[41.2,7086],[41.2,7169],[41.2,7251],[41.2,7336],[41.2,7419],[41.2,7501],[41.2,7586],[41.2,7669],[41.2,7752],[41.2,7836],[41.2,7920],[41.2,8002],[41.2,8086],[41.2,8169],[41.2,8252],[42.2,8336],[42.3,8419],[42.3,8502],[42.3,8586]]",1,0,1178.26,1181.077,49.91666667,2.177,"[{""rating"":49.916666666666664,""responseTime"":2.1770000000001346}]",space,2.265,,1181.077,Not at all,0,1181.087,,,[],,0,9,9,9,1,audio/Narrative7Situation9.wav,audio/Narrative8Situation9.wav,audio/Narrative5Situation9.wav,audio/Narrative6Situation9.wav,2,3,3,4,,,,,,,,,,,,,,,,,,,,,,,,,,,,,,,,,,,,,,,
,,,,,,63e63a16d7a7a9ceb751d456,2024-02-08_13h01.15.219,group3.1-3.2-social-tom,2023.2.2,Win32,59.95203837,65c5074098b851296ff0b7ed,65c515d23e09a7c7763786fe,,,,,,,,,,,,,,,,,,,,,,,,,,,,,1181.088,1,audio/Narrative8Situation1.wav,1186.094,,1186.095,1202.035,"[[49.8,2500],[43.7,2584],[38.8,2667],[37.2,2750],[37.1,2835],[37.1,2917],[37.1,3000],[37.1,3084],[37.1,3167],[37.1,3250],[37.1,3334],[37.1,3417],[37.1,3500],[37.1,3584],[37.1,3668],[37.1,3750],[37.1,3834],[37.1,3917],[37.1,4000],[37.1,4084],[39.8,4168],[41.2,4251],[41.3,4334],[41.3,4418],[41.3,4500],[36.6,4584],[32.2,4669],[29.4,4750],[27.1,4835],[26.6,4918],[24.9,5001],[24.4,5084],[24.4,5168],[24.4,5250],[24.4,5334],[24.4,5418],[24.4,5500],[24.4,5585],[24.4,5668],[24.4,5750],[24.4,5835],[24.4,5919],[24.4,6000],[24.4,6085],[24.4,6168],[24.4,6251],[24.5,6335],[24.5,6419],[24.5,6501],[24.5,6585],[24.5,6668],[24.5,6751],[24.5,6836],[24.5,6919],[24.5,7001],[24.5,7085],[24.5,7169],[24.5,7252],[24.5,7335],[24.5,7419],[24.5,7501],[24.5,7585],[24.5,7670],[24.5,7752],[24.5,7836],[24.5,7919],[24.5,8002],[24.5,8086],[24.5,8170],[24.5,8252],[24.5,8336],[24.5,8419],[24.5,8502],[24.5,8586],[24.5,8670],[24.5,8752],[24.5,8836],[24.5,8919],[24.5,9004],[24.5,9086],[24.5,9171],[24.5,9252],[24.5,9336],[24.5,9420],[24.5,9504],[24.5,9586],[24.5,9670],[24.5,9752],[24.5,9836],[24.5,9920],[24.5,10005],[24.5,10086],[24.5,10170],[24.5,10252],[24.5,10336],[24.5,10422],[24.5,10502],[24.5,10586],[24.5,10670],[24.5,10755],[24.5,10836],[24.5,10920],[24.5,11005],[24.5,11087],[24.5,11170],[24.5,11256],[24.5,11336],[24.5,11421],[24.5,11504],[24.5,11587],[24.5,11671],[24.5,11754],[24.5,11837],[24.5,11921],[24.5,12005],[24.5,12086],[24.5,12172],[24.5,12255],[24.5,12337],[24.5,12421],[24.5,12506],[24.5,12587],[24.5,12671],[24.5,12754],[24.5,12837],[24.5,12921],[24.5,13005],[24.5,13087],[24.5,13172],[24.5,13254],[24.5,13337],[24.5,13422],[24.5,13505],[24.5,13587],[24.5,13672],[24.5,13755],[24.5,13837],[24.5,13921],[24.5,14005],[24.5,14088],[24.5,14172],[24.5,14255],[24.5,14337],[24.5,14422],[24.5,14505],[24.5,14588],[24.5,14672],[24.5,14755],[24.5,14837],[24.5,14923],[24.5,15006],[24.5,15088],[24.5,15172],[24.5,15256],[24.5,15337],[24.5,15423],[24.5,15505],[24.5,15588],[24.5,15672],[24.5,15755],[24.5,15838],[24.5,15923]]",1,0,1202.035,1208.086,27.16666667,5.061,"[{""rating"":27.166666666666668,""responseTime"":5.061000000000149}]",space,5.52,,1208.087,Half the time,50,1208.092,,,[],,0,10,10,10,1,audio/Narrative8Situation1.wav,audio/Narrative7Situation1.wav,audio/Narrative6Situation1.wav,audio/Narrative5Situation1.wav,5,2,2,5,,,,,,,,,,,,,,,,,,,,,,,,,,,,,,,,,,,,,,,
,,,,,,63e63a16d7a7a9ceb751d456,2024-02-08_13h01.15.219,group3.1-3.2-social-tom,2023.2.2,Win32,59.95203837,65c5074098b851296ff0b7ed,65c515d23e09a7c7763786fe,,,,,,,,,,,,,,,,,,,,,,,,,,,,,1208.092,1,audio/Narrative8Situation2.wav,1211.104,,1211.104,1221.225,"[[27.5,84],[27.5,166],[27.5,250],[27.5,334],[27.5,416],[27.5,500],[27.5,583],[27.5,666],[27.5,750],[27.5,834],[27.6,916],[27.6,1000],[27.6,1084],[27.8,1168],[27.8,1250],[27.8,1334],[27.8,1418],[27.8,1500],[27.8,1584],[27.8,1666],[27.8,1750],[27.8,1834],[27.8,1916],[27.8,2000],[27.8,2085],[27.8,2168],[27.8,2250],[27.8,2334],[27.8,2418],[27.8,2500],[27.8,2584],[27.8,2668],[27.8,2750],[27.8,2835],[27.8,2918],[27.8,3002],[27.8,3086],[28.3,3169],[30.5,3252],[34.4,3335],[35,3418],[35,3501],[36.7,3585],[40.8,3668],[40.9,3750],[40.9,3835],[41.6,3919],[44.1,4001],[44.3,4085],[44.3,4168],[45,4250],[45.9,4335],[46.7,4419],[48.6,4501],[49.6,4586],[50.3,4668],[50.3,4751],[50.3,4836],[50.3,4919],[50.3,5001],[50.3,5085],[50.5,5169],[50.5,5251],[50.5,5335],[50.5,5419],[50.5,5501],[50.5,5585],[50.5,5669],[50.5,5752],[50.5,5836],[50.5,5919],[50.5,6001],[50.5,6086],[50.5,6169],[50.5,6252],[50.5,6336],[50.5,6419],[50.5,6501],[50.5,6586],[50.5,6669],[50.5,6752],[50.5,6836],[50.5,6920],[50.5,7002],[50.5,7086],[50.5,7170],[50.5,7252],[50.5,7336],[50.5,7419],[50.5,7502],[50.5,7586],[50.5,7670],[50.5,7754],[50.5,7836],[50.5,7920],[50.5,8004],[50.5,8086],[50.5,8170],[50.5,8252],[50.5,8336],[50.5,8420],[50.5,8504],[50.5,8586],[50.5,8671],[50.5,8752],[50.5,8836],[50.5,8920],[50.5,9004],[50.5,9087],[50.5,9170],[50.5,9254],[50.5,9336],[50.5,9420],[50.5,9504],[50.5,9588],[50.5,9671],[50.5,9754],[50.5,9836],[50.5,9921],[50.5,10004],[50.5,10087]]",1,0,1221.225,1222.675,50.5,0.749,"[{""rating"":50.5,""responseTime"":0.7490000000000236}]",space,0.902,,1222.675,Not at all,0,1222.685,,,[],,0,11,11,11,1,audio/Narrative8Situation2.wav,audio/Narrative7Situation2.wav,audio/Narrative6Situation2.wav,audio/Narrative5Situation2.wav,3,3,3,3,,,,,,,,,,,,,,,,,,,,,,,,,,,,,,,,,,,,,,,
,,,,,,63e63a16d7a7a9ceb751d456,2024-02-08_13h01.15.219,group3.1-3.2-social-tom,2023.2.2,Win32,59.95203837,65c5074098b851296ff0b7ed,65c515d23e09a7c7763786fe,,,,,,,,,,,,,,,,,,,,,,,,,,,,,1222.686,1,audio/Narrative8Situation3.wav,1226.694,,1226.694,1249.069,"[[52,9504],[52.9,9587],[54.3,9670],[56.8,9753],[56.8,9837],[59.3,9920],[62,10010],[64.7,10095],[67.6,10175],[67.8,10255],[70.9,10337],[74,10421],[74,10504],[74,10587],[74,10670],[74,10756],[74,10837],[74,10920],[74,11004],[74,11088],[74,11170],[74,11254],[74,11338],[74,11420],[74,11504],[74,11588],[74,11678],[74,11760],[74,11847],[74,11937],[74,12020],[74,12104],[74,12188],[74,12271],[74,12354],[74,12438],[74,12523],[74,12605],[74,12688],[74,12771],[74,12854],[74,12938],[74,13020],[74,13105],[74,13188],[74,13271],[74,13355],[74,13437],[74,13521],[74,13605],[74,13689],[74,13772],[74,13854],[74,13939],[74,14022],[74,14105],[74,14189],[74,14272],[74,14355],[74,14438],[74,14522],[74,14605],[74,14688],[74,14772],[74,14855],[74,14938],[74,15022],[74,15105],[74,15189],[74,15272],[74,15355],[74,15438],[74,15522],[74,15605],[74,15688],[74,15771],[74,15855],[74,15938],[74,16023],[74,16105],[74,16189],[74,16272],[74,16357],[74,16439],[74,16524],[74,16605],[74,16689],[74,16772],[74,16855],[74,16940],[74,17023],[74,17105],[74,17190],[74,17273],[74,17355],[74,17439],[74,17522],[74,17605],[74,17689],[74,17772],[74,17855],[74,17940],[74,18022],[74,18105],[74,18189],[74,18273],[74,18355],[74,18441],[74,18524],[74,18607],[74,18690],[74,18773],[74,18857],[74,18940],[74,19024],[74,19107],[74,19190],[74,19273],[74,19355],[74,19440],[74,19524],[74,19607],[74,19691],[74,19774],[74,19857],[74,19941],[74,20023],[74,20107],[74,20191],[74,20274],[74,20357],[74,20441],[74,20525],[74,20608],[74,20691],[74,20775],[74,20857],[74,20941],[74,21025],[74,21110],[74,21191],[74,21274],[74,21357],[74,21441],[74,21524],[74,21608],[74,21690],[74,21775],[74,21857],[74,21941],[74,22024],[74,22108],[74,22192],[74,22274],[74,22358]]",1,0,1249.07,1273.928,74.58333333,12.872,"[{""rating"":74,""responseTime"":1.58199999999988},{""rating"":74.58333333333333,""responseTime"":12.871999999999844}]",space,24.308,,1273.929,Half the time,50,1273.936,,,[],,0,12,12,12,1,audio/Narrative8Situation3.wav,audio/Narrative7Situation3.wav,audio/Narrative6Situation3.wav,audio/Narrative5Situation3.wav,4,8,5,3,,,,,,,,,,,,,,,,,,,,,,,,,,,,,,,,,,,,,,,
,,,,,,63e63a16d7a7a9ceb751d456,2024-02-08_13h01.15.219,group3.1-3.2-social-tom,2023.2.2,Win32,59.95203837,65c5074098b851296ff0b7ed,65c515d23e09a7c7763786fe,,,,,,,,,,,,,,,,,,,,,,,,,,,,,1273.937,1,audio/Narrative8Situation4.wav,1276.948,,1276.948,1291.136,"[[73.6,752],[50.3,830],[29.1,915],[28.7,998],[28.6,1080],[28.6,1163],[28.6,1248],[28.6,1331],[28.6,1414],[28.6,1498],[28.6,1581],[28.6,1664],[28.6,1749],[28.6,1831],[28.6,1914],[28.6,1998],[28.6,2081],[28.6,2165],[28.6,2249],[28.6,2333],[28.6,2414],[28.6,2499],[28.6,2583],[28.6,2665],[28.6,2749],[28.6,2836],[28.6,2914],[28.6,2999],[28.6,3081],[28.6,3166],[28.6,3249],[28.6,3331],[28.6,3415],[28.6,3499],[28.6,3583],[28.6,3665],[28.6,3750],[28.6,3831],[28.6,3915],[28.6,4000],[28.6,4083],[28.6,4165],[28.6,4249],[28.6,4333],[28.6,4415],[28.6,4500],[28.6,4581],[28.6,4665],[28.6,4749],[28.6,4833],[28.6,4915],[28.6,5000],[28.6,5083],[28.6,5165],[28.6,5250],[28.6,5333],[28.6,5415],[28.6,5500],[28.6,5583],[28.6,5665],[28.6,5750],[28.6,5834],[28.6,5916],[28.6,6000],[28.6,6083],[28.6,6166],[28.6,6250],[28.6,6334],[28.6,6415],[28.6,6500],[28.6,6583],[28.6,6666],[28.6,6750],[28.6,6833],[28.6,6916],[28.6,7000],[28.6,7084],[28.6,7166],[28.6,7250],[28.6,7334],[28.6,7416],[28.6,7500],[28.6,7584],[28.6,7666],[28.6,7750],[28.6,7834],[28.6,7916],[28.6,8000],[28.6,8084],[28.6,8166],[28.6,8250],[28.6,8334],[28.6,8417],[28.6,8500],[28.6,8584],[28.6,8666],[28.6,8750],[28.6,8834],[28.6,8917],[28.6,9000],[28.6,9085],[28.6,9167],[28.6,9250],[28.6,9334],[28.6,9417],[28.6,9500],[28.6,9584],[28.6,9667],[28.6,9750],[28.6,9835],[28.6,9917],[28.6,10001],[28.6,10085],[28.6,10167],[28.6,10250],[28.6,10335],[28.6,10417],[28.6,10501],[28.6,10585],[28.6,10667],[28.6,10751],[28.6,10835],[28.6,10917],[28.6,11001],[28.6,11085],[28.6,11167],[28.6,11251],[28.6,11335],[28.6,11417],[28.6,11501],[28.6,11585],[28.6,11668],[28.6,11752],[28.6,11835],[28.6,11918],[28.6,12001],[28.6,12086],[28.6,12168],[28.6,12251],[28.6,12336],[28.6,12418],[28.6,12501],[28.6,12586],[28.6,12670],[28.6,12752],[28.6,12836],[28.6,12918],[28.6,13002],[28.6,13086],[28.6,13170],[28.6,13251],[28.6,13336],[28.6,13418],[28.6,13502],[28.6,13586],[28.6,13668],[28.6,13752],[28.6,13836],[28.6,13920],[31.5,14006],[37.1,14086],[37.3,14170]]",1,0,1291.136,1300.055,37.08333333,8.389,"[{""rating"":48.41666666666667,""responseTime"":2.3379999999999654},{""rating"":37.083333333333336,""responseTime"":8.33199999999988},{""rating"":37.083333333333336,""responseTime"":8.388999999999896}]",space,8.37,,1300.055,All the time,100,1300.069,,,[],,0,13,13,13,1,audio/Narrative8Situation4.wav,audio/Narrative7Situation4.wav,audio/Narrative6Situation4.wav,audio/Narrative5Situation4.wav,3,3,2,1,,,,,,,,,,,,,,,,,,,,,,,,,,,,,,,,,,,,,,,
,,,,,,63e63a16d7a7a9ceb751d456,2024-02-08_13h01.15.219,group3.1-3.2-social-tom,2023.2.2,Win32,59.95203837,65c5074098b851296ff0b7ed,65c515d23e09a7c7763786fe,,,,,,,,,,,,,,,,,,,,,,,,,,,,,1300.07,1,audio/Narrative8Situation5.wav,1302.073,,1302.073,1310.326,"[[36.8,4250],[36.8,4334],[36.8,4417],[36.8,4500],[36.8,4585],[36.8,4666],[36.8,4750],[36.8,4834],[36.8,4917],[36.8,5000],[36.8,5084],[36.8,5166],[36.8,5250],[36.8,5335],[36.8,5416],[36.8,5500],[36.8,5586],[36.8,5667],[36.8,5750],[36.8,5834],[36.8,5918],[36.8,6000],[36.8,6085],[36.8,6167],[36.8,6251],[36.8,6335],[36.8,6417],[36.8,6500],[36.8,6586],[36.8,6667],[36.8,6751],[36.8,6835],[36.8,6918],[36.8,7001],[36.8,7086],[36.8,7168],[36.8,7250],[36.8,7335],[36.8,7417],[36.8,7501],[36.8,7587],[36.8,7668],[36.8,7751],[36.8,7836],[36.8,7918],[36.8,8001],[36.8,8085],[36.8,8168],[36.8,8251]]",1,0,1310.326,1312.877,0.083333333,1.81,"[{""rating"":0.08333333333333526,""responseTime"":1.8099999999999454}]",space,2.017,,1312.877,All the time,100,1312.881,,,[],,0,14,14,14,1,audio/Narrative8Situation5.wav,audio/Narrative7Situation5.wav,audio/Narrative6Situation5.wav,audio/Narrative5Situation5.wav,2,5,2,5,,,,,,,,,,,,,,,,,,,,,,,,,,,,,,,,,,,,,,,
,,,,,,63e63a16d7a7a9ceb751d456,2024-02-08_13h01.15.219,group3.1-3.2-social-tom,2023.2.2,Win32,59.95203837,65c5074098b851296ff0b7ed,65c515d23e09a7c7763786fe,,,,,,,,,,,,,,,,,,,,,,,,,,,,,1312.881,1,audio/Narrative8Situation6.wav,1314.894,,1314.894,1321.364,"[[26.7,584],[32.4,667],[32.9,750],[33.2,833],[35.3,920],[38.2,1000],[41.5,1086],[49,1167],[62,1251],[62.1,1333],[62.1,1417],[62.1,1500],[62.1,1584],[62.1,1667],[61.7,1750],[59.5,1834],[57,1917],[52.4,2000],[50.5,2085],[48.7,2167],[47.5,2250],[46.3,2334],[45.8,2417],[45.8,2500],[45.8,2583],[46.8,2668],[46.8,2750],[47.1,2834],[48.3,2918],[48.3,3000],[48.3,3084],[48.3,3167],[48.3,3250],[48.3,3334],[48.3,3418],[48.3,3503],[48.3,3584],[48.3,3668],[48.3,3750],[48.3,3835],[48.3,3918],[48.3,4000],[48.3,4085],[48.3,4168],[48.3,4250],[48.3,4335],[48.3,4418],[48.3,4500],[48.2,4585],[45.7,4668],[42,4753],[37.5,4835],[33.4,4921],[29.2,5000],[28.3,5084],[28.3,5168],[27.9,5251],[27.5,5336],[27.5,5418],[27.5,5500],[27.5,5584],[27.5,5668],[27.5,5753],[27.5,5835],[27.5,5918],[27.5,6001],[27.5,6086],[27.5,6169],[27.5,6251],[27.5,6335],[27.5,6419]]",1,0,1321.364,1328.966,30.08333333,4.449,"[{""rating"":30.083333333333336,""responseTime"":4.449000000000069}]",space,7.054,,1328.966,Half the time,50,1328.973,,,[],,0,15,15,15,1,audio/Narrative8Situation6.wav,audio/Narrative7Situation6.wav,audio/Narrative6Situation6.wav,audio/Narrative5Situation6.wav,2,3,2,3,,,,,,,,,,,,,,,,,,,,,,,,,,,,,,,,,,,,,,,
,,,,,,63e63a16d7a7a9ceb751d456,2024-02-08_13h01.15.219,group3.1-3.2-social-tom,2023.2.2,Win32,59.95203837,65c5074098b851296ff0b7ed,65c515d23e09a7c7763786fe,,,,,,,,,,,,,,,,,,,,,,,,,,,,,1328.973,1,audio/Narrative8Situation7.wav,1331.984,,1331.984,1344.072,"[[999,0],[999,83],[999,165],[999,250],[999,332],[999,415],[999,501],[999,583],[999,665],[999,750],[999,834],[999,916],[47,1000],[46.7,1083],[46.6,1167],[46.3,1250],[46.3,1332],[46.3,1415],[46.3,1500],[46.3,1582],[46.3,1665],[46.3,1750],[46.3,1833],[46.3,1916],[46.3,2000],[46.3,2083],[46.3,2166],[46.3,2250],[46.3,2333],[46.3,2416],[46.3,2500],[46.3,2583],[46.3,2667],[46.3,2750],[46.3,2834],[46.3,2916],[46.3,3000],[46.3,3083],[46.3,3166],[46.3,3250],[46.3,3333],[46.3,3416],[46.3,3500],[46.3,3582],[46.3,3666],[46.3,3750],[46.3,3833],[46.3,3917],[46.3,4000],[46.3,4083],[46.3,4166],[46.3,4250],[46.3,4334],[46.3,4417],[46.3,4500],[46.3,4583],[46.3,4666],[46.3,4750],[46.3,4834],[46.3,4917],[46.3,5000],[46.3,5083],[46.3,5167],[45.4,5251],[44,5334],[41.7,5418],[39.3,5500],[39.1,5584],[39,5667],[33.8,5751],[29.4,5834],[29.4,5918],[29.4,6000],[29.4,6084],[29.4,6167],[29.4,6251],[29.4,6334],[29.4,6417],[29.4,6501],[29.4,6584],[29.4,6667],[29.4,6751],[29.4,6834],[29.4,6917],[29.4,7001],[29.4,7084],[29.4,7168],[29.4,7251],[29.4,7334],[29.4,7418],[29.4,7501],[29.4,7586],[29.4,7667],[29.4,7751],[29.4,7834],[29.4,7918],[29.4,8002],[29.4,8084],[29.4,8169],[29.4,8251],[29.4,8334],[29.4,8418],[29.4,8501],[29.4,8586],[29.4,8668],[29.4,8751],[29.4,8836],[29.4,8918],[29.4,9002],[29.4,9086],[29.4,9168],[29.4,9251],[29.4,9336],[29.4,9419],[29.4,9502],[29.4,9586],[29.4,9668],[29.4,9752],[29.4,9836],[29.4,9919],[29.4,10003],[29.4,10086],[29.4,10170],[29.4,10252],[29.4,10336],[29.4,10419],[29.4,10502],[29.4,10586],[29.4,10669],[29.4,10754],[29.4,10836],[29.4,10919],[29.4,11003],[31.1,11086],[36.3,11170],[37.1,11254],[37.2,11336],[38.2,11419],[39.2,11502],[41.7,11588],[44.7,11672],[47.8,11756],[50,11838],[50.8,11920],[51.6,12002],[54.1,12087]]",1,0,1344.073,1348.156,63.83333333,1.263,"[{""rating"":63.83333333333333,""responseTime"":1.26299999999992}]",space,3.535,,1348.156,Not at all,0,1348.163,,,[],,0,16,16,16,1,audio/Narrative8Situation7.wav,audio/Narrative7Situation7.wav,audio/Narrative6Situation7.wav,audio/Narrative5Situation7.wav,3,5,5,4,,,,,,,,,,,,,,,,,,,,,,,,,,,,,,,,,,,,,,,
,,,,,,63e63a16d7a7a9ceb751d456,2024-02-08_13h01.15.219,group3.1-3.2-social-tom,2023.2.2,Win32,59.95203837,65c5074098b851296ff0b7ed,65c515d23e09a7c7763786fe,,,,,,,,,,,,,,,,,,,,,,,,,,,,,1348.164,1,audio/Narrative8Situation8.wav,1351.175,,1351.176,1364.03,"[[59.2,500],[43.8,584],[39,664],[39,747],[39,832],[39,915],[39,998],[39,1081],[39,1164],[39,1247],[39,1331],[39,1414],[39,1498],[39,1581],[39,1665],[39,1748],[39,1831],[39,1914],[39,1998],[39,2081],[39,2165],[39,2248],[39,2331],[39,2414],[39,2498],[39,2581],[39,2665],[39,2748],[39,2832],[39,2914],[39,2998],[39,3082],[39,3165],[39,3248],[39,3334],[39,3415],[39,3500],[39,3582],[39,3666],[39,3748],[39,3832],[39,3916],[39,4000],[39,4081],[39,4165],[39,4250],[39,4332],[39,4416],[39,4500],[39,4582],[39,4665],[39,4750],[39,4832],[39,4916],[39,5000],[39,5082],[39,5166],[39,5250],[39,5333],[39,5416],[39,5500],[39,5582],[39,5666],[39,5750],[39,5834],[39,5915],[39,6003],[39,6086],[39,6166],[39,6250],[39,6334],[39,6416],[39,6500],[39,6583],[39,6666],[39,6750],[39,6834],[39,6916],[39,7002],[39,7087],[39,7168],[39,7250],[39,7333],[39,7416],[39,7501],[39,7587],[39,7667],[39,7750],[39,7833],[39,7917],[39,8001],[39,8083],[39,8167],[39,8250],[39,8333],[39,8417],[39,8500],[39,8583],[39,8669],[39,8756],[39,8836],[39,8917],[39,9002],[39,9084],[39,9167],[39,9250],[39,9334],[39,9417],[39,9501],[39,9584],[39,9667],[39,9752],[39,9834],[39,9918],[39,10002],[39,10084],[39,10167],[39,10251],[39,10334],[39,10418],[39,10501],[39,10584],[39,10668],[39,10751],[39,10834],[39,10918],[39,11001],[39,11084],[39,11170],[39,11252],[39,11336],[39,11418],[39,11501],[39,11586],[39,11668],[39,11752],[39,11836],[39,11918],[39,12003],[39,12086],[39,12168],[39,12252],[39,12336],[39,12418],[39,12501],[39,12586],[39,12669],[39,12752],[39,12837]]",1,0,1364.031,1366.813,27.08333333,2.259,"[{""rating"":27.083333333333336,""responseTime"":2.2590000000000146}]",space,2.232,,1366.813,All the time,100,1366.821,,,[],,0,17,17,17,1,audio/Narrative8Situation8.wav,audio/Narrative7Situation8.wav,audio/Narrative6Situation8.wav,audio/Narrative5Situation8.wav,3,2,5,3,,,,,,,,,,,,,,,,,,,,,,,,,,,,,,,,,,,,,,,
,,,,,,63e63a16d7a7a9ceb751d456,2024-02-08_13h01.15.219,group3.1-3.2-social-tom,2023.2.2,Win32,59.95203837,65c5074098b851296ff0b7ed,65c515d23e09a7c7763786fe,,,,,,,,,,,,,,,,,,,,,,,,,,,,,1366.822,1,audio/Narrative8Situation9.wav,1369.831,,1369.831,1381.152,"[[29.2,1336],[33.3,1418],[33.8,1500],[34.1,1583],[34.1,1668],[34.1,1750],[34.1,1835],[34.1,1916],[34.1,2000],[34.1,2083],[34.1,2167],[34.1,2250],[34.1,2333],[34.1,2417],[34.1,2500],[34.1,2585],[34.1,2667],[34.1,2750],[34.1,2835],[34.1,2917],[34.1,3001],[34.1,3085],[34.1,3167],[34.1,3250],[34.1,3336],[34.1,3417],[34.1,3501],[34.1,3585],[34.2,3668],[40.4,3752],[43,3835],[47.1,3918],[47.8,4002],[48.7,4085],[48.8,4167],[49.8,4253],[49.8,4335],[49.8,4418],[49.8,4501],[49.8,4585],[49.8,4668],[49.8,4751],[49.8,4836],[49.8,4918],[49.8,5001],[49.8,5085],[49.8,5168],[49.8,5251],[49.8,5336],[49.8,5418],[49.8,5501],[49.8,5586],[49.8,5668],[49.8,5751],[49.8,5836],[49.8,5917],[49.8,6002],[49.8,6086],[49.8,6168],[49.8,6251],[49.8,6336],[49.8,6418],[49.8,6502],[49.8,6586],[49.8,6668],[49.8,6752],[49.8,6836],[49.8,6918],[49.8,7002],[49.8,7086],[49.8,7169],[49.8,7251],[49.8,7336],[49.8,7419],[49.8,7502],[49.8,7586],[49.8,7669],[49.8,7754],[49.8,7837],[49.8,7920],[49.8,8002],[49.8,8087],[49.8,8170],[49.8,8253],[49.8,8337],[49.8,8420],[49.8,8503],[49.8,8587],[49.8,8670],[49.8,8752],[49.8,8836],[49.8,8919],[49.8,9003],[49.8,9086],[49.8,9169],[49.8,9253],[47.1,9336],[32.4,9425],[23.4,9503],[22.1,9586],[20.8,9672],[14.9,9754],[14.9,9837],[14.9,9920],[14.9,10003],[14.9,10086],[14.9,10170],[14.9,10253],[14.9,10341],[14.9,10427],[14.9,10509],[14.9,10600],[14.9,10670],[14.9,10753],[14.9,10837],[14.9,10920],[14.9,11003],[14.9,11087],[14.9,11170],[14.9,11254]]",1,0,1381.153,1382.453,14.91666667,0.531,"[{""rating"":14.916666666666668,""responseTime"":0.4249999999999545},{""rating"":14.916666666666668,""responseTime"":0.5309999999999491}]",space,0.753,,1382.453,All the time,100,1382.457,,,[],,0,18,18,18,1,audio/Narrative8Situation9.wav,audio/Narrative7Situation9.wav,audio/Narrative6Situation9.wav,audio/Narrative5Situation9.wav,3,2,4,3,,,,,,,,,,,,,,,,,,,,,,,,,,,,,,,,,,,,,,,
,,,,,,63e63a16d7a7a9ceb751d456,2024-02-08_13h01.15.219,group3.1-3.2-social-tom,2023.2.2,Win32,59.95203837,65c5074098b851296ff0b7ed,65c515d23e09a7c7763786fe,,,,,,,,,,,,,,,,,,,,,,,,,,,1408.636,1411.214,1411.229,2,audio/Narrative13Situation2.wav,1411.23,,1411.23,1440.976,"[[46.5,817],[42.6,1237],[42.8,1317],[42.9,1401],[42.9,1484],[42.9,1567],[42.9,1651],[42.9,1734],[42.9,1817],[43.6,1902],[44.1,1984],[44.6,2068],[46.2,2152],[46.7,2234],[47.6,2318],[50.4,2401],[52.5,2484],[52.8,2567],[52.9,2651],[53.2,2734],[53.2,2817],[53.2,2902],[53.2,2985],[53.2,3068],[53.2,3151],[53.2,3235],[53.2,3317],[53.2,3403],[53.2,3485],[53.2,3567],[53.2,3652],[53.2,3735],[53.2,3818],[53.2,3902],[53.2,3985],[53.2,4067],[53.2,4152],[53.2,4235],[53.2,4318],[53.2,4402],[53.2,4485],[52.9,4568],[52.8,4652],[52.6,4736],[52.6,4818],[52.1,4903],[50.5,4987],[50.3,5068],[50.3,5152],[50.3,5236],[50.3,5317],[47.9,5403],[43.3,5489],[0.8,6319],[3.2,6403],[5.1,6486],[5.1,6568],[5.3,6652],[4.8,6736],[3.2,6818],[2.8,6903],[2.8,6986],[2.3,7072],[1.8,7153],[0.1,7237],[0.1,7319],[0.1,7403],[0.1,7486],[0.1,7568],[0.1,7653],[0.1,7736],[0.1,7819],[0.1,7903],[0.1,7987],[0.1,8069],[0.1,8153],[0.1,8238],[0.1,8319],[0.1,8403],[0.1,8487],[0.1,8569],[0.1,8653],[0.1,8737],[0.1,8819],[0.1,8903],[0.1,8987],[0.1,9071],[0.1,9153],[0.1,9237],[0.1,9319],[0.1,9403],[0.1,9487],[0.1,9569],[0.1,9653],[0.1,9737],[0.1,9819],[0.1,9903],[0.1,9987],[0.1,10071],[0.1,10153],[0.1,10238],[0.1,10319],[0.1,10403],[0.1,10489],[0.1,10571],[0.1,10654],[0.1,10737],[0.1,10821],[0.1,10903],[0.1,10988],[0.1,11072],[0.1,11153],[0.1,11238],[0.1,11321],[0.1,11403],[0.1,11488],[0.1,11571],[0.1,11654],[0.1,11738],[0.1,11821],[0.1,11904],[0.1,11988],[0.1,12071],[0.1,12153],[0.1,12238],[0.1,12321],[0.1,12404],[0.1,12488],[0.1,12571],[0.1,12654],[0.1,12738],[0.1,12822],[0.1,12904],[0.1,12989],[0.1,13071],[0.1,13154],[0.1,13238],[0.1,13322],[0.1,13404],[0.1,13488],[0.1,13572],[0.1,13654],[0.1,13739],[0.1,13822],[0.1,13904],[0.1,13989],[0.1,14072],[0.1,14154],[0.1,14239],[0.1,14323],[0.1,14404],[0.1,14489],[0.1,14572],[0.1,14654],[0.1,14739],[0.1,14822],[0.1,14905],[0.1,14989],[0.1,15072],[0.1,15155],[0.1,15239],[0.1,15323],[0.1,15405],[0.1,15489],[0.1,15573],[0.1,15655],[0.1,15739],[0.1,15823],[0.1,15905],[0.1,15989],[0.1,16073],[0.1,16155],[0.1,16239],[0.1,16323],[0.1,16405],[0.1,16489],[0.1,16573],[0.1,16657],[0.1,16739],[0.1,16823],[0.1,16905],[0.1,16990],[0.1,17073],[0.1,17157],[0.1,17240],[0.1,17323],[0.1,17407],[0.1,17490],[0.1,17573],[0.1,17657],[0.1,17740],[0.1,17823],[0.1,17907],[0.1,17992],[0.1,18074],[0.1,18157],[0.1,18240],[0.1,18324],[0.1,18408],[0.1,18490],[0.1,18574],[0.1,18657],[0.1,18740],[0.1,18824],[0.1,18908],[0.1,18990],[0.1,19074],[0.1,19157],[0.1,19240],[0.1,19324],[0.1,19408],[0.1,19491],[0.1,19574],[0.1,19657],[0.1,19740],[0.1,19825],[0.1,19908],[0.1,19990],[0.1,20075],[0.1,20158],[0.1,20240],[0.1,20324],[0.1,20408],[0.1,20490],[0.1,20575],[0.1,20658],[0.1,20740],[0.1,20825],[0.1,20908],[0.1,20990],[0.1,21075],[0.1,21158],[0.1,21241],[0.1,21325],[0.1,21408],[0.1,21490],[0.1,21575],[0.1,21659],[0.1,21741],[0.1,21825],[0.1,21908],[0.1,21991],[0.1,22076],[0.1,22158],[0.1,22241],[0.1,22325],[0.1,22408],[0.1,22491],[0.1,22576],[0.1,22659],[0.1,22741],[0.1,22825],[0.1,22908],[0.1,22992],[0.1,23077],[0.1,23159],[0.1,23241],[0.1,23325],[0.1,23409],[0.1,23492],[0.1,23576],[0.1,23659],[0.1,23742],[0.1,23825],[0.1,23910],[0.1,23991],[0.1,24077],[0.1,24160],[0.1,24242],[0.1,24327],[0.1,24410],[0.1,24492],[0.1,24577],[0.1,24660],[0.1,24741],[0.1,24826],[0.1,24910],[0.1,24992],[0.1,25077],[0.1,25160],[0.1,25244],[0.1,25327],[0.1,25410],[0.1,25494],[0.1,25576],[0.1,25660],[2.1,25744],[4.1,25826],[9.1,25911],[14.4,25994],[21.8,26077],[24.1,26161],[29.3,26244],[34.6,26327],[35.9,26410],[37,26494],[37,26577],[37,26660],[37,26744],[37,26827],[37,26911],[37,26992],[37,27077],[37,27161],[37,27244],[37,27327],[37,27411],[37,27492],[37,27577],[37,27660],[37,27744],[37,27827],[37,27911],[37,27994],[37,28077],[37,28161],[37,28244],[37,28327],[37,28411],[37,28495],[37,28577],[37,28661],[37,28745],[37,28827],[37,28911],[37,28994],[37,29078],[37,29162],[37,29245],[28.3,29327],[20.9,29412],[20.9,29494],[20.9,29577],[20.9,29661],[20.9,29745]]",1,0,1440.978,1440.985,,,[],,,,1440.985,Not at all,0,1440.99,,,[],,0,0,0,0,1,audio/Narrative13Situation2.wav,audio/Narrative13Situation2.wav,audio/Narrative13Situation2.wav,audio/Narrative13Situation2.wav,2,2,2,2,,,,,1382.457,1408.632,space,25.649,,,,,,,,,,,,,,,,,,,,,,,,,,,,,,,
,,,,,,63e63a16d7a7a9ceb751d456,2024-02-08_13h01.15.219,group3.1-3.2-social-tom,2023.2.2,Win32,59.95203837,65c5074098b851296ff0b7ed,65c515d23e09a7c7763786fe,,,,,,,,,,,,,,,,,,,,,,,,,,,,,1440.99,2,audio/Narrative5Situation1.wav,1445.994,,1445.994,1459.282,"[[20.8,1082],[20.8,1166],[20.5,1250],[20.5,1332],[20.5,1416],[20.5,1500],[20.5,1583],[20.5,1666],[20.5,1750],[20.5,1832],[20.5,1915],[20.5,2000],[20.5,2083],[20.5,2166],[20.5,2250],[20.3,2332],[20.3,2416],[20.3,2500],[20.3,2583],[20.3,2666],[20.3,2750],[20.3,2832],[20.3,2916],[20.3,3000],[20.3,3083],[20.3,3166],[20.3,3250],[20.3,3333],[20.3,3417],[20.3,3500],[20.3,3585],[20.3,3666],[20.3,3750],[20.3,3833],[20.3,3917],[20.3,4000],[20.3,4083],[20.3,4167],[20.3,4250],[20.3,4335],[20.3,4417],[20.3,4500],[20.3,4586],[20.3,4667],[20.3,4750],[20.3,4836],[20.3,4917],[20.3,5001],[20.3,5083],[20.3,5167],[20.3,5251],[20.3,5335],[20.3,5416],[20.3,5500],[20.3,5585],[20.3,5667],[20.3,5751],[20.3,5835],[20.3,5918],[20.3,6001],[20.3,6085],[20.3,6167],[20.3,6251],[20.3,6336],[20.3,6418],[20.3,6501],[20.3,6585],[20.3,6668],[20.3,6751],[20.3,6835],[20.3,6918],[20.3,7001],[20.3,7086],[20.3,7168],[20.3,7251],[20.3,7335],[20.3,7418],[20.3,7501],[20.3,7586],[20.3,7668],[20.3,7752],[20.3,7835],[20.3,7918],[20.3,8001],[20.3,8086],[20.3,8168],[20.3,8252],[20.3,8336],[20.3,8418],[20.3,8504],[20.3,8586],[20.3,8668],[20.3,8753],[20.3,8836],[20.3,8919],[20.3,9002],[20.3,9086],[20.3,9169],[20.3,9252],[20.3,9336],[20.3,9419],[20.3,9503],[20.3,9586],[20.3,9668],[20.3,9752],[20.3,9836],[20.3,9919],[20.3,10003],[20.3,10086],[20.3,10169],[20.3,10252],[20.3,10336],[20.3,10419],[20.3,10505],[20.3,10586],[20.3,10670],[20.3,10755],[20.3,10836],[20.3,10920],[20.3,11004],[20.3,11086],[20.3,11169],[20.3,11253],[20.3,11336],[20.3,11420],[20.3,11503],[20.3,11586],[20.3,11669],[20.3,11754],[20.3,11837],[20.3,11919],[20.3,12003],[20.3,12086],[20.3,12170],[20.3,12253],[20.3,12337],[20.3,12419],[20.3,12503],[20.3,12587],[20.3,12670],[20.3,12754],[20.3,12836],[20.3,12920],[20.3,13003],[20.3,13087],[20.3,13170],[20.3,13254]]",1,0,1459.283,1467.502,50.08333333,7.491,"[{""rating"":50.083333333333336,""responseTime"":7.4909999999999854}]",space,7.668,,1467.502,Not at all,0,1467.508,,,[],,0,1,1,1,1,audio/Narrative7Situation1.wav,audio/Narrative8Situation1.wav,audio/Narrative5Situation1.wav,audio/Narrative6Situation1.wav,2,5,5,2,,,,,,,,,,,,,,,,,,,,,,,,,,,,,,,,,,,,,,,
,,,,,,63e63a16d7a7a9ceb751d456,2024-02-08_13h01.15.219,group3.1-3.2-social-tom,2023.2.2,Win32,59.95203837,65c5074098b851296ff0b7ed,65c515d23e09a7c7763786fe,,,,,,,,,,,,,,,,,,,,,,,,,,,,,1467.508,2,audio/Narrative5Situation2.wav,1470.52,,1470.52,1499.981,"[[49.2,1000],[44.9,1585],[44.9,1667],[44.6,1749],[44,1838],[38.3,1917],[30.1,2000],[29,2084],[29,2167],[29,2250],[29,2334],[29,2417],[29,2500],[29,2584],[29,2667],[29,2750],[29,2834],[29,2917],[29,3000],[29,3084],[29,3168],[29,3250],[29,3334],[29,3417],[29,3500],[29,3584],[29,3670],[29,3750],[29,3834],[29,3918],[29,4000],[29,4084],[29,4168],[29,4250],[29,4334],[29,4418],[29,4500],[29,4584],[29,4669],[29,4752],[29,4834],[29,4919],[29,5000],[29,5085],[29,5168],[29,5250],[29,5335],[29,5417],[29,5500],[29,5585],[29,5668],[29,5752],[29,5835],[29,5919],[29,6000],[29,6084],[29,6169],[29,6252],[29,6335],[29,6418],[29,6500],[29,6585],[29,6669],[29,6752],[29,6836],[29,6918],[29,7002],[29,7085],[29,7169],[29,7252],[29,7336],[29,7420],[29,7502],[29,7586],[29,7669],[29,7752],[29,7835],[29,7920],[29,8002],[29,8086],[29,8169],[29,8252],[29,8336],[29,8420],[29,8502],[29,8586],[29,8669],[29,8753],[29,8836],[29,8919],[29,9003],[29,9086],[29,9169],[29,9253],[29,9336],[29,9420],[29,9503],[29,9586],[29,9670],[29,9753],[29,9836],[29,9919],[29,10003],[29,10086],[29,10170],[29,10253],[29,10336],[29,10420],[29,10503],[29,10586],[29,10670],[29,10753],[29,10836],[29,10920],[29,11003],[29,11086],[29,11170],[29,11254],[29,11336],[29,11420],[29,11503],[29,11586],[29,11672],[29,11754],[29,11836],[29,11920],[29,12004],[29,12086],[29,12171],[29,12254],[29,12336],[29,12420],[29,12504],[29,12588],[29,12671],[29,12754],[29,12836],[29,12921],[29,13004],[29,13089],[29,13171],[29,13256],[29,13339],[29,13421],[29,13505],[29,13586],[29,13671],[29,13754],[29,13838],[29,13921],[29,14005],[29,14086],[29,14172],[29,14255],[29,14339],[29,14422],[29,14505],[29,14589],[29,14672],[29,14756],[29,14838],[29,14922],[29,15005],[29,15089],[29,15172],[29,15256],[29,15339],[29,15422],[29,15505],[29,15588],[29,15673],[29,15756],[29,15839],[29,15922],[29,16006],[29,16088],[29,16172],[29,16256],[29,16339],[29,16423],[29,16505],[29,16589],[29,16673],[29,16756],[29,16840],[29,16923],[29,17006],[29,17089],[29,17173],[29,17256],[29,17339],[29,17422],[29,17506],[29,17589],[29,17673],[29,17756],[29,17840],[29,17923],[29,18006],[29,18090],[29,18173],[29,18257],[29,18339],[29.7,18423],[32.5,18508],[34,18590],[38.3,18676],[41.8,18758],[45.3,18840],[46.3,18923],[48.4,19007],[48.8,19090],[48.8,19173],[48.8,19257],[49.3,19340],[49.3,19423],[49.3,19507],[49.3,19591],[49.3,19673],[49.3,19757],[49.3,19840],[49.3,19923],[49.3,20007],[49.3,20090],[49.3,20173],[49.3,20257],[49.3,20341],[49.3,20423],[49.3,20508],[49.3,20590],[49.3,20676],[49.3,20757],[49.3,20841],[49.3,20923],[49.3,21008],[49.3,21090],[49.3,21173],[49.2,21258],[49.2,21341],[49.2,21423],[49.2,21508],[49.2,21591],[49.2,21673],[49.2,21758],[49.1,21841],[49.1,21923],[49.1,22008],[49.1,22091],[49.1,22175],[49.1,22258],[49.1,22342],[49.1,22423],[49.1,22507],[49.1,22591],[49.1,22673],[49.1,22758],[49.1,22842],[49.1,22923],[49.1,23008],[49.1,23092],[49.1,23175],[49.1,23259],[49.1,23341],[49.1,23425],[49.1,23508],[49.1,23592],[49.1,23675],[49.1,23759],[49.1,23842],[48.8,23925],[48.8,24009],[48.8,24092],[48.8,24179],[48.8,24259],[48.8,24342],[48.8,24425],[48.8,24509],[48.8,24592],[48.8,24676],[48.8,24759],[48.8,24843],[48.8,24926],[48.8,25009],[48.8,25092],[48.8,25175],[48.8,25259],[48.8,25342],[48.8,25426],[48.8,25509],[48.8,25593],[48.8,25676],[48.8,25759],[48.8,25843],[48.8,25926],[48.8,26009],[48.8,26093],[48.8,26176],[48.8,26259],[48.8,26342],[48.8,26426],[48.8,26509],[48.8,26593],[48.8,26676],[48.8,26759],[48.8,26843],[48.8,26927],[48.8,27009],[48.8,27093],[48.8,27176],[48.8,27259],[48.8,27343],[48.8,27426],[48.8,27509],[48.8,27593],[48.8,27677],[48.8,27759],[48.8,27844],[48.8,27926],[48.8,28009],[48.8,28093],[48.8,28177],[48.8,28259],[48.8,28343],[48.8,28428],[48.8,28511],[48.8,28594],[48.8,28676],[48.8,28759],[48.8,28843],[48.8,28927],[48.8,29011],[48.8,29094],[48.8,29178],[48.8,29259],[48.8,29344],[49.6,29427]]",1,0,1499.982,1503.282,70.75,2.307,"[{""rating"":70.75,""responseTime"":2.3070000000000164}]",space,2.752,,1503.282,Half the time,50,1503.292,,,[],,0,2,2,2,1,audio/Narrative7Situation2.wav,audio/Narrative8Situation2.wav,audio/Narrative5Situation2.wav,audio/Narrative6Situation2.wav,3,3,3,3,,,,,,,,,,,,,,,,,,,,,,,,,,,,,,,,,,,,,,,
,,,,,,63e63a16d7a7a9ceb751d456,2024-02-08_13h01.15.219,group3.1-3.2-social-tom,2023.2.2,Win32,59.95203837,65c5074098b851296ff0b7ed,65c515d23e09a7c7763786fe,,,,,,,,,,,,,,,,,,,,,,,,,,,,,1503.293,2,audio/Narrative5Situation3.wav,1506.3,,1506.3,1520.222,"[[67.1,751],[57.9,833],[46.6,918],[42,1002],[42,1083],[42,1166],[42,1251],[42,1333],[42,1417],[42,1501],[42,1584],[42,1667],[42,1751],[42,1833],[42,1917],[42,2001],[42,2084],[42,2167],[42,2251],[42,2334],[42,2417],[42,2501],[42,2585],[42,2668],[42,2750],[42,2834],[42,2918],[42,3000],[42,3084],[42,3168],[42,3252],[42,3335],[42,3417],[42,3504],[42,3585],[42,3667],[42,3752],[42,3835],[42,3918],[42,4001],[42,4085],[42,4168],[42,4252],[42,4335],[42,4418],[42,4501],[42,4585],[42,4668],[42,4751],[42,4835],[42,4918],[42,5002],[42,5085],[42,5169],[42,5252],[42,5335],[42,5418],[42,5501],[42,5585],[42,5668],[42,5752],[42,5835],[42,5918],[42,6002],[41.9,6087],[41.9,6169],[41.9,6252],[41.9,6335],[41.9,6419],[41.9,6502],[41.9,6585],[41.9,6669],[41.9,6753],[41.9,6836],[41.9,6918],[41.9,7003],[41.9,7086],[41.9,7169],[41.9,7252],[41.9,7336],[41.9,7419],[41.9,7502],[41.9,7586],[41.9,7669],[41.9,7753],[41.9,7835],[41.9,7920],[41.9,8002],[41.9,8086],[41.9,8170],[41.9,8253],[41.9,8336],[38.3,8419],[36.2,8503],[36.2,8586],[36.2,8670],[36.2,8753],[36.2,8837],[36.2,8920],[36.2,9004],[36.2,9087],[38.3,9171],[38.3,9254],[38.8,9337],[41.3,9421],[43,9504],[43.3,9587],[44.2,9670],[48,9754],[48.3,9838],[48.3,9920],[48.3,10004],[48.3,10087],[48.3,10170],[48.3,10253],[48.3,10337],[48.3,10420],[48.3,10504],[48.3,10586],[48.3,10671],[48.3,10754],[48.3,10838],[48.3,10920],[48.3,11003],[48.3,11088],[48.3,11170],[48.3,11254],[48.3,11338],[48.3,11421],[48.3,11503],[48.3,11588],[48.3,11671],[48.3,11754],[48.3,11838],[48.3,11920],[48.3,12004],[48.3,12087],[48.3,12172],[48.3,12255],[48.3,12338],[48.3,12424],[48.3,12505],[48.3,12589],[48.3,12672],[48.3,12755],[48.3,12839],[48.3,12925],[48.3,13004],[48.3,13088],[48.3,13172],[48.3,13255],[48.3,13338],[48.3,13422],[48.3,13504],[48.3,13588],[49.8,13672],[51.2,13755],[52.6,13840],[55.5,13922]]",1,0,1520.222,1566.357,62.83333333,5.341,"[{""rating"":62.83333333333333,""responseTime"":5.3409999999998945}]",space,45.6,,1566.357,Not at all,0,1566.366,,,[],,0,3,3,3,1,audio/Narrative7Situation3.wav,audio/Narrative8Situation3.wav,audio/Narrative5Situation3.wav,audio/Narrative6Situation3.wav,8,4,3,5,,,,,,,,,,,,,,,,,,,,,,,,,,,,,,,,,,,,,,,
,,,,,,63e63a16d7a7a9ceb751d456,2024-02-08_13h01.15.219,group3.1-3.2-social-tom,2023.2.2,Win32,59.95203837,65c5074098b851296ff0b7ed,65c515d23e09a7c7763786fe,,,,,,,,,,,,,,,,,,,,,,,,,,,,,1566.367,2,audio/Narrative5Situation4.wav,1567.373,,1567.373,1587.748,"[[54.1,166],[56.1,833],[55.8,918],[55.8,1000],[55.8,1086],[55.8,1166],[55.8,1251],[55.8,1334],[55.8,1416],[55.8,1500],[55.8,1584],[55.8,1666],[55.8,1751],[55.8,1834],[55.8,1916],[55.8,2000],[55.8,2085],[55.8,2168],[55.8,2250],[55.8,2335],[55.8,2416],[55.8,2500],[55.8,2584],[55.8,2666],[55.8,2750],[55.8,2834],[55.8,2918],[55.8,3000],[55.8,3085],[55.8,3166],[55.8,3251],[55.8,3334],[55.8,3419],[55.8,3501],[55.8,3585],[55.8,3668],[55.8,3751],[55.8,3836],[55.8,3919],[55.8,4000],[55.8,4086],[55.8,4168],[55.8,4251],[55.8,4334],[55.8,4418],[55.3,4501],[50.8,4585],[45.8,4670],[41.7,4751],[40,4836],[40,4918],[40,5000],[40,5086],[41.1,5169],[47.9,5252],[49.5,5336],[49.5,5419],[49.5,5501],[49.9,5589],[50.1,5668],[50.1,5751],[50.1,5836],[50.1,5919],[50.1,6001],[50.1,6086],[50.1,6169],[50.1,6251],[50.1,6335],[50.1,6419],[50.1,6501],[50.1,6585],[50.1,6669],[50.1,6751],[50.1,6835],[50.1,6919],[50.1,7002],[50.1,7086],[50.1,7170],[50.1,7252],[50.1,7336],[50.1,7419],[50.1,7501],[50.1,7586],[50.1,7669],[50.1,7752],[50.1,7836],[50.1,7919],[50.1,8002],[50.1,8086],[50.1,8170],[50.1,8252],[50.1,8336],[50.1,8419],[50.1,8502],[50.1,8586],[50.1,8670],[50.1,8752],[50.1,8836],[50.1,8920],[50.1,9005],[50.1,9086],[50.1,9170],[50.1,9253],[50.1,9336],[50.1,9421],[50.1,9503],[50.1,9586],[50.1,9670],[50.1,9752],[50.1,9836],[50.1,9920],[50.1,10003],[50.1,10086],[50.1,10170],[50.1,10253],[50.1,10336],[50.1,10421],[50.1,10503],[50.1,10586],[50.1,10670],[50.1,10753],[50.1,10836],[50.1,10920],[50.1,11005],[50.1,11086],[50.1,11171],[50.1,11253],[50.1,11337],[50.1,11420],[50.1,11503],[50.1,11586],[50.1,11670],[50.1,11753],[50.1,11836],[50.1,11922],[50.1,12005],[50.1,12087],[50.1,12171],[50.1,12255],[50.1,12336],[50.1,12421],[50.1,12505],[50.1,12588],[50.1,12671],[50.1,12755],[50.1,12837],[50.1,12921],[50.1,13005],[50.1,13087],[50.1,13171],[50.1,13253],[50.1,13337],[50.1,13422],[50.1,13506],[50.1,13588],[50.1,13671],[50.1,13755],[50.1,13837],[50.1,13922],[50.1,14006],[50.1,14088],[50.1,14172],[50.1,14255],[50.1,14338],[50.1,14422],[50.1,14505],[50.1,14587],[50.1,14672],[50.1,14755],[50.1,14838],[50.1,14923],[50.1,15006],[50.1,15088],[50.1,15172],[50.1,15256],[50.1,15339],[50.1,15423],[50.1,15506],[50.1,15588],[50.1,15673],[50.1,15756],[50.1,15838],[50.1,15923],[50.1,16006],[50.1,16088],[50.1,16173],[50.1,16256],[50.1,16339],[50.1,16422],[50.1,16506],[50.1,16589],[50.1,16673],[50.1,16756],[50.1,16839],[50.1,16923],[50.1,17006],[50.1,17089],[50.1,17173],[50.1,17258],[50.1,17339],[50.1,17423],[50.1,17507],[50.1,17589],[50.1,17673],[50.1,17756],[50.1,17839],[50.1,17923],[50.1,18007],[50.1,18089],[50.1,18173],[50.1,18256],[50.1,18339],[50.1,18423],[50.1,18507],[50.1,18591],[50.1,18673],[50.1,18757],[50.1,18839],[50.1,18923],[50.1,19007],[50.1,19091],[50.1,19173],[50.1,19257],[50.1,19342],[50.1,19423],[50.1,19507],[50.1,19591],[50.1,19673],[50.1,19758],[50.1,19843],[50.1,19924],[50.1,20007],[50.1,20091],[52,20173],[55.4,20258],[64.8,20341]]",1,0,1587.748,1590.782,75.5,2.642,"[{""rating"":75.5,""responseTime"":2.6420000000000528}]",space,2.499,,1590.783,All the time,100,1590.792,,,[],,0,4,4,4,1,audio/Narrative7Situation4.wav,audio/Narrative8Situation4.wav,audio/Narrative5Situation4.wav,audio/Narrative6Situation4.wav,3,3,1,2,,,,,,,,,,,,,,,,,,,,,,,,,,,,,,,,,,,,,,,
,,,,,,63e63a16d7a7a9ceb751d456,2024-02-08_13h01.15.219,group3.1-3.2-social-tom,2023.2.2,Win32,59.95203837,65c5074098b851296ff0b7ed,65c515d23e09a7c7763786fe,,,,,,,,,,,,,,,,,,,,,,,,,,,,,1590.792,2,audio/Narrative5Situation5.wav,1595.801,,1595.801,1611.224,"[[75.4,1415],[74.1,1500],[66.3,1583],[59.4,1668],[54.3,1750],[47.9,1833],[46.9,1915],[46.9,1998],[46.9,2082],[46.9,2166],[46.9,2250],[47.1,2334],[47.3,2416],[47.8,2500],[48,2583],[48.3,2666],[48.3,2750],[48.3,2832],[48.3,2915],[48.3,3000],[48.3,3083],[48.3,3165],[48.3,3250],[48.3,3332],[48.3,3416],[48.3,3500],[48.3,3583],[48.3,3667],[48.3,3750],[48.3,3833],[48.3,3918],[48.3,4000],[48.3,4083],[48.3,4167],[48.3,4250],[48.3,4333],[48.3,4417],[48.3,4500],[48.3,4583],[48.3,4667],[48.3,4751],[48.3,4834],[48.3,4917],[48.3,5001],[48.3,5083],[48.3,5167],[48.3,5250],[48.3,5334],[48.3,5417],[48.3,5500],[48.3,5583],[48.3,5668],[48.3,5750],[48.3,5834],[48.3,5917],[48.3,6001],[48.3,6083],[48.3,6168],[48.3,6251],[48.3,6334],[48.3,6417],[48.3,6500],[48.3,6584],[48.3,6668],[48.3,6751],[48.3,6834],[48.3,6918],[48.3,7001],[48.3,7084],[48.3,7168],[48.3,7251],[48.3,7336],[48.3,7418],[48.3,7510],[48.3,7586],[48.3,7668],[48.3,7752],[48.3,7834],[48.3,7918],[48.3,8001],[48.3,8086],[48.3,8168],[48.3,8252],[48.3,8336],[48.3,8418],[48.3,8502],[48.3,8586],[48.3,8669],[48.3,8752],[48.3,8836],[48.3,8918],[48.3,9002],[48.3,9086],[48.4,9171],[53,9252],[55.4,9337],[55.8,9419],[55.8,9504],[55.8,9586],[55.8,9670],[54.8,9753],[54.8,9836],[54.8,9919],[55.9,10002],[58.3,10088],[59.9,10169],[64.8,10252],[66.7,10337],[66.9,10420],[70.4,10507],[71.8,10586],[72.5,10670],[72.8,10752],[72.8,10836],[72.8,10919],[72.8,11005],[72.8,11086],[72.8,11169],[72.8,11254],[72.8,11337],[72.8,11420],[72.8,11503],[72.8,11586],[72.8,11670],[72.8,11754],[72.8,11837],[72.8,11926],[72.8,12003],[72.8,12087],[72.8,12170],[72.8,12253],[72.8,12337],[72.8,12420],[72.8,12503],[72.8,12587],[72.8,12670],[72.8,12753],[72.8,12837],[72.8,12920],[72.8,13003],[72.8,13087],[72.8,13170],[72.8,13254],[72.8,13337],[72.8,13420],[72.8,13503],[72.8,13587],[72.8,13670],[72.8,13754],[72.8,13837],[72.8,13920],[72.8,14005],[72.8,14087],[72.8,14171],[72.8,14254],[72.8,14337],[72.8,14421],[72.8,14504],[72.8,14587],[72.8,14671],[72.8,14754],[72.8,14837],[72.8,14921],[72.8,15004],[72.8,15088],[74.2,15173],[77.6,15257],[80.8,15338],[84.3,15421]]",1,0,1611.224,1612.824,99.08333333,0.929,"[{""rating"":99.08333333333333,""responseTime"":0.9289999999998599}]",space,1.068,,1612.824,Half the time,50,1612.834,,,[],,0,5,5,5,1,audio/Narrative7Situation5.wav,audio/Narrative8Situation5.wav,audio/Narrative5Situation5.wav,audio/Narrative6Situation5.wav,5,2,5,2,,,,,,,,,,,,,,,,,,,,,,,,,,,,,,,,,,,,,,,
,,,,,,63e63a16d7a7a9ceb751d456,2024-02-08_13h01.15.219,group3.1-3.2-social-tom,2023.2.2,Win32,59.95203837,65c5074098b851296ff0b7ed,65c515d23e09a7c7763786fe,,,,,,,,,,,,,,,,,,,,,,,,,,,,,1612.835,2,audio/Narrative5Situation6.wav,1615.842,,1615.842,1621.527,"[[25.8,582],[31.3,667],[35.1,750],[39.4,834],[45.5,916],[53.4,1000],[55,1082],[55,1166],[55,1250],[55,1332],[55,1415],[55,1500],[54.3,1584],[53.4,1666],[52.3,1750],[51.5,1834],[51.3,1916],[50.9,2000],[50.8,2084],[50.8,2166],[50.8,2250],[50.8,2334],[50.8,2416],[50.8,2500],[50.8,2584],[50.8,2666],[50.5,2750],[50.5,2834],[50.5,2916],[50.4,3000],[50.4,3084],[50.4,3166],[50.4,3250],[50.4,3334],[50.4,3416],[50.4,3500],[50.4,3584],[50.4,3667],[50.4,3750],[50.4,3834],[50.4,3916],[50.4,4000],[50.4,4084],[50.4,4167],[50.4,4250],[50.4,4335],[50.4,4417],[50.4,4500],[50.4,4584],[50.4,4667],[50.4,4750],[50.4,4834],[50.4,4917],[50.4,5000],[50.4,5085],[50.4,5167],[50.4,5250],[50.4,5335],[50.4,5417],[50.4,5501],[50.4,5585],[50.4,5668]]",1,0,1621.527,1624.896,13.58333333,2.63,"[{""rating"":13.58333333333333,""responseTime"":2.630000000000109}]",space,2.839,,1624.896,All the time,100,1624.905,,,[],,0,6,6,6,1,audio/Narrative7Situation6.wav,audio/Narrative8Situation6.wav,audio/Narrative5Situation6.wav,audio/Narrative6Situation6.wav,3,2,3,2,,,,,,,,,,,,,,,,,,,,,,,,,,,,,,,,,,,,,,,
,,,,,,63e63a16d7a7a9ceb751d456,2024-02-08_13h01.15.219,group3.1-3.2-social-tom,2023.2.2,Win32,59.95203837,65c5074098b851296ff0b7ed,65c515d23e09a7c7763786fe,,,,,,,,,,,,,,,,,,,,,,,,,,,,,1624.906,2,audio/Narrative5Situation7.wav,1628.913,,1628.914,1649.955,"[[49,500],[50.5,584],[51.1,666],[51.1,749],[51.1,833],[51.1,916],[51.1,999],[51.1,1083],[51.1,1166],[51.1,1250],[51.1,1333],[51.1,1416],[51.1,1500],[51.1,1583],[51.1,1667],[51.1,1750],[51.1,1833],[51.1,1917],[51.1,1999],[51.1,2083],[51.1,2167],[51.1,2250],[51.1,2333],[51.1,2417],[51.1,2499],[51.1,2584],[51.1,2667],[51.1,2750],[51.1,2833],[51.1,2917],[51.1,3000],[51.1,3083],[51.1,3167],[51.1,3250],[51.1,3334],[51.1,3417],[51.1,3500],[51.1,3583],[51.1,3668],[51.1,3750],[51.1,3836],[51.1,3916],[51.1,4000],[51.1,4084],[51.1,4167],[51.1,4250],[51.1,4333],[51.1,4417],[51.1,4500],[51.1,4586],[51.1,4668],[51.1,4750],[51.1,4836],[51.1,4918],[51.1,5000],[51.1,5084],[51.1,5168],[51.1,5250],[51.1,5335],[51.1,5417],[51.1,5500],[51.1,5584],[51.1,5667],[51.1,5750],[51.1,5834],[51.1,5918],[51.1,6000],[51.1,6085],[51.1,6167],[51.1,6252],[51.1,6334],[51.1,6418],[51.1,6500],[51.1,6584],[51.1,6669],[51.1,6752],[51.1,6835],[51.1,6918],[51.1,7002],[51.1,7085],[51.1,7169],[51.1,7252],[51.1,7335],[51.1,7418],[51.1,7502],[51.1,7586],[51.1,7668],[51.1,7752],[51.1,7835],[51.1,7918],[51.1,8002],[51.1,8085],[51.1,8169],[51.1,8252],[51.1,8335],[51.1,8419],[51.1,8503],[51.1,8586],[51.1,8669],[51.1,8752],[51.1,8836],[51.1,8919],[51.1,9003],[51.1,9086],[51.1,9169],[51.1,9252],[51.1,9335],[51.1,9419],[51.1,9503],[51.1,9586],[51.1,9670],[51.1,9753],[51.1,9836],[51.1,9919],[51.1,10003],[51.1,10086],[51.1,10170],[51.1,10253],[51.1,10336],[51.1,10420],[51.1,10503],[51.1,10586],[51.1,10670],[51.1,10753],[51.1,10836],[51.1,10920],[51.1,11003],[51.1,11086],[51.1,11170],[51.1,11253],[51.1,11336],[51.1,11420],[51.1,11505],[51.1,11586],[51.1,11670],[51.1,11753],[51.1,11837],[51.1,11921],[51.1,12004],[51.1,12086],[51.1,12170],[51.1,12254],[51.1,12336],[51.1,12420],[51.1,12504],[51.1,12586],[51.1,12671],[51.1,12754],[51.1,12836],[51.1,12921],[51.1,13004],[51.1,13086],[51.1,13171],[51.1,13254],[51.1,13337],[51.1,13421],[51.1,13504],[51.1,13587],[51.1,13671],[51.1,13754],[51.1,13840],[51.1,13922],[51.1,14004],[51.1,14089],[51.1,14171],[51.1,14254],[51.1,14340],[51.1,14422],[51.1,14507],[51.1,14589],[51.1,14671],[51.1,14754],[51.1,14837],[51.1,14922],[51.1,15005],[51.1,15089],[51.1,15173],[51.1,15255],[51.1,15344],[51.1,15431],[51.1,15508],[51.1,15591],[51.1,15672],[51.1,15756],[51.1,15837],[51.1,15923],[51.1,16005],[51.1,16089],[51.1,16172],[51.1,16255],[51.1,16339],[51.1,16422],[51.1,16505],[51.1,16589],[51.1,16672],[51.1,16756],[51.1,16848],[51.1,16925],[51.1,17010],[51.1,17089],[51.1,17171],[51.1,17255],[51.1,17339],[51.1,17423],[51.1,17506],[51.1,17589],[51.1,17672],[51.1,17757],[51.1,17839],[51.1,17923],[51.1,18006],[51.1,18089],[51.1,18173],[51.1,18256],[51.1,18339],[51.1,18425],[51.1,18506],[51.1,18589],[51.1,18673],[51.1,18756],[51.1,18840],[51.1,18923],[51.1,19006],[51.1,19090],[51.1,19173],[51.1,19258],[51.1,19341],[51.1,19423],[51.1,19507],[51.1,19590],[51.1,19673],[51.1,19756],[51.1,19841],[51.1,19930],[51.1,20010],[53.4,20094],[55.8,20173],[58.8,20257],[59.4,20340],[62.8,20426],[65,20506],[66.1,20591],[68.2,20673],[69.3,20758],[70.1,20840],[70.3,20923],[70.3,21006]]",1,0,1649.956,1656.79,49.58333333,1.592,"[{""rating"":49.583333333333336,""responseTime"":1.5919999999998709}]",space,6.298,,1656.79,Half the time,50,1656.801,,,[],,0,7,7,7,1,audio/Narrative7Situation7.wav,audio/Narrative8Situation7.wav,audio/Narrative5Situation7.wav,audio/Narrative6Situation7.wav,5,3,4,5,,,,,,,,,,,,,,,,,,,,,,,,,,,,,,,,,,,,,,,
,,,,,,63e63a16d7a7a9ceb751d456,2024-02-08_13h01.15.219,group3.1-3.2-social-tom,2023.2.2,Win32,59.95203837,65c5074098b851296ff0b7ed,65c515d23e09a7c7763786fe,,,,,,,,,,,,,,,,,,,,,,,,,,,,,1656.801,2,audio/Narrative5Situation8.wav,1659.808,,1659.808,1668.628,"[[50.4,1084],[50.8,1169],[51.1,1252],[51.1,1333],[51.1,1417],[51.1,1500],[51.1,1584],[51.1,1667],[51.1,1750],[51.1,1834],[51.1,1917],[51.1,2000],[51.1,2084],[51.1,2167],[51.1,2250],[51.1,2334],[51.1,2418],[51.1,2500],[51.1,2584],[51.1,2667],[51.1,2750],[51.1,2835],[51.1,2917],[51.1,3000],[51.1,3084],[51.1,3168],[51.1,3250],[51.1,3335],[51.1,3418],[51.1,3502],[51.1,3584],[51.1,3668],[51.1,3750],[51.1,3834],[51.1,3918],[51.1,4000],[51.1,4085],[51.1,4168],[51.1,4250],[51.1,4335],[51.1,4418],[51.1,4500],[51.1,4585],[51.1,4669],[51.1,4750],[51.1,4835],[51.1,4919],[51.1,5002],[51.1,5085],[51.1,5170],[51.1,5252],[51.1,5336],[51.1,5420],[51.1,5502],[51.1,5585],[51.1,5668],[51.1,5752],[51.1,5835],[50.9,5920],[50.9,6002],[50.9,6086],[50.9,6170],[50.9,6253],[50.9,6335],[50.9,6419],[50.9,6502],[50.9,6586],[50.9,6669],[50.9,6752],[50.9,6836],[50.9,6919],[50.9,7003],[50.9,7086],[50.9,7169],[50.9,7253],[50.9,7336],[50.9,7419],[50.9,7503],[50.9,7586],[50.9,7669],[50.9,7753],[50.9,7836],[50.9,7920],[50.9,8003],[50.9,8086],[50.9,8169],[50.9,8254],[50.9,8336],[50.9,8420],[50.9,8503],[50.9,8586],[50.9,8670],[50.9,8753]]",1,0,1668.63,1670.746,54.83333333,1.054,"[{""rating"":54.833333333333336,""responseTime"":1.0540000000000873}]",space,1.57,,1670.746,Half the time,50,1670.757,,,[],,0,8,8,8,1,audio/Narrative7Situation8.wav,audio/Narrative8Situation8.wav,audio/Narrative5Situation8.wav,audio/Narrative6Situation8.wav,2,3,3,5,,,,,,,,,,,,,,,,,,,,,,,,,,,,,,,,,,,,,,,
,,,,,,63e63a16d7a7a9ceb751d456,2024-02-08_13h01.15.219,group3.1-3.2-social-tom,2023.2.2,Win32,59.95203837,65c5074098b851296ff0b7ed,65c515d23e09a7c7763786fe,,,,,,,,,,,,,,,,,,,,,,,,,,,,,1670.758,2,audio/Narrative5Situation9.wav,1673.763,,1673.763,1713.297,"[[54.1,3917],[54.1,4001],[54.1,4086],[54.1,4167],[54.1,4251],[54.1,4334],[54.1,4418],[54.1,4501],[54.1,4586],[54.1,4667],[54.1,4752],[54.1,4834],[54.1,4919],[54.1,5001],[54.1,5084],[54.1,5168],[54.1,5251],[54.1,5336],[54.1,5418],[54.1,5501],[54.1,5586],[54.1,5668],[54.1,5751],[54.1,5834],[54.1,5918],[54.1,6001],[54.1,6086],[54.1,6168],[54.1,6252],[54.1,6336],[54.1,6418],[54.1,6502],[54.1,6586],[54.1,6669],[54.1,6753],[54.1,6836],[54.1,6918],[54.1,7002],[54.1,7086],[54.1,7168],[54.1,7252],[54.1,7336],[54.1,7422],[54.1,7502],[54.1,7586],[54.1,7669],[54.1,7752],[54.1,7836],[54.1,7919],[54.1,8003],[54.1,8086],[54.1,8169],[54.1,8252],[54.1,8336],[54.1,8419],[54.1,8503],[54.1,8586],[54.1,8669],[54.1,8752],[54.1,8836],[54.1,8919],[54.1,9002],[54.1,9086],[54.1,9169],[54.1,9253],[54.1,9336],[54.1,9420],[54.1,9502],[54.1,9586],[54.1,9669],[54.1,9753],[54.1,9837],[54.1,9920],[54.1,10003],[54.1,10086],[54.1,10170],[54.1,10254],[54.1,10336],[54.1,10420],[54.1,10503],[54.1,10586],[54.1,10670],[54.1,10754],[54.1,10836],[54.1,10920],[54.1,11003],[54.1,11087],[54.1,11170],[54.1,11254],[54.1,11337],[54.1,11420],[54.1,11503],[54.1,11587],[54.1,11670],[54.1,11753],[54.1,11837],[54.1,11920],[54.1,12004],[54.1,12087],[54.1,12170],[54.1,12254],[54.1,12338],[54.1,12420],[54.1,12504],[54.1,12588],[54.1,12672],[54.1,12755],[54.1,12837],[54.1,12922],[54.1,13004],[54.1,13088],[54.1,13172],[54.1,13254],[54.1,13338],[54.1,13422],[54.1,13505],[54.1,13588],[54.1,13672],[54.1,13754],[54.1,13838],[54.1,13922],[54.1,14005],[54.1,14088],[54.1,14172],[54.1,14254],[54.1,14338],[54.1,14423],[54.1,14505],[54.1,14588],[54.1,14673],[54.1,14755],[54.1,14839],[54.1,14922],[54.1,15005],[54.1,15088],[54.1,15173],[54.1,15255],[54.1,15339],[54.1,15422],[54.1,15505],[54.1,15589],[54.1,15673],[54.1,15755],[54.1,15839],[54.1,15923],[54.1,16005],[54.1,16088],[54.1,16173],[54.1,16255],[54.1,16339],[54.1,16423],[54.1,16505],[54.1,16589],[54.1,16673],[54.1,16755],[54.1,16839],[54.1,16923],[54.1,17005],[54.1,17089],[54.1,17175],[54.1,17256],[54.1,17339],[54.1,17423],[54.1,17506],[54.1,17590],[54.1,17673],[54.1,17756],[54.1,17839],[54.1,17923],[54.1,18006],[54.1,18090],[54.1,18174],[54.1,18256],[54.1,18339],[54.1,18423],[54.1,18507],[54.1,18590],[54.1,18673],[54.1,18756],[54.1,18840],[54.1,18924],[54.1,19007],[54.1,19089],[54.1,19174],[54.1,19256],[54.1,19340],[54.1,19424],[54.1,19507],[54.1,19591],[54.1,19673],[54.1,19756],[54.1,19841],[54.1,19924],[54.1,20007],[54.1,20090],[54.1,20174],[54.1,20257],[54.1,20341],[54.1,20423],[54.1,20507],[54.1,20591],[54.1,20674],[54.1,20757],[54.1,20841],[54.1,20924],[54.1,21009],[54.1,21091],[54.1,21174],[54.1,21259],[54.1,21340],[54.1,21425],[54.1,21507],[54.1,21591],[54.1,21673],[54.1,21759],[54.1,21841],[54.1,21924],[54.1,22009],[54.1,22091],[54.1,22175],[54.1,22259],[54.1,22341],[54.1,22425],[54.1,22509],[54.1,22591],[54.1,22674],[56.7,22759],[62.6,22841],[71.1,22926],[79.6,23009],[84.7,23093],[88.8,23176],[92,23259],[92.9,23342],[95.3,23426],[99.3,23509],[99.3,23592],[99.3,23679],[99.4,23759],[99.4,23842],[99.4,23925],[99.4,24009],[99.4,24091],[99.4,24175],[99.4,24259],[99.4,24342],[99.4,24426],[99.4,24509],[99.4,24593],[99.4,24676],[99.4,24759],[99.4,24842],[99.4,24927],[99.4,25009],[99.4,25093],[99.4,25175],[99.4,25259],[99.3,25343],[99.3,25426],[99.3,25509],[99.2,25593],[99.1,25676],[99.1,25759],[99.1,25843],[99.1,25926],[99.1,26009],[99.1,26093],[99.1,26176],[99.1,26259],[99,26343],[99,26426],[98.8,26510],[98.8,26592],[98.8,26676],[98.8,26760],[98.7,26845],[98.7,26926],[98.7,27010],[98.7,27093],[98.7,27177],[98.7,27260],[98.7,27345],[98.7,27427],[98.7,27510],[98.7,27596],[98.7,27676],[98.7,27760],[98.7,27845],[98.7,27926],[98.7,28010],[98.7,28095],[98.7,28177],[98.7,28260],[98.7,28345],[98.7,28426],[98.7,28510],[98.7,28595],[98.7,28676],[98.7,28761],[98.7,28845],[98.7,28926],[98.7,29011],[98.7,29095],[98.7,29177],[98.7,29261],[98.7,29345],[98.7,29427],[98.7,29510],[98.7,29593],[98.7,29678],[98.7,29761],[98.7,29845],[98.7,29927],[98.7,30011],[98.7,30095],[98.7,30177],[98.7,30261],[98.7,30345],[98.7,30427],[98.7,30510],[98.7,30596],[98.7,30678],[98.7,30761],[98.7,30845],[98.7,30927],[98.7,31011],[98.7,31095],[98.7,31178],[98.7,31261],[98.7,31345],[98.7,31428],[98.7,31512],[98.7,31596],[98.7,31678],[98.7,31761],[98.7,31846],[98.7,31928],[98.7,32011],[98.7,32096],[98.7,32178],[98.7,32262],[98.7,32346],[98.7,32428],[98.7,32512],[98.7,32595],[98.7,32678],[98.7,32761],[98.7,32846],[98.7,32928],[98.7,33013],[98.7,33096],[98.7,33178],[98.7,33262],[98.7,33346],[98.7,33429],[98.7,33512],[98.7,33596],[98.7,33680],[98.7,33762],[98.7,33846],[98.7,33929],[98.7,34013],[98.7,34096],[98.7,34178],[98.7,34262],[98.7,34346],[98.7,34429],[98.7,34513],[98.7,34596],[98.7,34679],[98.7,34763],[98.7,34846],[98.7,34929],[98.7,35014],[98.7,35096],[98.7,35179],[98.7,35263],[98.7,35346],[98.7,35429],[98.7,35512],[98.7,35596],[98.7,35680],[98.7,35762],[98.7,35846],[98.7,35930],[98.7,36013],[98.7,36096],[98.7,36180],[98.7,36263],[98.7,36347],[98.7,36432],[98.7,36513],[98.7,36597],[98.7,36679],[98.7,36763],[98.7,36846],[98.7,36930],[98.7,37014],[98.7,37097],[98.7,37180],[98.7,37263],[98.7,37346],[98.7,37432],[98.6,37514],[98.6,37597],[98.6,37680],[98.6,37764],[98.6,37847],[98.6,37930],[98.6,38014],[98.6,38097],[98.6,38182],[98.6,38264],[98.6,38347],[98.6,38432],[98.6,38514],[98.6,38597],[98.6,38680],[98.6,38764],[98.6,38848],[98.6,38932],[98.6,39015],[98.6,39097],[98.6,39180],[98.6,39264],[98.6,39348],[98.6,39432],[98.6,39515]]",1,0,1713.298,1762.414,99.58333333,3.67,"[{""rating"":99.58333333333333,""responseTime"":3.6700000000000728}]",space,48.568,,1762.414,Not at all,0,1762.433,,,[],,0,9,9,9,1,audio/Narrative7Situation9.wav,audio/Narrative8Situation9.wav,audio/Narrative5Situation9.wav,audio/Narrative6Situation9.wav,2,3,3,4,,,,,,,,,,,,,,,,,,,,,,,,,,,,,,,,,,,,,,,
,,,,,,63e63a16d7a7a9ceb751d456,2024-02-08_13h01.15.219,group3.1-3.2-social-tom,2023.2.2,Win32,59.95203837,65c5074098b851296ff0b7ed,65c515d23e09a7c7763786fe,,,,,,,,,,,,,,,,,,,,,,,,,,,,,1762.433,2,audio/Narrative6Situation1.wav,1764.449,,1764.45,1791.042,"[[999,2],[999,82],[999,164],[999,248],[999,333],[999,414],[999,500],[999,582],[999,670],[999,751],[999,832],[999,914],[999,998],[999,1081],[999,1164],[999,1248],[999,1332],[999,1416],[999,1499],[999,1584],[999,1664],[999,1748],[999,1832],[999,1918],[999,2002],[999,2081],[999,2164],[999,2256],[999,2334],[999,2418],[999,2498],[999,2582],[999,2665],[999,2774],[60.4,2873],[57.9,2971],[57.1,3070],[57.1,3149],[57.1,3232],[57.1,3317],[57.1,3400],[57.1,3491],[57,3601],[57,3682],[57,3765],[57,3849],[57,3932],[57,4016],[57,4098],[57,4182],[57,4266],[57,4348],[57,4432],[56.3,4516],[55.5,4599],[52.8,4682],[51.3,4771],[50.4,4854],[50.4,4932],[50.4,5017],[50.4,5098],[50.4,5182],[50.4,5266],[50.4,5349],[50.4,5434],[50.4,5519],[50.4,5598],[50.4,5683],[50.4,5767],[50.4,5851],[50.4,5932],[50.4,6017],[50.4,6101],[50.4,6182],[50.4,6266],[50.4,6349],[50.4,6433],[50.4,6517],[50.4,6599],[50.4,6682],[50.4,6767],[50.4,6852],[50.4,6933],[50.4,7018],[50.4,7107],[50.4,7188],[50.4,7270],[50.4,7353],[50.4,7438],[50.4,7519],[50.4,7601],[50.4,7684],[50.4,7768],[50.4,7851],[50.4,7933],[50.4,8018],[50.4,8099],[50.4,8183],[50.4,8267],[50.4,8351],[50.4,8433],[50.4,8517],[50.4,8601],[50.4,8684],[50.4,8768],[50.4,8852],[50.4,8933],[50.4,9018],[50.4,9102],[50.4,9183],[50.4,9268],[50.4,9352],[50.4,9433],[50.4,9518],[50.4,9601],[50.4,9684],[50.4,9768],[50.4,9853],[50.4,9934],[50.4,10018],[50.4,10102],[50.4,10184],[50.4,10268],[50.4,10351],[50.4,10434],[50.4,10519],[50.4,10602],[50.4,10684],[50.4,10768],[50.4,10852],[50.4,10934],[50.4,11019],[50.4,11102],[50.4,11184],[50.4,11268],[50.4,11352],[50.4,11434],[50.4,11519],[50.4,11602],[50.4,11684],[50.4,11769],[50.4,11852],[50.4,11935],[50.4,12019],[50.4,12103],[50.4,12185],[50.4,12269],[50.4,12353],[50.4,12435],[50.4,12519],[50.4,12603],[50.4,12685],[50.4,12769],[50.4,12853],[50.4,12935],[50.4,13019],[50.4,13103],[50.4,13187],[50.4,13269],[50.4,13355],[50.4,13435],[50.4,13519],[50.4,13603],[50.4,13687],[50.4,13769],[50.4,13853],[50.4,13937],[50.4,14019],[50.4,14103],[50.4,14187],[50.4,14269],[50.4,14353],[50.4,14437],[50.4,14519],[50.4,14604],[50.4,14688],[50.4,14769],[50.4,14853],[50.4,14938],[50.4,15019],[50.4,15104],[50.4,15187],[50.4,15269],[50.4,15353],[50.4,15437],[50.4,15519],[50.4,15604],[50.4,15688],[50.4,15770],[50.4,15853],[50.4,15937],[50.4,16020],[50.4,16104],[50.4,16188],[50.4,16270],[50.4,16354],[50.4,16438],[50.4,16520],[50.4,16604],[50.4,16688],[50.4,16770],[50.4,16854],[50.4,16938],[50.4,17020],[50.4,17104],[50.4,17188],[50.4,17270],[50.4,17355],[50.4,17438],[50.4,17520],[50.4,17604],[50.4,17689],[50.4,17771],[50.4,17854],[50.4,17938],[50.4,18020],[50.4,18105],[50.4,18188],[50.4,18270],[50.4,18355],[50.4,18439],[50.4,18522],[50.4,18605],[50.4,18687],[50.4,18772],[50.4,18855],[50.4,18937],[50.4,19022],[50.4,19105],[50.4,19189],[50.4,19272],[50.4,19355],[50.4,19439],[50.4,19522],[50.4,19605],[50.4,19687],[50.4,19772],[50.4,19855],[50.4,19939],[50.4,20022],[50.4,20105],[50.4,20189],[50.4,20272],[50.4,20355],[50.4,20439],[50.4,20522],[50.4,20605],[50.4,20687],[50.4,20772],[50.4,20855],[50.4,20939],[50.4,21022],[50.4,21105],[50.4,21189],[50.4,21272],[50.4,21355],[50.4,21439],[50.4,21522],[50.4,21605],[50.4,21689],[50.4,21772],[50.4,21855],[50.4,21941],[50.4,22022],[50.4,22107],[50.4,22189],[50.4,22272],[50.4,22357],[50.4,22439],[50.4,22522],[50.4,22607],[50.4,22689],[50.4,22772],[50.4,22857],[50.4,22939],[50.4,23022],[50.4,23105],[50.4,23189],[50.4,23272],[50.4,23355],[50.4,23441],[50.4,23522],[50.4,23607],[50.4,23689],[50.4,23774],[50.4,23857],[50.4,23939],[50.4,24024],[50.4,24107],[50.4,24189],[50.4,24272],[50.4,24357],[50.4,24439],[50.4,24524],[50.4,24607],[50.4,24691],[50.4,24772],[50.4,24857],[50.4,24941],[50.4,25022],[50.4,25107],[50.4,25189],[50.4,25274],[50.4,25357],[50.4,25441],[50.4,25524],[50.4,25607],[50.4,25689],[50.4,25774],[50.4,25857],[50.4,25941],[50.8,26024],[51.8,26107],[52.5,26192],[54.7,26274],[56.8,26357],[59.3,26441],[64,26524]]",1,0,1791.042,1938.883,68.66666667,3.477,"[{""rating"":78.16666666666667,""responseTime"":1.375},{""rating"":68.66666666666667,""responseTime"":3.4769999999998618}]",space,147.309,,1938.883,All the time,100,1953.787,99.83333333,10.817,"[{""rating"":99.83333333333333,""responseTime"":10.817000000000007}]",space,0,10,10,10,1,audio/Narrative8Situation1.wav,audio/Narrative7Situation1.wav,audio/Narrative6Situation1.wav,audio/Narrative5Situation1.wav,5,2,2,5,,,14.358,,,,,,,,,,,,,,,,,,,,,,,,,,,,,,,,,,,,
,,,,,,63e63a16d7a7a9ceb751d456,2024-02-08_13h01.15.219,group3.1-3.2-social-tom,2023.2.2,Win32,59.95203837,65c5074098b851296ff0b7ed,65c515d23e09a7c7763786fe,,,,,,,,,,,,,,,,,,,,,,,,,,,,,1953.788,2,audio/Narrative6Situation2.wav,1956.805,,1956.805,1985.316,"[[69.5,7352],[69.5,7434],[68.8,7518],[68.8,7601],[69.6,7687],[70.3,7768],[70.8,7855],[71.8,7935],[71.8,8017],[71.8,8101],[71.8,8184],[71.8,8268],[71.9,8351],[71.9,8435],[71.7,8520],[71.6,8601],[71.3,8684],[70.1,8768],[65.1,8853],[32.8,9352],[29.7,9436],[27.8,9518],[27.8,9602],[27.8,9685],[27.8,9768],[27.8,9854],[27.8,9936],[27.8,10018],[27.8,10102],[27.8,10186],[27.8,10269],[27.8,10355],[27.8,10435],[27.8,10519],[27.8,10602],[27.8,10686],[27.8,10770],[27.8,10852],[27.8,10936],[27.8,11019],[27.8,11103],[27.8,11186],[27.8,11269],[27.8,11352],[27.8,11435],[27.8,11519],[27.8,11602],[27.8,11686],[27.8,11770],[27.8,11853],[27.8,11936],[27.8,12019],[27.8,12103],[27.8,12187],[27.8,12270],[27.8,12352],[27.8,12437],[27.8,12519],[27.8,12603],[27.8,12686],[27.8,12770],[27.8,12853],[27.8,12937],[27.8,13020],[27.8,13104],[27.8,13186],[27.8,13270],[27.8,13354],[27.8,13437],[27.8,13520],[27.8,13604],[27.8,13686],[27.8,13772],[27.8,13853],[27.8,13937],[27.8,14020],[27.8,14103],[27.8,14187],[27.8,14271],[27.8,14354],[27.8,14437],[27.8,14520],[27.8,14604],[27.8,14687],[27.8,14771],[27.8,14854],[27.8,14938],[27.8,15020],[27.8,15105],[27.8,15188],[27.8,15271],[27.8,15357],[27.8,15438],[27.8,15521],[27.8,15604],[27.8,15687],[27.8,15771],[27.8,15854],[27.8,15938],[27.8,16021],[27.8,16106],[27.8,16187],[27.8,16272],[27.8,16355],[27.8,16438],[27.8,16522],[27.8,16605],[27.8,16688],[27.8,16773],[27.8,16854],[27.8,16938],[27.8,17022],[27.8,17105],[27.8,17189],[27.8,17271],[27.8,17355],[27.8,17438],[27.8,17522],[27.8,17605],[27.8,17688],[27.8,17772],[27.8,17855],[27.8,17939],[27.8,18022],[27.8,18106],[27.8,18188],[27.8,18271],[27.8,18355],[27.8,18439],[27.8,18522],[27.8,18605],[27.8,18688],[27.8,18772],[27.8,18856],[27.8,18939],[27.8,19022],[27.8,19106],[27.8,19189],[27.8,19272],[27.8,19356],[27.8,19439],[27.8,19523],[27.8,19606],[27.8,19689],[27.8,19773],[27.8,19856],[27.8,19940],[27.8,20023],[27.8,20106],[27.8,20189],[27.8,20273],[27.8,20355],[27.8,20440],[27.8,20523],[27.8,20607],[27.8,20690],[27.8,20773],[27.8,20856],[27.8,20940],[27.8,21023],[27.8,21107],[27.8,21190],[27.8,21274],[27.8,21356],[27.8,21440],[27.8,21523],[27.8,21606],[27.8,21690],[27.8,21774],[27.8,21857],[27.8,21940],[27.8,22025],[27.8,22107],[27.8,22190],[27.8,22274],[27.8,22357],[27.8,22441],[27.8,22524],[27.8,22607],[27.8,22690],[27.8,22774],[27.8,22857],[27.8,22941],[27.8,23023],[27.8,23107],[27.8,23191],[27.8,23274],[27.8,23357],[27.8,23440],[27.8,23523],[27.8,23607],[27.8,23691],[27.8,23775],[27.8,23857],[27.8,23941],[27.8,24023],[27.8,24107],[27.8,24191],[27.8,24275],[27.8,24358],[27.8,24440],[27.8,24524],[27.8,24608],[27.8,24691],[27.8,24775],[27.8,24857],[27.8,24941],[27.8,25025],[27.8,25108],[27.8,25191],[27.8,25275],[27.8,25358],[28,25441],[28,25524],[28,25608],[28,25691],[28.3,25775],[37.8,25859],[46.5,25943],[50.3,26025],[56.7,26108],[60.4,26192],[61.2,26275],[61.2,26358],[61.3,26442],[62.1,26525],[62.1,26608],[62.1,26692],[62.1,26776],[62.1,26858],[57.8,26942],[52.2,27027],[49.3,27109],[48.3,27192],[48.3,27275],[48.3,27358],[48.3,27442],[48.3,27526],[48.3,27609],[48.3,27692],[48.3,27775],[48.3,27859],[48.3,27942],[48.3,28026],[48.3,28109],[48.3,28192],[48.3,28276],[48.3,28359],[47.8,28443]]",1,0,1985.316,2488.524,29.91666667,1.244,"[{""rating"":29.916666666666668,""responseTime"":1.2440000000001419}]",space,502.657,,2488.524,Not at all,0,2488.536,,,[],,0,11,11,11,1,audio/Narrative8Situation2.wav,audio/Narrative7Situation2.wav,audio/Narrative6Situation2.wav,audio/Narrative5Situation2.wav,3,3,3,3,,,,,,,,,,,,,,,,,,,,,,,,,,,,,,,,,,,,,,,
,,,,,,63e63a16d7a7a9ceb751d456,2024-02-08_13h01.15.219,group3.1-3.2-social-tom,2023.2.2,Win32,59.95203837,65c5074098b851296ff0b7ed,65c515d23e09a7c7763786fe,,,,,,,,,,,,,,,,,,,,,,,,,,,,,2488.536,2,audio/Narrative6Situation3.wav,2493.544,,2493.544,2506.164,"[[35.3,83],[35.3,165],[35.3,247],[35.3,330],[35.3,414],[35.3,499],[35.3,581],[35.3,664],[35.3,748],[35.3,832],[35.3,915],[39.2,1000],[39.5,1082],[39.1,1172],[40.8,1253],[41.8,1347],[42,1416],[42,1498],[42,1582],[36.5,1666],[35.8,1748],[35.8,1831],[35.8,1914],[35.8,1999],[35.8,2081],[35.8,2166],[35.8,2248],[35.8,2332],[35.8,2417],[35.8,2498],[35.8,2584],[35.8,2666],[35.8,2749],[35.8,2833],[35.8,2916],[35.8,2998],[35.8,3082],[35.8,3165],[35.8,3249],[35.8,3333],[35.8,3416],[35.8,3504],[35.8,3585],[35.8,3666],[35.8,3755],[35.8,3836],[35.8,3916],[35.8,4002],[35.8,4083],[35.8,4166],[35.8,4265],[35.8,4375],[35.8,4457],[35.8,4533],[35.8,4615],[35.8,4700],[35.8,4783],[35.8,4867],[35.8,4951],[35.8,5033],[35.8,5115],[35.8,5201],[35.8,5283],[35.8,5367],[35.8,5451],[35.8,5532],[35.8,5615],[35.8,5699],[35.8,5783],[35.8,5865],[35.8,5949],[35.8,6034],[35.8,6115],[35.8,6200],[35.8,6283],[35.8,6367],[35.8,6452],[35.8,6536],[35.8,6617],[35.8,6702],[35.8,6784],[35.8,6865],[35.8,6950],[35.8,7033],[35.8,7117],[35.8,7201],[35.8,7284],[35.8,7367],[35.8,7451],[35.8,7534],[35.8,7617],[35.8,7700],[35.8,7784],[35.8,7867],[35.8,7951],[35.8,8033],[35.8,8117],[35.8,8200],[35.8,8283],[35.8,8369],[35.8,8452],[35.8,8535],[35.8,8619],[35.8,8701],[35.8,8784],[35.8,8868],[35.8,8951],[35.8,9035],[35.8,9117],[35.8,9201],[35.8,9285],[35.8,9367],[35.8,9451],[35.8,9534],[35.8,9617],[35.8,9701],[35.8,9784],[35.8,9868],[35.8,9952],[35.8,10035],[35.8,10117],[35.8,10202],[35.8,10285],[35.8,10368],[35.8,10451],[35.3,10534],[35.3,10618],[35.3,10701],[35.3,10785],[35.3,10868],[35.3,10952],[35.3,11035],[34.8,11122]]",1,0,2506.164,2520.269,64.41666667,12.679,"[{""rating"":63.25000000000001,""responseTime"":5.765000000000327},{""rating"":64.41666666666667,""responseTime"":12.679000000000087}]",space,13.568,,2520.269,Not at all,0,2520.278,,,[],,0,12,12,12,1,audio/Narrative8Situation3.wav,audio/Narrative7Situation3.wav,audio/Narrative6Situation3.wav,audio/Narrative5Situation3.wav,4,8,5,3,,,,,,,,,,,,,,,,,,,,,,,,,,,,,,,,,,,,,,,
,,,,,,63e63a16d7a7a9ceb751d456,2024-02-08_13h01.15.219,group3.1-3.2-social-tom,2023.2.2,Win32,59.95203837,65c5074098b851296ff0b7ed,65c515d23e09a7c7763786fe,,,,,,,,,,,,,,,,,,,,,,,,,,,,,2520.279,2,audio/Narrative6Situation4.wav,2522.286,,2522.286,2534.892,"[[60.8,5085],[60.4,5168],[58.7,5251],[52.4,5336],[48.7,5420],[45.3,5501],[43.3,5585],[42.9,5668],[39.7,5751],[38.4,5835],[38.4,5918],[38.4,6001],[38.4,6085],[38.4,6168],[38.4,6251],[38.4,6335],[38.4,6418],[38.4,6501],[38.4,6585],[38.4,6670],[38.4,6751],[38.4,6835],[38.6,6918],[38.6,7001],[38.6,7085],[38.6,7168],[38.6,7253],[38.6,7335],[40.5,7418],[46.5,7503],[47.4,7585],[50.8,7670],[50.8,7753],[50.8,7835],[50.8,7920],[50.8,8001],[50.8,8085],[50.8,8170],[50.8,8253],[50.8,8335],[50.8,8418],[50.8,8503],[50.8,8585],[50.8,8670],[50.8,8753],[50.8,8835],[50.8,8920],[50.8,9003],[50.8,9086],[50.8,9170],[50.8,9253],[50.8,9336],[50.8,9420],[50.8,9503],[50.8,9585],[50.8,9670],[50.8,9753],[50.8,9836],[50.8,9920],[50.8,10003],[50.8,10086],[50.8,10170],[50.8,10253],[50.8,10338],[50.8,10420],[50.8,10503],[50.8,10586],[50.8,10670],[50.8,10753],[50.8,10836],[50.8,10920],[50.8,11003],[50.8,11086],[50.8,11170],[50.8,11253],[50.8,11336],[50.8,11420],[50.8,11503],[50.8,11588],[50.8,11670],[50.8,11753],[50.8,11838],[50.8,11920],[50.8,12005],[50.8,12086],[50.8,12170],[50.8,12255],[50.8,12336],[50.8,12420],[50.8,12503],[50.8,12588]]",1,0,2534.892,2538.359,38.66666667,2.309,"[{""rating"":38.666666666666664,""responseTime"":2.3090000000001965}]",space,2.919,,2538.359,All the time,100,2538.367,,,[],,0,13,13,13,1,audio/Narrative8Situation4.wav,audio/Narrative7Situation4.wav,audio/Narrative6Situation4.wav,audio/Narrative5Situation4.wav,3,3,2,1,,,,,,,,,,,,,,,,,,,,,,,,,,,,,,,,,,,,,,,
,,,,,,63e63a16d7a7a9ceb751d456,2024-02-08_13h01.15.219,group3.1-3.2-social-tom,2023.2.2,Win32,59.95203837,65c5074098b851296ff0b7ed,65c515d23e09a7c7763786fe,,,,,,,,,,,,,,,,,,,,,,,,,,,,,2538.367,2,audio/Narrative6Situation5.wav,2540.377,,2540.377,2548.346,"[[999,1],[999,83],[999,166],[999,249],[999,332],[999,416],[999,499],[999,583],[999,664],[999,749],[999,833],[999,916],[50.8,1000],[49.6,1083],[49.3,1166],[47.8,1249],[47.8,1333],[47.4,1416],[47.4,1500],[47.4,1583],[47.4,1666],[47.4,1750],[47.4,1833],[47.4,1916],[47.4,2000],[47.4,2082],[47.4,2166],[47.4,2250],[47.4,2333],[47.4,2416],[47.4,2499],[47.4,2583],[47.4,2666],[47.4,2750],[47.4,2833],[47.4,2916],[47.4,3000],[47.4,3083],[47.4,3168],[47.4,3251],[47.4,3334],[47.4,3416],[47.4,3500],[47.4,3583],[47.4,3666],[47.4,3750],[47.4,3834],[47.4,3916],[47.4,4001],[47.4,4084],[47.4,4166],[47.4,4251],[47.4,4333],[47.4,4416],[47.4,4501],[47.4,4585],[47.4,4668],[47.4,4751],[47.4,4834],[47.4,4919],[47.4,5001],[47.4,5084],[47.4,5166],[47.4,5251],[47.4,5334],[47.4,5418],[47.4,5501],[47.4,5584],[47.4,5668],[47.4,5751],[47.4,5834],[47.4,5919],[47.4,6001],[47.5,6086],[47.9,6501],[48.3,6586],[52.9,6921],[54.6,7001],[54.6,7085],[54.7,7168],[54.7,7251],[54.8,7335],[62.8,7418],[63.8,7501],[63.8,7585],[63.8,7668],[63.8,7751],[63.8,7835],[63.8,7919]]",1,0,2548.347,2551.714,67.16666667,1.292,"[{""rating"":67.16666666666666,""responseTime"":1.292000000000371}]",space,2.82,,2551.714,All the time,100,2551.721,,,[],,0,14,14,14,1,audio/Narrative8Situation5.wav,audio/Narrative7Situation5.wav,audio/Narrative6Situation5.wav,audio/Narrative5Situation5.wav,2,5,2,5,,,,,,,,,,,,,,,,,,,,,,,,,,,,,,,,,,,,,,,
,,,,,,63e63a16d7a7a9ceb751d456,2024-02-08_13h01.15.219,group3.1-3.2-social-tom,2023.2.2,Win32,59.95203837,65c5074098b851296ff0b7ed,65c515d23e09a7c7763786fe,,,,,,,,,,,,,,,,,,,,,,,,,,,,,2551.722,2,audio/Narrative6Situation6.wav,2553.732,,2553.732,2564.802,"[[999,1],[999,83],[999,166],[999,249],[999,333],[999,416],[999,501],[999,583],[999,666],[999,749],[999,833],[999,916],[999,1000],[999,1083],[999,1166],[999,1249],[999,1333],[999,1416],[999,1500],[999,1583],[999,1666],[999,1749],[999,1833],[999,1916],[999,2000],[999,2084],[999,2166],[999,2250],[999,2335],[999,2416],[999,2500],[999,2584],[999,2666],[999,2750],[999,2833],[999,2916],[999,3000],[999,3085],[999,3166],[999,3251],[999,3334],[999,3416],[999,3501],[999,3583],[999,3666],[999,3751],[999,3834],[999,3916],[999,4000],[999,4084],[999,4168],[999,4251],[999,4334],[999,4416],[999,4500],[999,4584],[999,4666],[999,4751],[999,4834],[999,4916],[999,5001],[999,5084],[999,5168],[999,5251],[999,5334],[999,5418],[999,5501],[999,5585],[999,5668],[999,5751],[999,5834],[999,5918],[999,6001],[999,6085],[999,6168],[999,6251],[999,6334],[999,6418],[999,6501],[999,6585],[999,6668],[999,6751],[999,6834],[999,6918],[999,7001],[999,7086],[999,7168],[999,7251],[999,7335],[999,7418],[999,7501],[999,7586],[999,7670],[999,7751],[999,7835],[999,7918],[999,8003],[999,8085],[999,8168],[999,8253],[999,8335],[999,8418],[999,8501],[999,8585],[999,8668],[999,8751],[999,8836],[999,8925],[999,9003],[999,9092],[999,9173],[999,9259],[999,9340],[999,9423],[999,9503],[999,9621],[999,9702],[999,9787],[999,9869],[999,9952],[999,10037],[999,10119],[999,10204],[999,10287],[999,10369],[999,10454],[999,10538],[999,10619],[999,10702],[999,10787],[999,10869],[999,10954],[999,11038]]",1,0,2564.802,2568.104,69.08333333,2.12,"[{""rating"":69.08333333333333,""responseTime"":2.1200000000003456}]",space,2.776,,2568.104,All the time,100,2568.109,,,[],,0,15,15,15,1,audio/Narrative8Situation6.wav,audio/Narrative7Situation6.wav,audio/Narrative6Situation6.wav,audio/Narrative5Situation6.wav,2,3,2,3,,,,,,,,,,,,,,,,,,,,,,,,,,,,,,,,,,,,,,,
