exp_question,consent.started,consent.stopped,consentResponse.keys,consentResponse.rt,consentResponse.duration,participantID,date,expName,psychopyVersion,OS,frameRate,STUDY_ID,SESSION_ID,opening1.started,opening1.stopped,keyEndingOpening1.keys,keyEndingOpening1.rt,keyEndingOpening1.duration,volumeAdjust.started,volumeAdjust.stopped,endingAdjust.keys,endingAdjust.rt,endingAdjust.duration,opening2.started,opening2.stopped,keyEndingOpening.keys,keyEndingOpening.rt,keyEndingOpening.duration,mouse.x,mouse.y,mouse.leftButton,mouse.midButton,mouse.rightButton,mouse.time,instructionLoop.thisRepN,instructionLoop.thisTrialN,instructionLoop.thisN,instructionLoop.thisIndex,instructionLoop.ran,readyForAudio.started,readyForAudio.stopped,fixation.started,run,audio_played,fixation.stopped,endPractice.keys,audioPre.started,audioPre.stopped,continuousResponses_audio,continuousSlider.response,continuousSlider.rt,intRating.started,intRating.stopped,intQuestionSlider.response,intQuestionSlider.rt,intQuestionSlider.history,confirmResponse.keys,confirmResponse.rt,confirmResponse.duration,catchQuestion.started,catch_label,catch_value,catchQuestion.stopped,catchQuestionSlider.response,catchQuestionSlider.rt,catchQuestionSlider.history,confirmResponse_2.keys,audioRunLoop.thisRepN,audioRunLoop.thisTrialN,audioRunLoop.thisN,audioRunLoop.thisIndex,audioRunLoop.ran,conditions1_1,conditions2_1,conditions1_2,conditions2_2,dur1_1,dur2_1,dur1_2,dur2_2,endPractice.rt,endPractice.duration,confirmResponse_2.rt,confirmResponse_2.duration,runIntervalBreak.started,runIntervalBreak.stopped,endingBreakKey.keys,endingBreakKey.rt,endingBreakKey.duration,connection.started,connection.stopped,connectionEnding.keys,connectionEnding.rt,connectionEnding.duration,readyForText.started,readyForText.stopped,textPre.started,run_dup,textPre.stopped,continuousResponses_text,textRunLoop.thisRepN,textRunLoop.thisTrialN,textRunLoop.thisN,textRunLoop.thisIndex,textRunLoop.ran,text1_1,text1_2,text2_1,text2_2,runBreakText.started,runBreakText.stopped,endingBreakKey_2.keys,endingBreakKey_2.rt,endingBreakKey_2.duration,ending.started,ending.stopped,endingEnding.keys,endingEnding.rt,endingEnding.duration
tom,0.0001,14.8512,y,14.5268,,63eab29693a6eb7fd0174010,2024-05-13_11h53.21.225,group3.1-3.2-social-tom,2023.2.2,Win32,59.88023952,65c5074098b851296ff0b7ed,66423732ea1b963499cab2bc,,,,,,,,,,,,,,,,,,,,,,,,,,,,,,,,,,,,,,,,,,,,,,,,,,,,,,,,,,,,,,,,,,,,,,,,,,,,,,,,,,,,,,,,,,,,,,,,,,,,,,,,,,
,,,,,,63eab29693a6eb7fd0174010,2024-05-13_11h53.21.225,group3.1-3.2-social-tom,2023.2.2,Win32,59.88023952,65c5074098b851296ff0b7ed,66423732ea1b963499cab2bc,14.8515,23.286,space,8.3916,,,,,,,,,,,,,,,,,,,,,,,,,,,,,,,,,,,,,,,,,,,,,,,,,,,,,,,,,,,,,,,,,,,,,,,,,,,,,,,,,,,,,,,,,,,,,,,,,,,,,,
,,,,,,63eab29693a6eb7fd0174010,2024-05-13_11h53.21.225,group3.1-3.2-social-tom,2023.2.2,Win32,59.88023952,65c5074098b851296ff0b7ed,66423732ea1b963499cab2bc,,,,,,23.2862,37.5344,space,13.9245,,,,,,,,,,,,,,,,,,,,,,,,,,,,,,,,,,,,,,,,,,,,,,,,,,,,,,,,,,,,,,,,,,,,,,,,,,,,,,,,,,,,,,,,,,,,,,,,,
,,,,,,63eab29693a6eb7fd0174010,2024-05-13_11h53.21.225,group3.1-3.2-social-tom,2023.2.2,Win32,59.88023952,65c5074098b851296ff0b7ed,66423732ea1b963499cab2bc,,,,,,,,,,,37.5628,44.628,space,7.0436,,[],[],[],[],[],[],0,0,0,0,1,,,,,,,,,,,,,,,,,,,,,,,,,,,,,,,,,,,,,,,,,,,,,,,,,,,,,,,,,,,,,,,,,,,,,,,,,,,,,,,,
,,,,,,63eab29693a6eb7fd0174010,2024-05-13_11h53.21.225,group3.1-3.2-social-tom,2023.2.2,Win32,59.88023952,65c5074098b851296ff0b7ed,66423732ea1b963499cab2bc,,,,,,,,,,,44.6442,71.6377,space,26.9098,,[],[],[],[],[],[],1,0,1,0,1,,,,,,,,,,,,,,,,,,,,,,,,,,,,,,,,,,,,,,,,,,,,,,,,,,,,,,,,,,,,,,,,,,,,,,,,,,,,,,,,
,,,,,,63eab29693a6eb7fd0174010,2024-05-13_11h53.21.225,group3.1-3.2-social-tom,2023.2.2,Win32,59.88023952,65c5074098b851296ff0b7ed,66423732ea1b963499cab2bc,,,,,,,,,,,71.6546,89.655,space,17.957,,[],[],[],[],[],[],2,0,2,0,1,,,,,,,,,,,,,,,,,,,,,,,,,,,,,,,,,,,,,,,,,,,,,,,,,,,,,,,,,,,,,,,,,,,,,,,,,,,,,,,,
,,,,,,63eab29693a6eb7fd0174010,2024-05-13_11h53.21.225,group3.1-3.2-social-tom,2023.2.2,Win32,59.88023952,65c5074098b851296ff0b7ed,66423732ea1b963499cab2bc,,,,,,,,,,,89.6701,108.2067,space,18.5122,,[],[],[],[],[],[],3,0,3,0,1,,,,,,,,,,,,,,,,,,,,,,,,,,,,,,,,,,,,,,,,,,,,,,,,,,,,,,,,,,,,,,,,,,,,,,,,,,,,,,,,
,,,,,,63eab29693a6eb7fd0174010,2024-05-13_11h53.21.225,group3.1-3.2-social-tom,2023.2.2,Win32,59.88023952,65c5074098b851296ff0b7ed,66423732ea1b963499cab2bc,,,,,,,,,,,108.2214,118.9979,space,10.7551,,[],[],[],[],[],[],4,0,4,0,1,,,,,,,,,,,,,,,,,,,,,,,,,,,,,,,,,,,,,,,,,,,,,,,,,,,,,,,,,,,,,,,,,,,,,,,,,,,,,,,,
,,,,,,63eab29693a6eb7fd0174010,2024-05-13_11h53.21.225,group3.1-3.2-social-tom,2023.2.2,Win32,59.88023952,65c5074098b851296ff0b7ed,66423732ea1b963499cab2bc,,,,,,,,,,,,,,,,,,,,,,,,,,,119.0117,121.5801,121.6157,1,audio/Narrative13Situation2.wav,123.629,,123.6297,153.4104,"[[999,2],[999,129],[999,214],[999,297],[999,379],[999,462],[999,546],[999,630],[999,713],[999,796],[999,880],[999,962],[999,1046],[999,1129],[999,1213],[999,1295],[999,1379],[999,1463],[999,1546],[999,1629],[999,1713],[999,1795],[999,1878],[999,1962],[999,2044],[999,2128],[999,2211],[999,2294],[999,2378],[999,2461],[999,2545],[999,2628],[999,2711],[999,2794],[999,2878],[999,2961],[999,3044],[999,3128],[999,3210],[999,3294],[999,3377],[999,3460],[999,3543],[999,3628],[999,3710],[999,3793],[999,3877],[999,3960],[999,4043],[999,4127],[999,4210],[999,4293],[999,4377],[999,4460],[999,4543],[999,4626],[999,4710],[999,4793],[999,4876],[999,4960],[999,5043],[999,5126],[999,5210],[999,5293],[999,5376],[999,5459],[999,5542],[999,5626],[999,5709],[999,5791],[999,5875],[999,5960],[999,6048],[999,6131],[999,6209],[999,6292],[999,6375],[999,6459],[999,6542],[999,6625],[999,6709],[999,6792],[999,6875],[999,6958],[999,7047],[999,7124],[999,7208],[999,7290],[999,7379],[10.3,7462],[10.4,7540],[10.7,7631],[11.1,7714],[11.4,7795],[11.4,7874],[11.4,7958],[11.4,8046],[11.5,8129],[11.9,8212],[12.6,8296],[13.2,8378],[13.5,8461],[13.9,8545],[13.9,8629],[13.9,8711],[13.9,8795],[13.9,8874],[13.9,8961],[13.9,9039],[13.9,9123],[13.9,9211],[13.9,9295],[13.9,9377],[13.9,9461],[13.9,9539],[13.9,9623],[13.9,9711],[13.9,9788],[13.9,9877],[13.9,9956],[13.9,10039],[13.9,10122],[13.9,10205],[13.9,10289],[13.9,10372],[13.9,10455],[13.9,10538],[13.9,10622],[13.9,10705],[13.9,10788],[13.9,10872],[13.9,10960],[13.9,11038],[13.9,11121],[13.9,11204],[13.9,11293],[13.9,11375],[13.9,11454],[13.9,11542],[14.6,11620],[15.6,11709],[19.3,11792],[31.1,11878],[40.3,11954],[44.8,12044],[45.1,12126],[45.1,12204],[45.1,12291],[45.1,12370],[45.1,12458],[44,12543],[42.9,12627],[42.9,12708],[42.4,12788],[42.3,12876],[42.3,12958],[42.3,13037],[42.3,13120],[42.3,13203],[42.3,13286],[42.3,13369],[42.3,13453],[42.3,13536],[42.3,13624],[42.3,13708],[41.6,13791],[40.8,13874],[40,13955],[39.8,14041],[39.8,14119],[41,14207],[45.3,14292],[46.7,14375],[47.1,14453],[47.3,14535],[47.3,14619],[47.8,14707],[48.8,14791],[49.3,14873],[50,14956],[50.3,15042],[50.4,15122],[50.4,15206],[50.4,15284],[50.4,15368],[50.4,15456],[50.4,15534],[50.4,15618],[50.4,15706],[50.4,15784],[50.4,15869],[50.4,15951],[50.4,16033],[50.4,16122],[50.4,16201],[50.4,16283],[50.4,16367],[50.4,16449],[50.4,16534],[50.4,16617],[50.4,16700],[50.4,16783],[50.4,16871],[50.4,16955],[50.4,17033],[50.4,17122],[50.4,17205],[50.4,17283],[50.4,17370],[50.4,17450],[50.4,17533],[50.4,17620],[50.4,17699],[50.4,17782],[50.4,17871],[50.4,17954],[50.4,18033],[50.4,18121],[50.4,18204],[50.4,18282],[50.4,18365],[50.4,18453],[50.4,18532],[50.4,18615],[50.4,18699],[50.4,18786],[50.4,18865],[50.4,18948],[50.4,19031],[50.4,19115],[50.4,19198],[50.4,19281],[50.4,19365],[50.4,19447],[50.4,19535],[50.4,19614],[50.4,19698],[50.4,19781],[50.4,19869],[50.4,19952],[50.4,20031],[50.4,20114],[50.4,20202],[50.4,20280],[50.4,20364],[50.4,20451],[50.4,20535],[50.4,20614],[50.4,20697],[50.4,20785],[50.4,20867],[51.7,20951],[54.6,21034],[55.7,21119],[56.5,21197],[57.4,21281],[58.2,21368],[58.9,21452],[59.3,21534],[59.3,21613],[59.3,21696],[59.3,21783],[59.3,21862],[59.3,21946],[59.3,22029],[59.3,22112],[59.3,22198],[59.3,22279],[59.3,22367],[59.3,22446],[59.3,22528],[59.3,22616],[59.3,22694],[59.3,22778],[59.3,22861],[59.3,22949],[60.8,23033],[64.4,23118],[67.9,23200],[72.4,23283],[74.4,23363],[76.6,23451],[77.1,23532],[77.1,23611],[77.1,23694],[77.1,23782],[77.1,23861],[77.1,23944],[77.1,24027],[77.1,24111],[77.1,24199],[78.2,24283],[79.2,24365],[79.7,24445],[79.7,24527],[80.7,24615],[81.3,24694],[81.6,24782],[81.8,24865],[82.2,24949],[82.5,25032],[82.5,25110],[82.6,25194],[82.8,25282],[83.2,25360],[83.3,25443],[83.8,25532],[84.1,25615],[84.4,25698],[84.6,25777],[84.7,25860],[84.9,25948],[85.1,26026],[85.2,26109],[85.4,26192],[85.4,26280],[85.4,26359],[85.6,26444],[86.3,26530],[87,26614],[87.3,26697],[87.8,26780],[89.9,26865],[91.1,26949],[91.4,27030],[91.4,27113],[91.4,27192],[91.4,27275],[91.4,27357],[91.4,27447],[91.4,27524],[91.4,27608],[90.9,27692],[90,27780],[89.2,27863],[88.2,27947],[87.6,28029],[87.4,28113],[87.1,28192],[87.1,28279],[87.1,28357],[87.1,28440],[87.1,28528],[87.1,28612],[86.9,28695],[86.4,28778],[85.7,28862],[85.7,28940],[85.3,29030],[85,29106],[85,29190],[85,29273],[85,29356],[85,29444],[85,29523],[85,29606],[85,29693],[85,29778]]",1,0,153.4111,162.3303,62.7083381,6.981,"[{""rating"":62.70833810170492,""responseTime"":6.9809999999999945}]",space,8.3869,,162.3311,Half the time,50,162.3412,,,[],,0,0,0,0,1,audio/Narrative13Situation2.wav,audio/Narrative13Situation2.wav,audio/Narrative13Situation2.wav,audio/Narrative13Situation2.wav,2,2,2,2,,,,,,,,,,,,,,,,,,,,,,,,,,,,,,,,,,,,,,,
,,,,,,63eab29693a6eb7fd0174010,2024-05-13_11h53.21.225,group3.1-3.2-social-tom,2023.2.2,Win32,59.88023952,65c5074098b851296ff0b7ed,66423732ea1b963499cab2bc,,,,,,,,,,,,,,,,,,,,,,,,,,,,,162.3417,1,audio/Narrative7Situation1.wav,164.1601,space,164.1602,220.0313,"[[58.8,999],[56,1081],[54.3,1166],[53.2,1248],[52.7,1333],[52.7,1415],[52.7,1498],[52.7,1581],[52.7,1665],[52.7,1748],[52.7,1831],[52.7,1915],[52.7,1998],[52.7,2081],[52.7,2164],[52.7,2247],[52.7,2331],[52.7,2414],[52.7,2497],[52.7,2581],[52.7,2664],[52.7,2747],[52.7,2831],[52.7,2914],[52.7,2997],[52.7,3080],[52.7,3163],[52.7,3246],[52.7,3330],[52.7,3413],[52.7,3497],[52.7,3580],[43,3663],[38.8,3747],[38.1,3829],[38.1,3912],[38.1,3996],[38.1,4079],[38.1,4162],[38.1,4246],[38.1,4330],[38.1,4412],[38.1,4495],[38.1,4578],[39.7,4662],[41.1,4745],[41.7,4829],[41.7,4912],[41.7,4996],[41.7,5080],[41.7,5162],[41.7,5244],[41.7,5328],[41.7,5411],[41.7,5495],[41.7,5578],[41.7,5661],[41.7,5744],[41.7,5828],[41.7,5912],[41.7,5994],[41.7,6078],[41.7,6161],[41.7,6245],[41.7,6328],[41.7,6411],[41.7,6494],[41.7,6578],[41.7,6661],[41.7,6744],[41.7,6827],[41.7,6911],[41.7,6994],[41.7,7077],[41.7,7159],[41.7,7243],[41.7,7327],[41.7,7411],[41.7,7494],[41.7,7576],[41.7,7661],[41.7,7743],[41.7,7827],[41.7,7910],[41.7,7993],[41.7,8076],[41.7,8160],[41.7,8243],[41.7,8326],[41.7,8409],[41.7,8493],[41.7,8575],[41.7,8659],[41.7,8743],[41.7,8825],[41.7,8909],[41.7,8992],[41.7,9075],[41.7,9159],[41.7,9242],[41.7,9326],[41.7,9409],[41.7,9492],[41.7,9575],[41.7,9659],[41.7,9741],[41.4,9826],[40.5,9907],[39.8,9990],[39.4,10074],[39.3,10158],[39.3,10241],[39.3,10325],[39.3,10408],[39.3,10491],[39.3,10574],[39.3,10658],[39.3,10741],[39.3,10823],[39.3,10907],[39.3,10990],[39.3,11074],[39.3,11157],[39.3,11240],[39.3,11324],[39.3,11407],[39.3,11490],[39.3,11573],[39.3,11656],[39.3,11740],[39.3,11823],[39.3,11906],[39.3,11989],[39.3,12073],[39.3,12157],[39.3,12239],[39.3,12323],[39.3,12406],[39.3,12489],[39.3,12573],[39.3,12655],[39.3,12739],[39.3,12822],[39.3,12906],[39.3,12989],[39.3,13072],[39.3,13155],[39.3,13239],[39.3,13322],[39.3,13405],[39.3,13489],[39.3,13572],[39.3,13655],[39.3,13739],[39.3,13822],[39.3,13905],[39.4,13989],[39.6,14071],[39.6,14154],[39.9,14238],[40.1,14321],[40.4,14404],[40.6,14487],[40.6,14571],[40.6,14654],[40.6,14738],[40.6,14821],[40.6,14904],[40.8,14988],[40.9,15071],[41,15154],[42.6,15236],[44.5,15321],[46,15403],[47.3,15486],[47.7,15570],[48.4,15653],[49,15736],[49.1,15820],[49.4,15903],[49.4,15987],[49.4,16070],[49.4,16153],[49.4,16236],[49.4,16320],[49.4,16403],[49.4,16486],[49.4,16570],[49.4,16652],[49.4,16736],[49.4,16820],[49.4,16903],[49.4,16986],[49.4,17069],[49.4,17153],[49.4,17236],[49.4,17319],[49.4,17402],[49.4,17485],[49.4,17569],[49.4,17652],[49.4,17735],[49.4,17818],[49.4,17902],[49.4,17985],[49.4,18068],[49.4,18152],[49.4,18234],[49.4,18318],[49.4,18401],[49.4,18484],[49.4,18568],[49.4,18651],[49.4,18734],[49.4,18817],[49.4,18901],[49.4,18984],[49.4,19067],[49.4,19151],[49.4,19234],[49.4,19317],[49.4,19401],[49.4,19484],[49.4,19567],[49.4,19651],[49.4,19733],[49.4,19817],[49.4,19900],[49.4,19984],[49.4,20067],[49.4,20149],[49.4,20233],[49.4,20316],[49.4,20399],[49.4,20483],[49.4,20566],[49.4,20649],[49.4,20732],[49.4,20816],[49.4,20899],[49.4,20983],[49.4,21066],[49.4,21149],[49.4,21232],[49.4,21315],[49.4,21399],[49.4,21482],[49.4,21566],[49.4,21648],[49.4,21732],[49.4,21816],[49.4,21898],[49.4,21981],[49.4,22065],[49.4,22148],[49.4,22231],[49.4,22315],[49.4,22398],[49.4,22481],[49.4,22564],[49.4,22648],[49.4,22731],[49.4,22814],[49.4,22898],[49.4,22981],[49.4,23064],[49.4,23147],[49.4,23230],[49.4,23314],[49.4,23397],[49.4,23480],[49.4,23564],[49.4,23647],[49.5,23729],[49.7,23813],[49.7,23896],[49.7,23980],[49.8,24064],[49.9,24146],[50,24229],[50,24313],[50,24396],[50,24480],[50,24563],[50,24646],[50,24730],[50,24813],[50,24896],[50,24979],[50,25062],[50,25146],[50,25229],[50,25312],[50,25396],[50,25479],[50,25562],[50,25645],[50,25729],[50,25812],[50,25895],[50,25978],[50,26061],[50,26144],[50,26227],[50,26311],[50,26394],[50,26478],[50,26562],[50,26644],[50,26728],[50,26811],[50,26893],[50,26977],[50,27061],[50,27144],[50,27227],[50,27311],[50,27394],[50,27476],[50,27560],[50,27644],[50,27727],[50,27809],[50,27893],[50,27976],[50,28060],[50,28142],[50,28226],[50,28310],[50,28393],[50,28476],[50,28560],[50,28642],[50,28726],[50,28810],[50,28893],[50,28976],[50,29059],[50,29142],[50,29225],[50,29309],[50,29392],[50,29476],[50,29559],[50,29642],[50,29726],[50,29809],[50,29891],[50,29974],[50,30058],[50,30141],[50,30224],[50,30308],[50,30391],[50,30474],[50,30558],[50,30641],[50,30724],[50,30808],[50.2,30890],[50.2,30974],[50.2,31057],[50.2,31141],[50.2,31223],[50.2,31306],[50.2,31390],[50.2,31473],[50.2,31557],[50.2,31641],[50.2,31724],[50.2,31807],[50.2,31891],[50.2,31973],[50.2,32056],[50.2,32140],[50.2,32222],[50.2,32306],[50.2,32390],[50.2,32473],[50.2,32556],[50.2,32639],[50.2,32723],[50.2,32806],[50.2,32889],[50.2,32973],[50.2,33056],[50.2,33139],[50.2,33222],[50.2,33305],[50.2,33389],[50.2,33472],[50.2,33555],[50.2,33638],[50.2,33722],[50.2,33805],[50.2,33889],[50.2,33972],[50.2,34055],[50.2,34139],[50.2,34221],[50.2,34304],[50.2,34388],[50.2,34472],[50.2,34555],[50.2,34638],[50.2,34721],[50.2,34804],[50.2,34887],[50.2,34971],[50.2,35054],[50.2,35137],[50.2,35220],[50.2,35304],[50.2,35387],[50.2,35470],[50.2,35554],[50.2,35637],[50.2,35720],[50.2,35803],[50.2,35887],[50.2,35970],[50.2,36053],[50.2,36136],[50.2,36219],[50.2,36303],[50.2,36386],[50.2,36470],[50.9,36553],[52.1,36635],[53.9,36720],[55.4,36804],[57.2,36885],[59.8,36968],[61.8,37052],[63,37135],[63.2,37218],[63.2,37302],[63.2,37385],[63.2,37469],[63.2,37552],[63.2,37635],[63.2,37719],[63.2,37802],[63.2,37885],[63.2,37968],[63.2,38052],[63.2,38135],[63.2,38218],[63.2,38301],[63.2,38385],[63.6,38469],[66.5,38550],[68.6,38634],[69.3,38717],[69.6,38802],[69.7,38884],[69.7,38967],[69.7,39051],[69.7,39134],[69.7,39217],[69.7,39300],[69.7,39384],[69.7,39467],[69.7,39551],[69.7,39633],[69.7,39717],[69.7,39800],[69.7,39883],[69.7,39967],[69.7,40050],[69.7,40133],[69.7,40217],[69.7,40299],[69.7,40383],[69.7,40467],[69.7,40550],[69.7,40633],[69.7,40716],[69.7,40800],[69.7,40883],[69.7,40966],[69.7,41049],[69.7,41133],[69.7,41216],[69.7,41299],[69.7,41382],[69.7,41465],[69.7,41549],[69.7,41632],[69.7,41715],[69.7,41799],[69.7,41882],[69.7,41965],[69.7,42048],[69.7,42132],[69.7,42215],[69.7,42298],[69.7,42382],[69.7,42464],[69.7,42548],[69.7,42632],[69.7,42715],[69.7,42798],[69.7,42881],[69.7,42964],[69.7,43048],[69.7,43131],[69.7,43214],[69.7,43297],[69.7,43381],[69.7,43464],[69.7,43547],[69.7,43630],[69.7,43714],[69.7,43797],[69.7,43880],[69.7,43963],[69.7,44047],[69.7,44130],[69.7,44213],[69.7,44297],[69.7,44380],[69.7,44464],[69.7,44547],[69.7,44630],[69.7,44713],[69.7,44796],[69.7,44880],[69.7,44963],[69.7,45046],[69.7,45129],[69.7,45213],[69.7,45296],[69.7,45379],[69.7,45463],[69.7,45545],[69.7,45629],[69.7,45712],[69.7,45796],[69.7,45879],[69.7,45962],[69.7,46046],[69.7,46129],[69.7,46212],[69.7,46295],[69.7,46378],[69.7,46462],[69.7,46544],[69.7,46627],[69.7,46711],[69.7,46794],[69.7,46877],[69.7,46961],[69.7,47044],[69.7,47127],[69.7,47211],[69.7,47295],[69.7,47378],[70.6,47460],[72.9,47544],[77.4,47626],[85,47710],[90.5,47793],[92.7,47879],[94.6,47960],[94.9,48043],[94.9,48127],[94.9,48211],[94.9,48293],[94.9,48377],[94.9,48461],[94.9,48543],[94.9,48627],[94.9,48710],[94.9,48793],[94.9,48876],[94.9,48959],[94.9,49042],[94.9,49125],[94.9,49210],[94.9,49292],[94.9,49376],[94.9,49459],[94.9,49543],[94.9,49626],[94.9,49709],[94.9,49792],[94.9,49875],[94.9,49959],[94.9,50042],[94.9,50125],[94.9,50209],[94.9,50291],[94.9,50375],[94.9,50458],[94.9,50542],[94.9,50625],[94.9,50707],[94.9,50791],[94.9,50874],[94.9,50957],[94.9,51041],[94.9,51124],[94.9,51208],[94.9,51290],[94.9,51373],[94.9,51458],[94.9,51540],[94.9,51623],[94.9,51707],[94.9,51791],[94.9,51873],[94.9,51957],[94.9,52041],[94.9,52123],[94.9,52206],[94.9,52290],[94.9,52373],[94.9,52457],[94.9,52540],[94.9,52623],[94.9,52707],[94.9,52789],[94.9,52873],[94.9,52956],[94.9,53039],[94.9,53123],[94.9,53206],[94.9,53288],[94.9,53373],[94.9,53456],[94.9,53539],[94.9,53621],[94.9,53705],[94.9,53788],[94.9,53872],[94.9,53956],[94.9,54038],[94.9,54122],[94.9,54205],[94.9,54289],[94.9,54372],[94.9,54455],[94.9,54538],[94.9,54621],[94.9,54705],[94.9,54788],[94.9,54871],[94.9,54954],[94.9,55037],[94.9,55121],[94.9,55204],[94.9,55287],[94.9,55370],[94.9,55454],[94.9,55537],[94.9,55621],[94.9,55704],[94.9,55788],[94.9,55870]]",1,0,220.0319,230.9438,69.16666826,7.901,"[{""rating"":69.16666825612387,""responseTime"":7.9010000000000105}]",space,10.3593,,230.9439,Half the time,50,230.9611,,,[],,0,1,1,1,1,audio/Narrative7Situation1.wav,audio/Narrative8Situation1.wav,audio/Narrative5Situation1.wav,audio/Narrative6Situation1.wav,2,5,5,2,1.7868,,,,,,,,,,,,,,,,,,,,,,,,,,,,,,,,,,,,,,
,,,,,,63eab29693a6eb7fd0174010,2024-05-13_11h53.21.225,group3.1-3.2-social-tom,2023.2.2,Win32,59.88023952,65c5074098b851296ff0b7ed,66423732ea1b963499cab2bc,,,,,,,,,,,,,,,,,,,,,,,,,,,,,230.9614,1,audio/Narrative7Situation2.wav,233.9702,,233.9703,241.4641,[],1,0,241.4644,249.2408,19.47917144,7.0968,"[{""rating"":0.2083341280619322,""responseTime"":5.0289000000003625},{""rating"":11.458333333333332,""responseTime"":6.07959999999963},{""rating"":19.47917143503825,""responseTime"":7.096800000000712}]",space,7.229,,249.2409,Half the time,50,249.2454,,,[],,0,2,2,2,1,audio/Narrative7Situation2.wav,audio/Narrative8Situation2.wav,audio/Narrative5Situation2.wav,audio/Narrative6Situation2.wav,3,3,3,3,,,,,,,,,,,,,,,,,,,,,,,,,,,,,,,,,,,,,,,
,,,,,,63eab29693a6eb7fd0174010,2024-05-13_11h53.21.225,group3.1-3.2-social-tom,2023.2.2,Win32,59.88023952,65c5074098b851296ff0b7ed,66423732ea1b963499cab2bc,,,,,,,,,,,,,,,,,,,,,,,,,,,,,249.246,1,audio/Narrative7Situation3.wav,257.2514,,257.2515,266.4939,"[[999,23],[999,98],[999,181],[999,265],[999,348],[999,432],[999,515],[999,598],[999,681],[999,764],[999,848],[999,931],[999,1014],[999,1098],[999,1181],[999,1264],[999,1348],[999,1431],[999,1514],[999,1597],[999,1681],[999,1763],[999,1847],[999,1930],[999,2013],[999,2097],[999,2179],[999,2263],[999,2347],[999,2430],[999,2513],[999,2596],[999,2680],[999,2763],[999,2846],[999,2930],[999,3012],[999,3096],[999,3179],[999,3262],[999,3347],[999,3429],[999,3511],[999,3596],[999,3681],[999,3762],[999,3845],[999,3929],[999,4012],[999,4094],[999,4178],[999,4262],[999,4346],[999,4428],[999,4512],[999,4596],[999,4678],[999,4761],[17,4844],[17.2,4927],[17.2,5011],[17.5,5095],[17.6,5177],[17.6,5261],[17.6,5344],[17.9,5427],[18.5,5511],[19.3,5593],[20,5678],[20.6,5761],[21,5843],[21.1,5927],[21.1,6010],[21.1,6093],[21.1,6176],[21.1,6260],[21.1,6343],[21.1,6427],[21.1,6509],[21.1,6592],[21.1,6676],[21.1,6760],[21.1,6843],[21.1,6926],[21.1,7009],[21.1,7093],[21.1,7175],[21.1,7260],[21.1,7342],[21.1,7426],[21.1,7509],[21.1,7593],[21.1,7676],[21.1,7759],[21.1,7841],[21.1,7925],[21.1,8009],[21.1,8092],[21.1,8175],[21.1,8258],[21.1,8341],[21.1,8425],[21.1,8508],[21.1,8592],[21.1,8675],[21.1,8758],[21.1,8841],[21.1,8924],[21.1,9008],[21.1,9091],[21.1,9174]]",1,0,266.4942,269.2799,23.75000318,1.5518,"[{""rating"":23.750003178914387,""responseTime"":1.5517999999988774}]",space,2.2424,,269.2801,Not at all,0,269.2876,,,[],,0,3,3,3,1,audio/Narrative7Situation3.wav,audio/Narrative8Situation3.wav,audio/Narrative5Situation3.wav,audio/Narrative6Situation3.wav,8,4,3,5,,,,,,,,,,,,,,,,,,,,,,,,,,,,,,,,,,,,,,,
,,,,,,63eab29693a6eb7fd0174010,2024-05-13_11h53.21.225,group3.1-3.2-social-tom,2023.2.2,Win32,59.88023952,65c5074098b851296ff0b7ed,66423732ea1b963499cab2bc,,,,,,,,,,,,,,,,,,,,,,,,,,,,,269.2881,1,audio/Narrative7Situation4.wav,272.2886,,272.2887,284.0281,"[[999,21],[999,98],[999,182],[999,266],[999,349],[999,432],[999,515],[999,599],[999,681],[999,764],[999,848],[999,931],[999,1014],[999,1097],[999,1181],[999,1264],[999,1347],[999,1431],[999,1514],[999,1598],[999,1681],[999,1764],[999,1847],[999,1931],[999,2014],[999,2097],[999,2180],[999,2264],[999,2347],[999,2430],[999,2513],[999,2597],[999,2680],[999,2763],[999,2847],[999,2930],[999,3013],[999,3096],[999,3179],[999,3262],[999,3346],[999,3430],[999,3512],[999,3595],[999,3679],[999,3762],[999,3845],[999,3929],[999,4012],[999,4096],[999,4178],[999,4262],[999,4346],[999,4428],[999,4512],[999,4595],[999,4678],[999,4762],[999,4845],[999,4928],[999,5012],[999,5095],[999,5178],[999,5262],[999,5345],[999,5427],[999,5511],[999,5594],[999,5678],[999,5761],[999,5844],[999,5928],[999,6011],[999,6093],[999,6177],[999,6260],[999,6344],[999,6427],[999,6511],[999,6594],[999,6677],[999,6759],[999,6843],[999,6926],[999,7010],[999,7093],[999,7177],[999,7260],[999,7343],[999,7427],[999,7510],[999,7593],[50.2,7675],[51.1,7758],[51.3,7843],[51.3,7926],[51.3,8009],[51.3,8093],[51.3,8176],[51.3,8259],[51.3,8343],[51.1,8425],[50.9,8508],[50.8,8592],[50.6,8675],[50.6,8758],[50.6,8842],[50.6,8925],[50.6,9008],[50.6,9092],[50.6,9174],[50.6,9258],[50.6,9341],[50.6,9424],[50.6,9508],[50.6,9591],[50.6,9674],[50.6,9758],[50.6,9841],[50.6,9924],[50.6,10008],[50.6,10091],[50.6,10174],[50.6,10257],[50.6,10341],[50.6,10424],[50.6,10507],[50.6,10590],[50.6,10674],[50.6,10756],[50.6,10839],[50.6,10924],[50.6,11006],[50.6,11090],[50.6,11173],[50.6,11257],[50.6,11340],[50.6,11422],[50.6,11506],[50.6,11590],[50.6,11672]]",1,0,284.0283,291.8056,48.95833333,5.8345,"[{""rating"":39.27083810170491,""responseTime"":4.119900000000371},{""rating"":48.95833333333333,""responseTime"":5.834499999999991}]",space,7.25,,291.8057,All the time,100,291.8145,,,[],,0,4,4,4,1,audio/Narrative7Situation4.wav,audio/Narrative8Situation4.wav,audio/Narrative5Situation4.wav,audio/Narrative6Situation4.wav,3,3,1,2,,,,,,,,,,,,,,,,,,,,,,,,,,,,,,,,,,,,,,,
,,,,,,63eab29693a6eb7fd0174010,2024-05-13_11h53.21.225,group3.1-3.2-social-tom,2023.2.2,Win32,59.88023952,65c5074098b851296ff0b7ed,66423732ea1b963499cab2bc,,,,,,,,,,,,,,,,,,,,,,,,,,,,,291.815,1,audio/Narrative7Situation5.wav,296.8184,,296.8185,305.2949,"[[999,19],[999,82],[999,166],[999,249],[999,333],[999,416],[999,499],[999,582],[999,665],[999,749],[999,832],[999,916],[999,998],[999,1086],[999,1165],[999,1252],[999,1336],[999,1415],[999,1498],[999,1586],[999,1665],[999,1748],[999,1831],[999,1914],[999,2003],[999,2086],[999,2169],[999,2247],[999,2331],[999,2414],[999,2502],[999,2580],[999,2664],[999,2752],[999,2836],[999,2913],[999,2997],[999,3080],[999,3168],[999,3251],[999,3330],[999,3414],[999,3502],[999,3584],[999,3663],[999,3746],[999,3829],[999,3913],[999,3996],[999,4083],[999,4162],[999,4250],[999,4329],[999,4412],[999,4496],[999,4579],[999,4662],[999,4745],[999,4829],[999,4912],[999,5000],[999,5079],[999,5166],[999,5250],[999,5329],[999,5412],[999,5495],[999,5583],[999,5665],[999,5746],[999,5833],[999,5917],[999,5999],[999,6082],[999,6165],[999,6245],[999,6332],[999,6415],[999,6500],[999,6582],[999,6662],[999,6743],[999,6831],[999,6912],[999,6998],[999,7077],[999,7165],[7.6,7259],[8.1,7342],[8.9,7426],[10.4,7510],[12.6,7593],[13.4,7676],[15.8,7759],[18.5,7843],[19.1,7926],[19.2,8009],[19.2,8093],[19.2,8176],[19.2,8259],[19.2,8343],[19.2,8425]]",1,0,305.2951,307.6921,18.75,1.3551,"[{""rating"":18.75,""responseTime"":1.355099999999652}]",space,1.8544,,307.6922,All the time,100,307.6957,,,[],,0,5,5,5,1,audio/Narrative7Situation5.wav,audio/Narrative8Situation5.wav,audio/Narrative5Situation5.wav,audio/Narrative6Situation5.wav,5,2,5,2,,,,,,,,,,,,,,,,,,,,,,,,,,,,,,,,,,,,,,,
,,,,,,63eab29693a6eb7fd0174010,2024-05-13_11h53.21.225,group3.1-3.2-social-tom,2023.2.2,Win32,59.88023952,65c5074098b851296ff0b7ed,66423732ea1b963499cab2bc,,,,,,,,,,,,,,,,,,,,,,,,,,,,,307.6962,1,audio/Narrative7Situation6.wav,310.7069,,310.707,320.6828,"[[999,21],[999,99],[999,182],[999,266],[999,349],[999,432],[999,516],[999,599],[999,681],[999,765],[999,848],[999,932],[999,1015],[999,1098],[999,1182],[999,1265],[999,1348],[999,1430],[999,1514],[999,1598],[999,1680],[999,1764],[999,1848],[999,1931],[999,2014],[999,2097],[999,2180],[999,2264],[999,2347],[999,2431],[999,2514],[999,2596],[999,2680],[999,2763],[999,2847],[999,2930],[999,3013],[999,3096],[999,3179],[999,3263],[999,3346],[999,3429],[999,3514],[999,3596],[999,3679],[999,3763],[999,3845],[999,3929],[999,4012],[999,4096],[999,4179],[999,4262],[49.9,4345],[49.9,4429],[49.9,4512],[49.9,4595],[49.9,4678],[50,4762],[50.2,4845],[50.5,4928],[51,5012],[51.8,5096],[52.4,5178],[53,5261],[54.1,5344],[54.5,5428],[54.9,5510],[55.2,5594],[55.2,5678],[55.5,5760],[55.7,5843],[55.7,5927],[55.7,6010],[55.7,6095],[55.7,6177],[55.7,6260],[55.7,6343],[55.7,6426],[55.7,6510],[55.7,6593],[55.7,6676],[55.7,6760],[55.7,6843],[55.7,6927],[55.7,7010],[55.7,7094],[55.7,7176],[55.7,7259],[55.7,7343],[55.7,7426],[55.7,7510],[55.7,7593],[55.7,7676],[57.8,7760],[59.8,7842],[60.3,7925],[60.4,8009],[61.1,8092],[61.7,8175],[61.7,8259],[61.7,8342],[61.7,8426],[61.7,8509],[61.7,8592],[61.7,8675],[61.7,8758],[61.7,8841],[61.7,8925],[61.7,9008],[61.7,9091],[59.5,9175],[58.1,9258],[57.4,9341],[56.5,9424],[56.4,9507],[56.4,9590],[56.4,9674],[56.7,9758],[57.7,9840],[58.3,9924]]",1,0,320.6832,325.3613,51.5625,3.9527,"[{""rating"":59.99999841054281,""responseTime"":2.0429000000003725},{""rating"":51.5625,""responseTime"":3.95270000000113}]",space,4.1313,,325.3616,All the time,100,325.3669,,,[],,0,6,6,6,1,audio/Narrative7Situation6.wav,audio/Narrative8Situation6.wav,audio/Narrative5Situation6.wav,audio/Narrative6Situation6.wav,3,2,3,2,,,,,,,,,,,,,,,,,,,,,,,,,,,,,,,,,,,,,,,
,,,,,,63eab29693a6eb7fd0174010,2024-05-13_11h53.21.225,group3.1-3.2-social-tom,2023.2.2,Win32,59.88023952,65c5074098b851296ff0b7ed,66423732ea1b963499cab2bc,,,,,,,,,,,,,,,,,,,,,,,,,,,,,325.3674,1,audio/Narrative7Situation7.wav,330.374,,330.374,347.5439,"[[999,19],[999,82],[999,166],[999,250],[999,333],[999,416],[999,499],[999,587],[999,666],[999,749],[999,833],[999,916],[999,1004],[999,1087],[999,1165],[999,1249],[999,1332],[999,1420],[999,1503],[999,1581],[999,1665],[999,1748],[999,1836],[999,1915],[999,2004],[999,2086],[999,2165],[999,2252],[999,2336],[999,2414],[999,2497],[999,2582],[999,2666],[999,2747],[999,2830],[999,2914],[999,3001],[999,3079],[999,3164],[999,3247],[999,3335],[999,3414],[999,3498],[999,3585],[999,3663],[999,3747],[999,3829],[999,3918],[999,3996],[999,4080],[999,4163],[999,4246],[999,4331],[999,4417],[999,4496],[999,4584],[999,4666],[999,4750],[999,4835],[999,4912],[999,4995],[999,5084],[77.6,5164],[78.4,5250],[78.9,5329],[79.2,5412],[79.2,5499],[79.2,5577],[79.2,5661],[79.2,5745],[79.2,5827],[79.2,5911],[79.2,5994],[79.1,6078],[78.9,6162],[78.2,6250],[77.5,6334],[77.2,6412],[76.4,6495],[75.7,6583],[75.4,6661],[75.1,6750],[75.1,6832],[75.1,6911],[75.1,6994],[75.1,7077],[75.1,7160],[75.1,7243],[75.1,7331],[75.1,7415],[75.1,7498],[75.1,7576],[75.1,7660],[75.1,7748],[75.1,7826],[75.1,7910],[75.1,7997],[75.1,8076],[75.1,8160],[75.1,8243],[75.1,8326],[75.1,8409],[75.1,8493],[75.1,8576],[75.1,8658],[75.1,8742],[75.1,8825],[75.1,8908],[75.1,8992],[75.1,9080],[75.1,9159],[75.1,9246],[75.1,9331],[75.1,9408],[75.1,9496],[75.1,9574],[75.1,9664],[75.1,9741],[75.1,9825],[75.1,9908],[75.1,9991],[75.1,10079],[75.1,10157],[75.1,10246],[75.1,10329],[75.1,10413],[75.1,10496],[75.1,10574],[75.1,10658],[75.1,10741],[75.1,10829],[75.1,10908],[75.1,10995],[75.1,11074],[75.1,11158],[75.1,11245],[75.1,11323],[75.1,11407],[75.1,11490],[75.1,11578],[75.1,11657],[75.1,11740],[75.1,11828],[75.1,11906],[75.1,11995],[75.1,12072],[75.1,12157],[75.1,12244],[75.1,12323],[75.1,12411],[75.1,12490],[75.1,12573],[75.1,12656],[75.1,12739],[75.1,12827],[75.1,12910],[75.1,12989],[75.1,13071],[75.1,13154],[75.1,13238],[75.1,13321],[75.1,13405],[75.1,13493],[75.1,13577],[75.1,13655],[75.1,13738],[75.1,13822],[75.1,13903],[75.1,13987],[75.1,14070],[75.1,14154],[75.1,14237],[75.1,14321],[75.1,14405],[75.1,14488],[75.1,14571],[75.1,14653],[75.1,14737],[75.1,14820],[75.1,14904],[75.1,14987],[75.1,15075],[75.1,15153],[75.1,15237],[75.1,15325],[75.1,15404],[75.1,15487],[75.1,15570],[75.1,15654],[75.1,15737],[75.1,15825],[75.1,15903],[75.1,15991],[75.1,16069],[75.1,16153],[75.1,16241],[75.1,16319],[75.1,16403],[75.1,16486],[75.1,16574],[75.1,16653],[75.1,16740],[75.1,16819],[75.1,16907],[75.1,16986],[75.1,17069],[75.1,17157]]",1,0,347.5443,351.5732,71.45833174,1.7186,"[{""rating"":71.45833174387613,""responseTime"":1.7186000000015156}]",space,3.4813,,351.5734,Half the time,50,351.596,,,[],,0,7,7,7,1,audio/Narrative7Situation7.wav,audio/Narrative8Situation7.wav,audio/Narrative5Situation7.wav,audio/Narrative6Situation7.wav,5,3,4,5,,,,,,,,,,,,,,,,,,,,,,,,,,,,,,,,,,,,,,,
,,,,,,63eab29693a6eb7fd0174010,2024-05-13_11h53.21.225,group3.1-3.2-social-tom,2023.2.2,Win32,59.88023952,65c5074098b851296ff0b7ed,66423732ea1b963499cab2bc,,,,,,,,,,,,,,,,,,,,,,,,,,,,,351.5962,1,audio/Narrative7Situation8.wav,353.605,,353.6052,363.6303,[],1,0,363.6305,369.8466,41.14583333,4.7388,"[{""rating"":41.14583333333333,""responseTime"":4.738800000000765}]",space,5.6691,,369.8466,Not at all,0,384.9955,0,12.2404,"[{""rating"":0.4166682561238588,""responseTime"":11.365899999998476},{""rating"":0,""responseTime"":12.240399999998488}]",space,0,8,8,8,1,audio/Narrative7Situation8.wav,audio/Narrative8Situation8.wav,audio/Narrative5Situation8.wav,audio/Narrative6Situation8.wav,2,3,3,5,,,14.6073,,,,,,,,,,,,,,,,,,,,,,,,,,,,,,,,,,,,
,,,,,,63eab29693a6eb7fd0174010,2024-05-13_11h53.21.225,group3.1-3.2-social-tom,2023.2.2,Win32,59.88023952,65c5074098b851296ff0b7ed,66423732ea1b963499cab2bc,,,,,,,,,,,,,,,,,,,,,,,,,,,,,384.9963,1,audio/Narrative7Situation9.wav,387.0108,,387.0108,395.6544,"[[7.5,6326],[49.4,6993],[50,7077],[56.4,7492],[55.4,7576],[53.7,7661],[52.2,7742],[51.9,7826],[50,7909],[46.7,7992],[46.7,8075],[46.7,8159],[46.7,8242],[46.7,8326],[46.7,8408],[47.3,8492],[47.4,8575]]",1,0,395.6547,398.4845,32.91666508,2.3105,"[{""rating"":32.91666507720947,""responseTime"":2.3104999999999905}]",space,2.2857,,398.4847,All the time,100,398.4922,,,[],,0,9,9,9,1,audio/Narrative7Situation9.wav,audio/Narrative8Situation9.wav,audio/Narrative5Situation9.wav,audio/Narrative6Situation9.wav,2,3,3,4,,,,,,,,,,,,,,,,,,,,,,,,,,,,,,,,,,,,,,,
,,,,,,63eab29693a6eb7fd0174010,2024-05-13_11h53.21.225,group3.1-3.2-social-tom,2023.2.2,Win32,59.88023952,65c5074098b851296ff0b7ed,66423732ea1b963499cab2bc,,,,,,,,,,,,,,,,,,,,,,,,,,,,,398.4926,1,audio/Narrative8Situation1.wav,403.4971,,403.4971,419.4176,"[[31.6,4500],[30.7,4581],[30.1,4663],[29.8,4746],[29.8,4829],[29.8,4916],[29.8,4995],[29.8,5079],[24.7,5169],[22.6,5250],[21.1,5329],[20.4,5411],[19.7,5495],[19.6,5578],[19.5,5667],[19.5,5750],[19.4,5828],[19.4,5911],[19.4,5995],[19.4,6083],[19.4,6167],[19.4,6245],[19.4,6328],[19.4,6411],[19.4,6494],[19.4,6583],[19.4,6661],[19.4,6749],[19.4,6833],[19.4,6910],[19.4,6994],[19.4,7082],[19.4,7165],[19.4,7244],[19.4,7327],[19.4,7415],[19.4,7494],[19.4,7581],[19.4,7660],[19.4,7744],[19.4,7826],[19.4,7910],[19.4,7993],[19.4,8081],[19.4,8160],[19.4,8243],[19.4,8326],[19.4,8410],[19.4,8493],[19.4,8576],[19.4,8664],[19.4,8747],[19.4,8826],[19.4,8914],[19.4,8992],[19.4,9081],[19.4,9159],[19.4,9246],[19.4,9326],[19.4,9413],[19.4,9497],[19.4,9575],[19.4,9664],[19.4,9742],[19.4,9825],[19.4,9908],[19.4,9991],[19.4,10075],[19.4,10163],[19.4,10242],[21.1,10324],[22.8,10413],[23.5,10496],[24,10580],[24.4,10664],[24.5,10745],[24.5,10824],[24.5,10907],[24.5,10990],[24.5,11074],[24.5,11157],[24.5,11240],[24.5,11324],[24.5,11407],[24.5,11490],[24.5,11574],[24.5,11661],[24.5,11740],[24.5,11824],[24.5,11906],[24.5,11994],[24.5,12074],[24.5,12156],[24.5,12239],[24.5,12323],[24.5,12406],[24.5,12494],[24.5,12578],[24.5,12656],[24.5,12744],[24.5,12822],[24.5,12905],[24.5,12993],[24.5,13077],[24.5,13156],[24.5,13239],[24.5,13327],[24.5,13405],[24.5,13488],[24.5,13572],[24.5,13656],[24.5,13738],[24.5,13822],[24.5,13905],[24.5,13988],[24.5,14071],[24.5,14160],[24.5,14238],[24.5,14321],[24.5,14404],[24.5,14487],[24.5,14571],[24.5,14654],[24.5,14742],[24.3,14821],[23.1,14920],[22.5,15003],[21.5,15087],[20.6,15170],[20.1,15254],[19.9,15336],[19.4,15420],[18.9,15503],[18.4,15588],[18,15669],[17.9,15753],[17.9,15836],[17.9,15920]]",1,0,419.4177,421.6155,25.72917144,1.5227,"[{""rating"":25.729171435038246,""responseTime"":1.5226999999992472}]",space,1.6552,,421.6156,Half the time,50,421.6225,,,[],,0,10,10,10,1,audio/Narrative8Situation1.wav,audio/Narrative7Situation1.wav,audio/Narrative6Situation1.wav,audio/Narrative5Situation1.wav,5,2,2,5,,,,,,,,,,,,,,,,,,,,,,,,,,,,,,,,,,,,,,,
,,,,,,63eab29693a6eb7fd0174010,2024-05-13_11h53.21.225,group3.1-3.2-social-tom,2023.2.2,Win32,59.88023952,65c5074098b851296ff0b7ed,66423732ea1b963499cab2bc,,,,,,,,,,,,,,,,,,,,,,,,,,,,,421.623,1,audio/Narrative8Situation2.wav,424.629,,424.6291,434.7381,"[[25.8,333],[26.3,416],[27,501],[27.6,583],[27.6,666],[27.6,750],[26.8,832],[25.9,915],[25.6,1000],[24.9,1082],[24,1166],[23.2,1249],[23,1333],[23,1415],[23,1499],[23,1582],[23,1665],[22.9,1748],[22.8,1832],[22.7,1916],[22.6,1999],[22.6,2081],[22.6,2164],[22.7,2248],[22.8,2332],[22.9,2415],[22.9,2499],[23.1,2581],[23.2,2664],[23.4,2747],[23.6,2830],[23.9,2914],[24.2,2998],[24.5,3080],[24.7,3164],[24.9,3247],[25.4,3331],[25.5,3413],[25.5,3497],[25.5,3580],[25.5,3663],[25.5,3747],[24.7,3830],[24.4,3913],[23.9,3997],[23.5,4079],[23.3,4163],[23.3,4247],[24,4329],[24.5,4413],[24.7,4497],[24.7,4580],[25,4662],[25.2,4746],[25.2,4829],[25.2,4912],[25.2,4996],[25.2,5079],[25.7,5162],[26.4,5245],[27.3,5329],[27.6,5411],[27.9,5495],[27.9,5579],[27.7,5663],[26.5,5745],[25.6,5828],[25,5911],[24.8,5995],[24.6,6078],[24.6,6162],[24.6,6245],[24.9,6328],[25.2,6411],[25.9,6494],[27.1,6578],[28.9,6661],[30.2,6744],[30.7,6827],[31.5,6911],[31.8,6994],[31.8,7077],[31.8,7161],[31.8,7243],[31.8,7327],[31.8,7411],[31.8,7494],[31.8,7577],[31.8,7661],[32,7743],[32.2,7827],[32.5,7911],[32.6,7993],[32.1,8077],[31.4,8160],[30.9,8243],[32,8326],[33.2,8409],[34.4,8493],[35.8,8577],[37.4,8659],[38.3,8743],[39.1,8826],[40.1,8908],[41.7,8992],[43.1,9076],[44.7,9159],[45.8,9244],[46.4,9325],[47.2,9409],[48.1,9491],[48.6,9575],[49.2,9659],[49.5,9742],[50,9826],[50,9909],[50.3,9992],[50.4,10074]]",1,0,434.7384,437.1863,34.27083492,1.7573,"[{""rating"":34.27083492279053,""responseTime"":1.7573000000007823}]",space,1.9041,,437.1864,All the time,100,437.1932,,,[],,0,11,11,11,1,audio/Narrative8Situation2.wav,audio/Narrative7Situation2.wav,audio/Narrative6Situation2.wav,audio/Narrative5Situation2.wav,3,3,3,3,,,,,,,,,,,,,,,,,,,,,,,,,,,,,,,,,,,,,,,
,,,,,,63eab29693a6eb7fd0174010,2024-05-13_11h53.21.225,group3.1-3.2-social-tom,2023.2.2,Win32,59.88023952,65c5074098b851296ff0b7ed,66423732ea1b963499cab2bc,,,,,,,,,,,,,,,,,,,,,,,,,,,,,437.1936,1,audio/Narrative8Situation3.wav,441.1996,,441.1996,463.598,"[[21.4,2764],[26.4,2846],[30.2,2929],[31.8,3012],[33.2,3097],[35.4,3179],[38.5,3262],[43,3346],[45.7,3431],[48.1,3512],[49.7,3598],[50.8,3679],[51.5,3763],[51.5,3846],[51.5,3929],[51.5,4012],[51.5,4096],[51.5,4179],[51.5,4262],[51.5,4346],[51.5,4429],[51.5,4511],[51.5,4596],[50.7,4678],[50.4,4761],[51.4,4845],[53.3,4929],[54.7,5011],[55.7,5096],[55.9,5178],[54.3,5261],[52.2,5344],[51.7,5427],[51.7,5512],[51.7,5594],[51.8,5679],[51.9,5761],[51.9,5845],[51.9,5928],[51.9,6011],[51.4,6094],[50.2,6177],[49.8,6260],[49.8,6344],[50.3,6426],[50.3,6510],[50.3,6594],[50.2,6677],[50.2,6760],[50.5,6844],[51,6926],[51.6,7009],[51.8,7093],[52.3,7176],[52.3,7260],[52.3,7343],[52.9,7426],[53.9,7509],[54.1,7592],[54.4,7676],[55.7,7762],[56.8,7842],[57.3,7926],[58,8009],[58.3,8093],[57.9,8175],[56.7,8258],[55.4,8342],[54.8,8426],[53.7,8509],[52.8,8591],[52.4,8675],[52.3,8758],[52.5,8843],[53,8925],[53,9009],[53,9092],[52.4,9175],[51.7,9258],[51.1,9341],[50.3,9426],[49.3,9507],[49,9591],[48.6,9676],[48,9757],[47.5,9841],[47.3,9923],[47.3,10007],[47.4,10090],[48.3,10174],[49,10257],[49.4,10341],[49.4,10424],[49.7,10507],[49.7,10590],[50,10674],[50.2,10756],[50.5,10841],[50.8,10923],[51.3,11006],[51.6,11090],[52.1,11174],[52.4,11257],[53,11341],[53.1,11423],[53.6,11506],[54.2,11589],[54.6,11673],[54.7,11756],[54.7,11840],[54.7,11923],[54.4,12006],[53.7,12088],[53.7,12172],[53.7,12256],[54.2,12339],[54.4,12422],[54.4,12506],[54.4,12589],[55,12673],[55.2,12756],[55.2,12839],[55.2,12922],[54.8,13004],[54.3,13088],[54.3,13172],[54.5,13254],[54.7,13337],[55,13421],[55.4,13504],[55.5,13589],[55.9,13671],[55.9,13754],[55.9,13838],[55.9,13921],[55.5,14004],[55.2,14089],[54.4,14170],[54,14253],[54,14337],[53.9,14420],[54,14504],[55.8,14587],[56.8,14670],[57.7,14753],[57.8,14836],[58.3,14920],[59.2,15003],[59.4,15086],[59.4,15169],[59.9,15253],[60.2,15336],[60.6,15419],[60.6,15502],[60.9,15586],[61.5,15669],[61.9,15753],[62,15835],[62,15919],[62,16002],[62,16086],[62,16169],[62,16251],[61.9,16335],[61.8,16419],[61.4,16503],[61,16586],[60.8,16669],[60.9,16752],[61.3,16836],[61.3,16919],[61.1,17003],[60.8,17085],[60.5,17168],[59.9,17251],[59.2,17334],[58.4,17417],[58,17501],[57.9,17584],[57.9,17668],[58.1,17752],[58.5,17834],[58.9,17917],[58.9,18001],[58.9,18084],[58.9,18168],[58.1,18250],[57.1,18333],[56.7,18418],[56.7,18501],[57.1,18584],[57.8,18667],[58.6,18750],[59.4,18833],[59.7,18917],[59.7,19000],[59.7,19084],[59.7,19166],[59.5,19250],[59.2,19334],[58.3,19417],[57.6,19500],[57.1,19583],[56.9,19666],[56.9,19750],[56.9,19833],[56.9,19916],[56.9,19999],[56.9,20082],[56.9,20166],[56.9,20249],[56.9,20332],[56.4,20416],[55.1,20498],[54.1,20582],[53.3,20665],[52.7,20748],[52.2,20832],[51.8,20916],[51.5,20999],[50.7,21082],[50.3,21165],[50.3,21248],[50.5,21332],[51,21414],[52.1,21498],[53.6,21582],[55.2,21664],[56.8,21748],[57.6,21830],[58.3,21914],[59.2,21998],[59.7,22081],[59.8,22164],[59.8,22247],[60.2,22331]]",1,0,463.5984,466.3622,58.54167144,1.9705,"[{""rating"":58.541671435038246,""responseTime"":1.9705000000000155}]",space,2.2178,,466.3623,Half the time,50,466.3707,,,[],,0,12,12,12,1,audio/Narrative8Situation3.wav,audio/Narrative7Situation3.wav,audio/Narrative6Situation3.wav,audio/Narrative5Situation3.wav,4,8,5,3,,,,,,,,,,,,,,,,,,,,,,,,,,,,,,,,,,,,,,,
,,,,,,63eab29693a6eb7fd0174010,2024-05-13_11h53.21.225,group3.1-3.2-social-tom,2023.2.2,Win32,59.88023952,65c5074098b851296ff0b7ed,66423732ea1b963499cab2bc,,,,,,,,,,,,,,,,,,,,,,,,,,,,,466.3713,1,audio/Narrative8Situation4.wav,469.376,,469.3761,483.5649,"[[54,6660],[49.7,6744],[48.5,6827],[48.3,6910],[48.3,6994],[48.3,7076],[48.3,7160],[48.3,7244],[48.3,7327],[48.3,7410],[48.3,7493],[48.3,7577],[48.3,7659],[48,7744],[47.7,7827],[47.5,7910],[47.1,7992],[47,8075],[47,8160],[47,8243],[47,8326],[47,8409],[47,8492],[47,8575],[46.1,8659],[44.2,8741],[44.2,8825],[44.2,8909],[45.3,8991],[46.4,9074],[47.8,9158],[48.4,9241],[48.6,9324],[48.6,9408],[48.6,9492],[48.6,9575],[48.6,9658],[48.6,9741],[48.6,9825],[48.6,9908],[48.6,9991],[48.6,10074],[48.6,10158],[48.6,10241],[48.6,10324],[48.6,10408],[48.6,10491],[48.6,10574],[48.6,10657],[47.5,10741],[46.3,10823],[45.1,10908],[44,10991],[43.6,11073],[43.6,11157],[43.6,11240],[44.3,11323],[44.5,11407],[45.1,11490],[45.7,11573],[46,11657],[46,11739],[46,11822],[46,11906],[45.9,11990],[45.1,12072],[44.9,12156],[44.2,12239],[43.6,12322],[43.4,12406],[43.4,12489],[43.4,12573],[43.4,12656],[43.4,12739],[43.6,12822],[44.5,12905],[44.7,12988],[45.1,13072],[45.3,13155],[45.5,13238],[45.5,13322],[45,13405],[44.1,13489],[43.4,13571],[43,13655],[43,13738],[43,13821],[44.1,13905],[44.5,13987],[45.1,14071],[45.3,14155]]",1,0,483.5652,487.5612,49.58333174,3.6199,"[{""rating"":46.97916507720947,""responseTime"":2.360299999998915},{""rating"":49.583331743876144,""responseTime"":3.6199000000003707}]",space,3.4485,,487.5612,Not at all,0,487.5684,,,[],,0,13,13,13,1,audio/Narrative8Situation4.wav,audio/Narrative7Situation4.wav,audio/Narrative6Situation4.wav,audio/Narrative5Situation4.wav,3,3,2,1,,,,,,,,,,,,,,,,,,,,,,,,,,,,,,,,,,,,,,,
,,,,,,63eab29693a6eb7fd0174010,2024-05-13_11h53.21.225,group3.1-3.2-social-tom,2023.2.2,Win32,59.88023952,65c5074098b851296ff0b7ed,66423732ea1b963499cab2bc,,,,,,,,,,,,,,,,,,,,,,,,,,,,,487.5689,1,audio/Narrative8Situation5.wav,489.5765,,489.5765,497.836,"[[56.9,2829],[57.7,2914],[57.8,2996],[57.5,3080],[56.7,3164],[56.1,3246],[55.9,3329],[55.9,3413],[55.9,3496],[55.9,3579],[56,3663],[56.3,3746],[57.4,3829],[59.6,3912],[60.8,3996],[61.5,4078],[61.7,4162],[61.7,4246],[61.7,4329],[61.7,4412],[61.7,4495],[61.7,4578],[61.7,4662],[61.7,4745],[61.7,4828],[61.7,4911],[61.7,4995],[61.7,5078],[61.8,5161],[63,5245],[63.3,5328],[63.5,5413],[64.8,5495],[65.4,5577],[65.6,5661],[65.6,5745],[65.6,5827],[65.6,5910],[65.6,5994],[65.6,6077],[65.6,6161],[65.6,6244],[65.6,6327],[65.6,6410],[65.6,6494],[65.6,6577],[65.6,6660],[65.6,6744],[65.6,6827],[65.6,6910],[65.6,6993],[65.6,7077],[65.6,7160],[70.6,7243],[74.5,7325],[74.8,7409],[74.8,7493],[74.6,7576],[74.6,7659],[74.6,7743],[74.6,7826],[74.6,7908],[74.6,7993],[74.6,8076],[73.5,8158],[73.3,8242]]",1,0,497.8363,499.5838,70.00000477,1.2936,"[{""rating"":70.00000476837158,""responseTime"":1.2935999999996284}]",space,1.2037,,499.5839,Not at all,0,499.5857,,,[],,0,14,14,14,1,audio/Narrative8Situation5.wav,audio/Narrative7Situation5.wav,audio/Narrative6Situation5.wav,audio/Narrative5Situation5.wav,2,5,2,5,,,,,,,,,,,,,,,,,,,,,,,,,,,,,,,,,,,,,,,
,,,,,,63eab29693a6eb7fd0174010,2024-05-13_11h53.21.225,group3.1-3.2-social-tom,2023.2.2,Win32,59.88023952,65c5074098b851296ff0b7ed,66423732ea1b963499cab2bc,,,,,,,,,,,,,,,,,,,,,,,,,,,,,499.5861,1,audio/Narrative8Situation6.wav,501.6,,501.6,508.078,"[[74,581],[73.9,665],[72.5,748],[71.7,832],[71.6,915],[71.6,998],[71.5,1081],[71.5,1164],[71.5,1248],[71.5,1332],[71.5,1415],[70.8,1498],[70,1581],[70,1664],[70,1748],[70,1831],[70,1913],[70,1997],[70,2081],[70,2164],[70,2247],[70,2331],[70,2414],[70,2497],[70,2580],[70,2664],[70,2747],[70,2830],[70,2913],[70,2996],[70,3080],[70,3163],[70,3246],[70,3330],[70,3413],[70,3497],[70,3580],[70,3663],[70,3746],[70,3829],[70,3912],[70,3995],[70,4079],[70,4162],[70,4246],[70,4329],[70,4412],[70,4496],[70,4579],[68.8,4665],[66.8,4744],[66.2,4827],[65.8,4911],[65.9,4995],[67.8,5078],[69.2,5161],[69.6,5244],[70,5328],[70.6,5411],[70.7,5494],[69.6,5578],[67.2,5661],[65.5,5744],[64.9,5827],[64.8,5910],[65.6,5993],[66.8,6077],[67.6,6160],[68.2,6243],[68.6,6326],[68.6,6411]]",1,0,508.0781,510.6756,66.24999841,1.7763,"[{""rating"":66.24999841054282,""responseTime"":1.7763000000006741}]",space,2.0513,,510.6757,All the time,100,510.6831,,,[],,0,15,15,15,1,audio/Narrative8Situation6.wav,audio/Narrative7Situation6.wav,audio/Narrative6Situation6.wav,audio/Narrative5Situation6.wav,2,3,2,3,,,,,,,,,,,,,,,,,,,,,,,,,,,,,,,,,,,,,,,
,,,,,,63eab29693a6eb7fd0174010,2024-05-13_11h53.21.225,group3.1-3.2-social-tom,2023.2.2,Win32,59.88023952,65c5074098b851296ff0b7ed,66423732ea1b963499cab2bc,,,,,,,,,,,,,,,,,,,,,,,,,,,,,510.6835,1,audio/Narrative8Situation7.wav,513.6905,,513.6906,525.796,"[[66,5579],[65.9,5677],[65.8,5760],[65.2,5843],[64.9,5927],[64.9,6010],[64.5,6094],[63.6,6176],[62.8,6259],[62.2,6343],[62.1,6427],[62.1,6510],[62.1,6593],[62.1,6676],[62.1,6759],[62.1,6842],[60.4,6927],[59.1,7010],[58,7092],[57.1,7175],[57,7258],[57,7342],[57.9,7425],[59,7509],[60.1,7591],[60.8,7676],[60.9,7758],[60.9,7842],[60.9,7924],[60.9,8008],[60.9,8092],[60.9,8175],[61.4,8259],[63.8,8341],[65.6,8426],[66.5,8508],[66.6,8591],[66.6,8675],[66.6,8758],[65.7,8841],[64.4,8925],[63.8,9008],[63.6,9091],[64.5,9174],[65.6,9258],[66.6,9340],[67.2,9424],[67.7,9508],[67.7,9591],[67.7,9674],[67,9758],[65.9,9840],[65.7,9923],[65.3,10008],[64.2,10090],[63.1,10173],[62.2,10256],[61.6,10340],[61.3,10423],[60.7,10507],[60.6,10589],[60.9,10673],[62,10756],[62.9,10839],[63.4,10922],[63.5,11006],[64.4,11090],[64.6,11172],[64.8,11257],[65.3,11339],[65.4,11422],[65.4,11505],[65.4,11589],[65.4,11672],[65.4,11755],[65.4,11839],[65.4,11922],[65.4,12005],[65.4,12088]]",1,0,525.7962,530.1263,61.97916667,3.8713,"[{""rating"":67.60416825612387,""responseTime"":1.7980999999996357},{""rating"":61.979166666666664,""responseTime"":3.8712999999988824}]",space,3.7832,,530.1264,All the time,100,530.1303,,,[],,0,16,16,16,1,audio/Narrative8Situation7.wav,audio/Narrative7Situation7.wav,audio/Narrative6Situation7.wav,audio/Narrative5Situation7.wav,3,5,5,4,,,,,,,,,,,,,,,,,,,,,,,,,,,,,,,,,,,,,,,
,,,,,,63eab29693a6eb7fd0174010,2024-05-13_11h53.21.225,group3.1-3.2-social-tom,2023.2.2,Win32,59.88023952,65c5074098b851296ff0b7ed,66423732ea1b963499cab2bc,,,,,,,,,,,,,,,,,,,,,,,,,,,,,530.1311,1,audio/Narrative8Situation8.wav,533.1407,,533.1409,546.0034,"[[999,1],[999,82],[999,165],[999,248],[999,332],[999,415],[999,499],[999,581],[999,666],[999,748],[999,832],[999,914],[999,999],[999,1081],[999,1165],[999,1248],[999,1331],[999,1414],[999,1498],[999,1581],[999,1664],[999,1747],[999,1831],[999,1914],[999,1997],[999,2081],[999,2163],[999,2247],[999,2330],[999,2413],[999,2497],[999,2580],[999,2663],[999,2747],[999,2830],[999,2913],[999,2996],[999,3079],[999,3163],[999,3246],[999,3329],[999,3412],[999,3496],[999,3579],[999,3663],[999,3746],[999,3829],[999,3912],[999,3996],[999,4079],[999,4162],[999,4245],[999,4329],[999,4412],[999,4495],[999,4577],[999,4661],[999,4745],[999,4828],[999,4911],[999,4995],[999,5079],[999,5161],[999,5244],[64.2,5327],[64.9,5411],[65.6,5494],[66.4,5578],[66.7,5661],[67,5744],[67.7,5827],[68.8,5911],[69.1,5993],[69.1,6077],[69.1,6161],[69.1,6244],[69.1,6327],[69.1,6410],[71.7,6494],[74.4,6577],[75.5,6661],[76.6,6742],[77.5,6827],[78.3,6909],[78.6,6993],[78.6,7076],[78.6,7160],[78.6,7242],[78.6,7327],[79.7,7409],[80.6,7493],[81.3,7576],[81.7,7659],[82.1,7743],[82.1,7825],[80.8,7909],[80.4,7992],[80.4,8076],[80.7,8160],[81.8,8241],[82.1,8326],[82.3,8408],[82.6,8492],[82.6,8575],[82.6,8658],[82.9,8741],[83.3,8824],[83.8,8908],[84.1,8991],[84.1,9075],[84.1,9158],[84.1,9241],[84.1,9325],[84.1,9408],[84.1,9491],[84.1,9574],[84.1,9658],[84.1,9741],[84.1,9824],[84.1,9907],[84,9991],[83.4,10074],[82.8,10156],[82.3,10240],[81.8,10323],[81.5,10407],[82.2,10491],[84.5,10574],[87.1,10656],[87.9,10740],[88,10823],[88.2,10906],[88.5,10990],[88.9,11072],[88.9,11156],[88.9,11240],[89.1,11322],[89.3,11406],[89.3,11489],[88.2,11573],[87.1,11655],[86,11738],[85.1,11822],[84.5,11905],[84.4,11989],[85.2,12072],[85.9,12155],[86.3,12240],[86.3,12321],[86.3,12406],[86,12488],[85.5,12578],[85.3,12656],[85,12744],[84.5,12828]]",1,0,546.0037,549.7769,81.4583381,3.3789,"[{""rating"":82.70833492279053,""responseTime"":1.1315999999997075},{""rating"":81.45833810170491,""responseTime"":3.3789000000003853}]",space,3.2242,,549.777,Half the time,50,549.7851,,,[],,0,17,17,17,1,audio/Narrative8Situation8.wav,audio/Narrative7Situation8.wav,audio/Narrative6Situation8.wav,audio/Narrative5Situation8.wav,3,2,5,3,,,,,,,,,,,,,,,,,,,,,,,,,,,,,,,,,,,,,,,
,,,,,,63eab29693a6eb7fd0174010,2024-05-13_11h53.21.225,group3.1-3.2-social-tom,2023.2.2,Win32,59.88023952,65c5074098b851296ff0b7ed,66423732ea1b963499cab2bc,,,,,,,,,,,,,,,,,,,,,,,,,,,,,549.7855,1,audio/Narrative8Situation9.wav,552.7909,,552.7909,564.1148,"[[80.4,5928],[80.3,6011],[81.7,6095],[82.6,6177],[82.6,6261],[82.6,6344],[82.6,6427],[80.5,6510],[79.8,6593],[79.3,6677],[78.5,6760],[78.2,6843],[78.2,6927],[78.2,7010],[78.4,7093],[79,7177],[79.8,7260],[80.4,7342],[80.7,7426],[80.7,7510],[80.7,7593],[80.7,7677],[80.5,7761],[79.8,7842],[79,7925],[77.9,8009],[76.8,8092],[75.6,8176],[74.2,8259],[73,8342],[71.8,8426],[70.9,8510],[70.5,8592],[70.5,8675],[70.9,8759],[71.9,8842],[73.2,8925],[76,9008],[78.6,9091],[78.6,9175],[79.1,9258],[79.9,9341],[81.3,9425],[82.3,9508],[82.5,9591],[82.5,9675],[82.5,9758],[82.5,9841],[82.5,9924],[82.1,10008],[81.5,10091],[80.9,10175],[80.1,10258],[79.3,10341],[78.2,10424],[77.5,10507],[77.3,10590],[77.3,10673],[77.3,10757],[77.3,10841],[77.3,10924],[77.3,11007],[77.3,11091],[77.3,11174],[77.3,11257]]",1,0,564.115,567.2626,80.72916667,2.6912,"[{""rating"":76.97916825612386,""responseTime"":1.8853999999985263},{""rating"":80.72916666666667,""responseTime"":2.691199999999185}]",space,2.6069,,567.2627,Half the time,50,567.2665,,,[],,0,18,18,18,1,audio/Narrative8Situation9.wav,audio/Narrative7Situation9.wav,audio/Narrative6Situation9.wav,audio/Narrative5Situation9.wav,3,2,4,3,,,,,,,,,,,,,,,,,,,,,,,,,,,,,,,,,,,,,,,
,,,,,,63eab29693a6eb7fd0174010,2024-05-13_11h53.21.225,group3.1-3.2-social-tom,2023.2.2,Win32,59.88023952,65c5074098b851296ff0b7ed,66423732ea1b963499cab2bc,,,,,,,,,,,,,,,,,,,,,,,,,,,569.6959,572.2749,572.2973,2,audio/Narrative13Situation2.wav,572.2974,,572.2974,602.0503,"[[999,0],[999,60],[999,143],[999,232],[999,310],[999,393],[999,482],[999,560],[999,648],[999,726],[999,810],[999,893],[999,976],[999,1060],[999,1143],[999,1226],[999,1314],[999,1393],[999,1481],[999,1559],[999,1643],[999,1726],[999,1810],[999,1893],[999,1976],[999,2059],[999,2146],[999,2225],[999,2313],[999,2392],[999,2475],[999,2558],[999,2642],[999,2725],[999,2808],[999,2897],[999,2975],[999,3058],[999,3140],[999,3223],[999,3308],[999,3391],[999,3474],[999,3557],[999,3641],[999,3728],[999,3806],[999,3890],[999,3973],[999,4056],[999,4139],[999,4223],[999,4306],[999,4394],[999,4474],[999,4557],[999,4640],[999,4723],[999,4806],[999,4890],[999,4973],[999,5055],[999,5139],[999,5228],[999,5306],[999,5390],[999,5473],[999,5557],[999,5639],[999,5722],[999,5805],[999,5889],[999,5978],[999,6056],[999,6143],[32.7,6226],[28.5,6322],[27.7,6405],[27,6487],[26.9,6571],[26.9,6655],[26.9,6738],[26.9,6820],[26.9,6905],[27,6988],[27,7071],[27,7153],[27,7237],[27,7321],[28,7404],[28.9,7488],[29.1,7570],[29.2,7653],[29.7,7736],[30.2,7821],[30.7,7903],[31.5,7986],[31.8,8069],[31.8,8153],[31.8,8236],[32.2,8321],[32.2,8404],[32.2,8486],[31.5,8570],[30.6,8653],[30.4,8736],[30.4,8820],[31.8,8903],[32.6,8987],[33.3,9069],[34.2,9152],[35.5,9236],[36.7,9319],[37.4,9402],[37.5,9486],[37.5,9569],[37.5,9652],[37.5,9735],[37.5,9818],[38,9902],[38.9,9986],[39.4,10068],[39.4,10151],[39.9,10235],[40.2,10318],[40.6,10401],[41.1,10486],[41.9,10569],[42.2,10651],[42.4,10735],[42.7,10818],[42.7,10901],[42.9,10985],[43.1,11068],[43.1,11151],[43.1,11235],[43.1,11317],[43.1,11401],[43.1,11484],[43.1,11567],[43.1,11651],[43.1,11734],[42,11817],[40.8,11901],[39,11983],[37.3,12068],[35.8,12150],[35,12233],[34.3,12316],[34.2,12399],[34.2,12483],[34.2,12567],[34.2,12650],[34.2,12733],[34.2,12816],[33.8,12899],[32.9,12983],[32.6,13066],[32.1,13149],[31.5,13233],[31,13315],[31,13399],[31.8,13482],[33,13566],[33.9,13649],[34.6,13732],[35.3,13815],[35.9,13898],[36.8,13981],[37.9,14064],[38.5,14149],[39.3,14232],[39.4,14315],[39.2,14398],[38.1,14482],[36.7,14565],[35.6,14649],[34.5,14731],[33.8,14814],[33,14898],[32.9,14981],[32.9,15066],[32.9,15148],[32.9,15231],[32.4,15314],[31.9,15397],[31.6,15482],[31.4,15564],[30.5,15647],[29.8,15731],[29.5,15814],[29.4,15897],[29.4,15980],[29.3,16063],[29.1,16147],[29.1,16230],[29.1,16314],[29.1,16396],[29.1,16480],[29.1,16564],[29.8,16648],[30.2,16730],[30.9,16813],[31.3,16896],[31.3,16979],[31.3,17063],[32,17148],[32.5,17230],[32.8,17312],[32.8,17396],[33.2,17479],[33.9,17563],[34.4,17645],[34.4,17729],[34.8,17812],[35.2,17895],[35.3,17979],[35.4,18062],[35.8,18145],[35.8,18228],[35.8,18312],[35.8,18394],[35.8,18478],[35.8,18561],[35.8,18644],[35.6,18728],[34.8,18811],[34,18894],[33.4,18977],[33.4,19061],[34.1,19144],[35.3,19228],[36.1,19310],[36.6,19394],[37,19477],[37.5,19561],[38.2,19644],[38.9,19727],[39.4,19810],[39.9,19894],[40.1,19977],[40.6,20060],[41.5,20144],[42.2,20227],[42.6,20309],[42.9,20393],[43.1,20477],[43.1,20560],[43.1,20643],[43.1,20727],[41.9,20810],[41,20893],[40,20977],[39.3,21060],[38.4,21143],[37.7,21226],[37.2,21310],[36.9,21393],[36.3,21477],[35.7,21559],[35.2,21643],[35.4,21726],[40.9,21808],[44.7,21892],[44.8,21975],[45.1,22059],[46.4,22142],[47.3,22225],[47.7,22308],[47.7,22392],[47.7,22475],[47.8,22558],[47.8,22641],[47.3,22724],[46.8,22808],[46.9,22892],[48.1,22974],[48.6,23057],[49.2,23141],[49.7,23225],[49.8,23309],[50,23391],[50,23474],[50,23557],[50,23641],[50,23724],[50.1,23807],[50.2,23892],[50.5,23974],[50.9,24056],[51,24140],[51.5,24223],[51.8,24307],[51.8,24390],[51.8,24474],[51.3,24557],[50.4,24639],[50.1,24723],[49.7,24807],[48.9,24890],[48.3,24974],[48.2,25056],[48,25140],[47,25223],[46.5,25305],[46.1,25390],[45.7,25473],[44.8,25555],[44.5,25639],[44.5,25723],[44.5,25805],[44.5,25889],[44.5,25972],[43.2,26055],[42.1,26138],[40.8,26221],[39.8,26305],[38.9,26388],[38.4,26471],[38.2,26555],[38.2,26638],[38.2,26722],[38.2,26805],[39.1,26888],[40.3,26972],[41,27054],[41.1,27138],[41.1,27221],[41.2,27305],[40.7,27389],[39.7,27470],[39,27554],[38.9,27637],[39.7,27721],[41.1,27804],[42.2,27887],[43,27971],[43.9,28053],[44.8,28137],[45.8,28220],[46.7,28303],[47.2,28386],[47.3,28471],[47.7,28554],[47.7,28637],[46.3,28719],[44.9,28803],[43.9,28887],[42.9,28969],[42.1,29054],[41.2,29136],[41,29219],[41,29303],[41,29386],[41,29469],[41.6,29552],[42,29636],[42.6,29720]]",1,0,602.0506,602.0542,,,[],,,,602.0545,Not at all,0,602.0572,,,[],,0,0,0,0,1,audio/Narrative13Situation2.wav,audio/Narrative13Situation2.wav,audio/Narrative13Situation2.wav,audio/Narrative13Situation2.wav,2,2,2,2,,,,,567.2684,569.6952,space,1.8953,,,,,,,,,,,,,,,,,,,,,,,,,,,,,,,
,,,,,,63eab29693a6eb7fd0174010,2024-05-13_11h53.21.225,group3.1-3.2-social-tom,2023.2.2,Win32,59.88023952,65c5074098b851296ff0b7ed,66423732ea1b963499cab2bc,,,,,,,,,,,,,,,,,,,,,,,,,,,,,602.0574,2,audio/Narrative5Situation1.wav,607.0637,,607.0638,620.353,"[[42.9,5435],[40,5510],[35.8,5594],[35,5677],[32.1,5760],[25.7,5843],[24.1,5926],[24.1,6009],[24.2,6093],[25.2,6177],[26.4,6260],[27.1,6342],[27.4,6427],[27.3,6510],[26,6592],[25.6,6676],[25.3,6759],[25.4,6843],[26.5,6926],[27.8,7010],[28.4,7093],[29.2,7175],[29.6,7259],[29.6,7341],[28.9,7427],[29.2,7509],[34.4,7592],[37.7,7676],[40.1,7759],[41.1,7842],[41.4,7925],[41.4,8009],[41.2,8093],[39.1,8175],[38.4,8258],[35.5,8341],[32.8,8424],[30.9,8507],[30.4,8592],[30.4,8675],[31.5,8757],[31.8,8841],[31.8,8925],[31.4,9007],[30.8,9091],[30.3,9175],[30.3,9258],[30.3,9340],[30.1,9424],[29,9507],[28.4,9590],[28.5,9674],[29.5,9757],[30.2,9840],[30.5,9923],[30.1,10008],[29.5,10090],[29.5,10174],[29.5,10257],[29.5,10339],[29.5,10423],[29.7,10507],[30,10590],[30.1,10673],[30.1,10757],[30.1,10839],[30.1,10923],[30.7,11005],[32.6,11089],[33.2,11173],[34.4,11256],[38.3,11338],[40.1,11422],[42.6,11505],[43.2,11588],[43.2,11673],[43.2,11756],[43.2,11839],[43.2,11922],[44.3,12006],[44.7,12089],[45.1,12173],[45.3,12256],[46.1,12338],[46.5,12421],[46.9,12505],[47.6,12588],[47.9,12671],[48.3,12755],[48.8,12838],[48.9,12921],[49,13005],[49,13088],[49,13170],[49.7,13254]]",1,0,620.3533,624.8985,40.31250477,2.7404,"[{""rating"":40.31250476837158,""responseTime"":2.7404000000003634}]",space,4.0043,,624.8985,All the time,100,624.9027,,,[],,0,1,1,1,1,audio/Narrative7Situation1.wav,audio/Narrative8Situation1.wav,audio/Narrative5Situation1.wav,audio/Narrative6Situation1.wav,2,5,5,2,,,,,,,,,,,,,,,,,,,,,,,,,,,,,,,,,,,,,,,
,,,,,,63eab29693a6eb7fd0174010,2024-05-13_11h53.21.225,group3.1-3.2-social-tom,2023.2.2,Win32,59.88023952,65c5074098b851296ff0b7ed,66423732ea1b963499cab2bc,,,,,,,,,,,,,,,,,,,,,,,,,,,,,624.9031,2,audio/Narrative5Situation2.wav,627.9125,,627.9125,657.3874,"[[35.6,6244],[26.7,6327],[23.8,6410],[23.4,6493],[24,6577],[27.4,6660],[28.2,6743],[29.4,6827],[31.3,6910],[32.6,6995],[34.2,7076],[36.1,7159],[38.8,7242],[40.9,7328],[41.7,7410],[41.7,7492],[41.7,7576],[41.7,7659],[40.4,7742],[38.2,7825],[37.8,7909],[37.6,7994],[37.3,8075],[40,8159],[41.5,8242],[42.5,8325],[44,8409],[45.6,8491],[45.8,8575],[45.8,8659],[45.8,8741],[45.8,8826],[49.6,8908],[50.8,8991],[51,9075],[51,9159],[51.6,9241],[52.2,9325],[52.4,9408],[52.4,9491],[52.4,9574],[52.3,9658],[52.2,9741],[52.2,9824],[52.9,9908],[53.3,9990],[53.5,10075],[52.4,10157],[51.7,10240],[51.5,10323],[52.1,10408],[53.3,10491],[54.2,10573],[54.4,10658],[52.5,10740],[50.5,10823],[50.1,10906],[49.9,10989],[49.9,11074],[50.2,11158],[51,11240],[51.4,11323],[49.7,11407],[47.7,11490],[47.5,11573],[48.9,11656],[50.1,11740],[52.1,11823],[53.9,11906],[55,11989],[55.7,12072],[56.1,12157],[56.1,12239],[54.9,12322],[53.5,12406],[53.3,12489],[53.4,12572],[54.6,12656],[55.3,12739],[55.7,12822],[56.3,12906],[56.7,12989],[57.1,13072],[57.2,13155],[54.9,13238],[52.2,13322],[50.8,13404],[49.9,13489],[49.5,13571],[48.5,13654],[47.6,13738],[47,13822],[46.3,13905],[46.3,13988],[46.7,14070],[48.2,14154],[49.2,14239],[50.4,14320],[51.4,14403],[52.3,14487],[53.1,14570],[54,14654],[54.6,14737],[54.7,14820],[54.7,14904],[54.7,14987],[55.2,15070],[57.7,15155],[59.1,15237],[59.4,15320],[59.7,15403],[59.7,15486],[59.7,15570],[59.7,15653],[59.7,15736],[59.7,15819],[59.5,15902],[58.1,15986],[57.6,16070],[56.4,16152],[55.5,16236],[55.3,16319],[55.3,16402],[55.3,16486],[55.3,16568],[54.3,16651],[53.7,16735],[53,16820],[52.3,16902],[51.5,16985],[50.6,17068],[49.8,17151],[48.9,17234],[48.1,17318],[47.5,17401],[47.4,17485],[47.4,17568],[47.4,17651],[47.4,17734],[47.4,17818],[48.6,17901],[49.9,17984],[50.9,18067],[51.4,18150],[51.8,18233],[51.5,18317],[48.8,18400],[48.1,18483],[49,18569],[52.6,18650],[53.9,18733],[54.7,18817],[55.1,18900],[55.9,18984],[57,19067],[57.9,19150],[58.2,19234],[58.3,19317],[57.8,19400],[56.8,19483],[54.9,19567],[54.3,19649],[54.3,19733],[56.8,19816],[57.5,19900],[57.6,19983],[57.6,20066],[57.7,20149],[57.4,20232],[56.1,20316],[55.1,20399],[54,20483],[53.2,20565],[52.2,20649],[51.8,20731],[50.8,20816],[50.1,20899],[49.3,20981],[49.1,21065],[49.1,21150],[49.8,21231],[50.3,21315],[51,21397],[51.8,21482],[52.5,21565],[53.5,21648],[53.9,21731],[53.7,21816],[52.4,21898],[51.1,21981],[50.2,22066],[50.1,22148],[51.6,22231],[52.9,22314],[53.9,22398],[55.3,22480],[56.3,22564],[56.8,22647],[56.8,22730],[56.8,22813],[56.8,22897],[56.8,22981],[58.6,23063],[58.8,23146],[59.1,23231],[59.6,23313],[59.2,23398],[56.4,23479],[55.3,23563],[54.6,23646],[53.6,23729],[52.4,23812],[51.5,23896],[50.6,23980],[49.6,24063],[49.3,24146],[49.8,24229],[51,24313],[52,24396],[52.6,24479],[53.3,24562],[53.5,24645],[52.3,24729],[50.8,24812],[50.2,24895],[49.9,24978],[50,25063],[51,25145],[51.9,25229],[52.6,25311],[53.4,25396],[54.1,25479],[54.6,25561],[54.7,25645],[54.7,25728],[53.9,25811],[53.2,25894],[53.2,25978],[52,26061],[51.4,26144],[51.4,26228],[52.7,26311],[53.9,26394],[55.1,26477],[55.6,26560],[55.9,26643],[55.9,26727],[54.9,26810],[53.7,26893],[52.4,26977],[51.6,27060],[50.9,27145],[50.2,27227],[49.8,27310],[49.2,27393],[48.5,27477],[48.2,27560],[48.2,27643],[48.2,27726],[48.2,27810],[48,27893],[47.1,27977],[46.3,28059],[45.4,28144],[44.7,28226],[44.7,28309],[45.3,28393],[47.2,28475],[48.5,28559],[49.5,28643],[50.3,28727],[50.5,28809],[51,28892],[51.6,28976],[51.8,29059],[51.8,29142],[51.8,29225],[50.6,29309],[48.6,29392],[46.3,29474]]",1,0,657.3875,660.2357,51.7708381,2.2901,"[{""rating"":51.77083810170492,""responseTime"":2.2900999999995975}]",space,2.3246,,660.2358,All the time,100,660.2384,,,[],,0,2,2,2,1,audio/Narrative7Situation2.wav,audio/Narrative8Situation2.wav,audio/Narrative5Situation2.wav,audio/Narrative6Situation2.wav,3,3,3,3,,,,,,,,,,,,,,,,,,,,,,,,,,,,,,,,,,,,,,,
,,,,,,63eab29693a6eb7fd0174010,2024-05-13_11h53.21.225,group3.1-3.2-social-tom,2023.2.2,Win32,59.88023952,65c5074098b851296ff0b7ed,66423732ea1b963499cab2bc,,,,,,,,,,,,,,,,,,,,,,,,,,,,,660.2387,2,audio/Narrative5Situation3.wav,663.2502,,663.2503,677.1554,"[[52,2580],[49.6,3081],[49.6,3162],[49.6,3246],[49.6,3329],[49.4,3413],[49.4,3496],[49.4,3580],[49.6,3663],[49.8,3746],[49.8,3829],[49.1,3912],[48,3996],[47.5,4080],[47.5,4162],[49.2,4245],[50.1,4330],[50.5,4412],[50.5,4495],[50.5,4579],[50.5,4662],[50.5,4745],[50.5,4829],[50.5,4912],[50,4996],[48,5078],[47.7,5161],[47.7,5245],[47.7,5327],[49,5412],[50.3,5495],[51.5,5578],[52,5662],[52,5744],[52,5828],[52,5911],[52,5994],[52,6078],[52,6161],[52,6244],[52,6328],[52,6411],[52,6493],[52,6577],[52,6660],[52,6744],[52,6826],[52,6910],[52,6993],[52,7077],[52,7159],[52,7243],[52,7327],[52,7410],[52,7492],[52,7576],[52,7660],[52,7743],[52,7826],[52,7909],[52,7992],[51.1,8076],[50.2,8159],[49.3,8242],[48.5,8325],[48.2,8408],[48.9,8494],[49.7,8575],[50.2,8659],[50.3,8742],[50.3,8825],[50.3,8909],[49.5,8991],[49.1,9074],[49.1,9158],[49.3,9243],[50.2,9324],[50.5,9408],[51.4,9491],[52.1,9574],[53,9657],[53.9,9741],[54.4,9824],[54.4,9908],[53.7,9991],[53.1,10074],[52,10157],[51.1,10240],[50.5,10323],[49.8,10406],[49.3,10490],[48.9,10574],[48.5,10658],[48.1,10740],[47.5,10824],[46.7,10907],[45.9,10991],[45.6,11073],[45.4,11156],[45.4,11240],[46.6,11323],[47.9,11406],[48.2,11489],[48.2,11573],[48.2,11656],[48.2,11739],[48.2,11822],[48.2,11905],[48.2,11989],[48.2,12072],[48.2,12155],[48.2,12238],[48.2,12323],[48.2,12405],[48.2,12489],[48.2,12572],[48.2,12656],[48.2,12739],[48.2,12822],[48.2,12905],[48.2,12989],[48.2,13072],[48.2,13154],[48.2,13238],[48.2,13322],[48.2,13405],[48.2,13488],[48.2,13570],[48.2,13655],[48.2,13738],[48.2,13821],[48.2,13904]]",1,0,677.1557,679.9698,50.83333651,1.8883,"[{""rating"":50.83333651224772,""responseTime"":1.8883000000007542}]",space,2.2696,,679.9699,Not at all,0,679.9773,,,[],,0,3,3,3,1,audio/Narrative7Situation3.wav,audio/Narrative8Situation3.wav,audio/Narrative5Situation3.wav,audio/Narrative6Situation3.wav,8,4,3,5,,,,,,,,,,,,,,,,,,,,,,,,,,,,,,,,,,,,,,,
,,,,,,63eab29693a6eb7fd0174010,2024-05-13_11h53.21.225,group3.1-3.2-social-tom,2023.2.2,Win32,59.88023952,65c5074098b851296ff0b7ed,66423732ea1b963499cab2bc,,,,,,,,,,,,,,,,,,,,,,,,,,,,,679.9777,2,audio/Narrative5Situation4.wav,680.9857,,680.9857,701.3853,"[[51.5,1580],[63.4,2082],[64.4,2164],[64.5,2248],[64.9,2330],[65.1,2413],[65.1,2497],[63.4,2580],[61.9,2664],[60.1,2748],[59.5,2830],[59.3,2914],[59.3,2997],[59.3,3080],[59.3,3163],[59.3,3247],[60.2,3330],[61.9,3413],[63,3497],[63.4,3579],[63.5,3662],[63.5,3746],[63.5,3829],[63.5,3912],[63.5,3995],[63.5,4079],[63.5,4163],[63.5,4246],[63.5,4329],[63.5,4412],[63.5,4496],[63.5,4579],[63.5,4662],[63.5,4745],[63.5,4828],[63.5,4912],[63.5,4995],[61.3,5078],[58.6,5162],[57.1,5245],[54.5,5328],[53.7,5410],[54.5,5494],[56.4,5577],[58.8,5661],[61.4,5745],[62.5,5827],[63.9,5911],[65,5995],[65.5,6077],[65.5,6160],[65.5,6244],[65.5,6327],[65.5,6410],[64.5,6493],[63.2,6577],[62.3,6659],[61.3,6744],[60.1,6826],[59.2,6910],[58.8,6994],[58.8,7077],[58.9,7160],[61.1,7243],[62.5,7325],[64,7409],[64.8,7493],[65.1,7576],[65.1,7660],[65.1,7742],[65.1,7826],[63,7908],[60.8,7992],[59.2,8075],[57.8,8159],[56,8242],[55,8325],[54.5,8408],[54.5,8492],[54.5,8575],[54.5,8658],[54.5,8741],[54.5,8826],[54.5,8908],[54.5,8992],[54.7,9075],[54.7,9158],[54.5,9242],[53,9325],[51.7,9407],[50.7,9491],[49.9,9576],[49.4,9657],[49.4,9740],[49.5,9826],[50.8,9907],[52.1,9991],[53.3,10074],[54.5,10157],[55.7,10240],[57.3,10323],[58.1,10406],[58.8,10490],[58.9,10574],[58.9,10657],[58.5,10741],[57.4,10823],[56.3,10906],[55.4,10991],[55.1,11074],[55.4,11157],[59.6,11239],[59.7,11322],[59.7,11406],[60.3,11490],[60.4,11573],[59.8,11656],[57.8,11739],[56.5,11823],[55.3,11905],[54.1,11990],[52.9,12073],[51.8,12156],[51.5,12239],[51.5,12322],[51.5,12405],[51.5,12489],[51.5,12572],[50.6,12655],[50.3,12738],[49.8,12823],[49.1,12905],[48.5,12989],[48.2,13071],[48.2,13155],[48.3,13238],[49.3,13322],[49.8,13404],[50.3,13488],[50.5,13571],[51.3,13655],[51.6,13738],[51.5,13822],[50.6,13904],[49.6,13987],[48.8,14071],[48.1,14154],[47.3,14237],[46.5,14320],[45.6,14403],[45.1,14488],[45.1,14570],[45.1,14653],[45.1,14736],[45.1,14820],[45.1,14903],[44.9,14986],[43.9,15071],[42.5,15154],[42.4,15237],[44.3,15320],[46.8,15403],[48.5,15486],[49.7,15569],[49.9,15655],[50.2,15736],[50.4,15819],[50.4,15902],[50.4,15986],[50.4,16069],[51.1,16154],[54.2,16235],[54.7,16318],[55,16402],[55.6,16485],[56.3,16568],[56.7,16651],[57.3,16736],[58.5,16818],[59.3,16902],[59.7,16985],[59.8,17068],[59.9,17152],[60.6,17235],[61.3,17318],[62,17402],[61.6,17485],[59.2,17567],[58,17650],[57.4,17734],[57.2,17817],[56.3,17901],[55.6,17985],[54.5,18068],[53,18151],[51.7,18234],[51.3,18317],[53,18400],[55.2,18484],[56.5,18567],[57.7,18650],[58.8,18734],[59.4,18817],[59.7,18900],[59.9,18983],[60.2,19067],[60.2,19149],[59,19234],[56.9,19317],[56,19399],[55.8,19483],[55.8,19567],[56,19649],[57.6,19733],[58.8,19817],[59.4,19899],[60.2,19983],[61.1,20066],[61.9,20149],[62,20232],[62,20315],[61,20399]]",1,0,701.3856,710.8002,57.18750159,7.8704,"[{""rating"":59.06250476837158,""responseTime"":2.241800000000694},{""rating"":57.18750158945719,""responseTime"":7.870400000000359}]",space,8.8631,,710.8003,Half the time,50,710.8065,,,[],,0,4,4,4,1,audio/Narrative7Situation4.wav,audio/Narrative8Situation4.wav,audio/Narrative5Situation4.wav,audio/Narrative6Situation4.wav,3,3,1,2,,,,,,,,,,,,,,,,,,,,,,,,,,,,,,,,,,,,,,,
,,,,,,63eab29693a6eb7fd0174010,2024-05-13_11h53.21.225,group3.1-3.2-social-tom,2023.2.2,Win32,59.88023952,65c5074098b851296ff0b7ed,66423732ea1b963499cab2bc,,,,,,,,,,,,,,,,,,,,,,,,,,,,,710.8069,2,audio/Narrative5Situation5.wav,715.8075,,715.8076,731.2345,"[[56,3172],[55.8,3251],[55.8,3334],[55.8,3413],[55.8,3496],[53.7,3579],[50.9,3668],[49.6,3746],[48.6,3835],[48.3,3918],[48.3,4001],[48.3,4078],[48.6,4168],[48.8,4251],[49.3,4335],[49.8,4419],[50.3,4501],[50.4,4578],[50.5,4662],[50.9,4751],[51.8,4829],[53.1,4912],[55.5,5000],[57.5,5079],[59.4,5168],[60.8,5249],[61.8,5333],[62.2,5412],[62.3,5494],[62.3,5577],[62.3,5661],[62.3,5749],[62.3,5827],[61.5,5916],[59,5994],[56.6,6082],[55.5,6165],[54.6,6244],[53.7,6332],[52.8,6415],[51.8,6498],[51.1,6581],[50.3,6665],[50,6744],[50,6826],[50.7,6909],[51.6,6998],[51.8,7076],[51.9,7160],[51.9,7248],[51.9,7326],[51.9,7409],[51.9,7497],[51.9,7581],[51.7,7664],[51.7,7742],[51.7,7826],[51.7,7914],[51.7,7992],[51.7,8075],[51.7,8158],[51.7,8242],[51.8,8326],[52.8,8413],[53.6,8492],[54.1,8575],[54.2,8663],[54.2,8747],[54.2,8830],[54.2,8914],[54.2,8992],[54.2,9079],[54.2,9158],[54.2,9246],[54.6,9330],[55.6,9413],[56.7,9496],[57.8,9579],[58.6,9662],[58.8,9740],[58.9,9824],[58.9,9907],[58.9,9991],[58.9,10079],[58.9,10162],[58.9,10241],[58.9,10328],[58.9,10412],[58.9,10490],[58.9,10574],[58.1,10661],[57.9,10739],[57.9,10823],[59,10912],[59.6,10994],[59.9,11078],[59.9,11156],[59.9,11239],[59,11323],[57.7,11412],[57.2,11494],[57.2,11572],[57.2,11656],[57.8,11745],[58.9,11827],[59.4,11911],[59.6,11989],[58.9,12077],[56.6,12161],[55.9,12244],[55.3,12327],[54.5,12411],[54,12488],[53.5,12573],[53.2,12655],[53.2,12743],[54.6,12827],[56.7,12911],[57.8,12993],[58.6,13077],[58.9,13155],[59.4,13238],[59.9,13327],[60.1,13409],[60.1,13492],[60.1,13572],[60.2,13660],[60.8,13744],[61.4,13821],[61.5,13909],[61,13993],[58,14076],[56.1,14160],[55.6,14238],[55.5,14320],[55.5,14404],[57.4,14491],[58.5,14570],[60.1,14653],[61.9,14737],[63,14821],[64,14908],[64.5,14991],[64.5,15069],[64.5,15158],[62.9,15242],[62.7,15319],[62.6,15404]]",1,0,731.2349,734.8639,62.91666826,2.2056,"[{""rating"":62.91666825612386,""responseTime"":2.205600000001482}]",space,3.0828,,734.864,Half the time,50,734.8683,,,[],,0,5,5,5,1,audio/Narrative7Situation5.wav,audio/Narrative8Situation5.wav,audio/Narrative5Situation5.wav,audio/Narrative6Situation5.wav,5,2,5,2,,,,,,,,,,,,,,,,,,,,,,,,,,,,,,,,,,,,,,,
,,,,,,63eab29693a6eb7fd0174010,2024-05-13_11h53.21.225,group3.1-3.2-social-tom,2023.2.2,Win32,59.88023952,65c5074098b851296ff0b7ed,66423732ea1b963499cab2bc,,,,,,,,,,,,,,,,,,,,,,,,,,,,,734.869,2,audio/Narrative5Situation6.wav,737.8729,,737.8734,743.5503,"[[61.5,2848],[57.9,2930],[56.4,3012],[56,3095],[60.3,3178],[62.3,3263],[62.7,3346],[62.7,3429],[62.7,3511],[62.8,3594],[63,3679],[63.5,3761],[63.9,3845],[63.9,3928],[63.9,4011],[63.9,4094],[63.6,4179],[62.9,4261],[61.4,4344],[60.2,4428],[59.6,4510],[60.9,4594],[64.6,4678],[66.4,4760],[67.9,4844],[70.1,4928],[70.8,5010],[71.9,5094],[72.8,5177],[73.3,5260],[72.5,5344],[70.9,5427],[70.2,5509],[69.6,5593],[68.1,5676]]",1,0,743.5505,747.1313,68.02083651,3.2901,"[{""rating"":66.14583333333334,""responseTime"":2.079300000000785},{""rating"":66.14583333333334,""responseTime"":2.8225999999996247},{""rating"":68.02083651224771,""responseTime"":3.2900999999995975}]",space,3.0374,,747.1314,All the time,100,747.1381,,,[],,0,6,6,6,1,audio/Narrative7Situation6.wav,audio/Narrative8Situation6.wav,audio/Narrative5Situation6.wav,audio/Narrative6Situation6.wav,3,2,3,2,,,,,,,,,,,,,,,,,,,,,,,,,,,,,,,,,,,,,,,
,,,,,,63eab29693a6eb7fd0174010,2024-05-13_11h53.21.225,group3.1-3.2-social-tom,2023.2.2,Win32,59.88023952,65c5074098b851296ff0b7ed,66423732ea1b963499cab2bc,,,,,,,,,,,,,,,,,,,,,,,,,,,,,747.1386,2,audio/Narrative5Situation7.wav,751.1444,,751.1445,772.1942,"[[66.9,4678],[64.5,4761],[60.4,4845],[59.1,4928],[59,5011],[59,5095],[59.3,5178],[61.1,5261],[62.8,5346],[64.1,5428],[64.6,5511],[64.9,5595],[64.9,5677],[64.7,5761],[63.6,5844],[62.5,5927],[61.8,6011],[61,6094],[60.7,6177],[60.7,6261],[62.7,6344],[64.6,6427],[66,6511],[66.7,6593],[67,6677],[67.6,6760],[68.3,6844],[68.8,6927],[68.8,7010],[68.8,7093],[67.6,7176],[66.6,7260],[64.5,7342],[63.3,7428],[63.1,7509],[63.4,7593],[64.6,7675],[66.1,7760],[67.4,7842],[68,7926],[69.1,8010],[70.1,8092],[70.3,8176],[70.5,8258],[70.5,8342],[69.9,8425],[67.6,8508],[67.4,8592],[72,8676],[73.8,8758],[74,8842],[73.5,8926],[68.6,9008],[66.2,9091],[64.3,9174],[63.3,9258],[63.6,9341],[65.8,9424],[66.6,9508],[67.1,9591],[67.2,9674],[67.2,9758],[66.2,9842],[65.2,9925],[65.1,10008],[68,10090],[70.3,10173],[71.3,10257],[72.5,10340],[73.3,10424],[73.4,10507],[69.7,10590],[67.3,10675],[66.2,10757],[64.7,10840],[63.4,10923],[63.3,11006],[64.6,11091],[66.8,11173],[68.1,11256],[68.4,11339],[66.2,11424],[65.7,11507],[65.5,11590],[65.6,11672],[67.6,11756],[68.8,11839],[69.7,11922],[70,12006],[70.1,12089],[70.1,12172],[70.1,12256],[70.1,12339],[70.2,12423],[70.2,12505],[70.2,12589],[70.2,12673],[70.2,12755],[70.2,12838],[70.2,12922],[70.2,13005],[70.2,13089],[70.2,13172],[70.2,13255],[70.2,13339],[70.2,13422],[70.2,13504],[70.2,13588],[70.2,13671],[70.2,13754],[70.2,13838],[70.2,13921],[70.2,14005],[70.2,14088],[70.2,14171],[70.2,14254],[69.6,14337],[68,14420],[67,14505],[65.8,14587],[65.4,14671],[65.2,14754],[63.3,14837],[62.9,14921],[62.8,15003],[62.8,15087],[63.2,15170],[63.9,15253],[63.9,15337],[63.9,15420],[64.1,15503],[64.1,15586],[64.1,15670],[64.1,15753],[64.6,15836],[65,15920],[65.6,16004],[66.7,16086],[67.5,16170],[67.7,16252],[67.7,16335],[67.7,16420],[67.7,16502],[67.7,16586],[67.7,16669],[68.2,16752],[68.8,16835],[68.8,16919],[68.8,17001],[68.8,17086],[68.8,17168],[68.8,17251],[68.8,17335],[68.8,17418],[68.8,17502],[68.8,17584],[68.8,17669],[68.8,17751],[68.8,17835],[68.8,17917],[68.8,18001],[68.8,18085],[68.8,18168],[69,18250],[69,18334],[69,18418],[69,18501],[69,18584],[69,18667],[69,18751],[69,18834],[69,18917],[69.3,19000],[69.8,19083],[70.1,19167],[70.1,19250],[70.1,19333],[70.1,19417],[70.1,19499],[70.1,19583],[70.1,19667],[70.1,19749],[70.1,19833],[70.1,19917],[70.1,20000],[70.1,20082],[70.1,20166],[70.1,20250],[70.1,20333],[70.1,20416],[70.1,20499],[70.1,20582],[70.1,20666],[70.1,20749],[70.1,20832],[70.1,20915],[70.1,20999]]",1,0,772.1946,774.5914,69.68750159,1.4359,"[{""rating"":69.68750158945718,""responseTime"":1.4359000000004016}]",space,1.8484,,774.5914,Half the time,50,774.5966,,,[],,0,7,7,7,1,audio/Narrative7Situation7.wav,audio/Narrative8Situation7.wav,audio/Narrative5Situation7.wav,audio/Narrative6Situation7.wav,5,3,4,5,,,,,,,,,,,,,,,,,,,,,,,,,,,,,,,,,,,,,,,
,,,,,,63eab29693a6eb7fd0174010,2024-05-13_11h53.21.225,group3.1-3.2-social-tom,2023.2.2,Win32,59.88023952,65c5074098b851296ff0b7ed,66423732ea1b963499cab2bc,,,,,,,,,,,,,,,,,,,,,,,,,,,,,774.597,2,audio/Narrative5Situation8.wav,777.6062,,777.6062,786.4333,"[[69.8,2747],[69.8,2829],[69.8,2913],[69.8,2996],[69.8,3079],[69.8,3163],[69.8,3246],[69.8,3330],[69.8,3413],[69.8,3496],[69.8,3580],[69.8,3662],[69.8,3745],[69.8,3829],[69.8,3912],[69.8,3997],[69.8,4079],[69.8,4162],[69.8,4246],[69.8,4329],[69.8,4412],[69.8,4496],[69.8,4578],[69.8,4662],[69.8,4745],[69.8,4829],[69.8,4912],[69.8,4995],[69.8,5078],[69.8,5162],[69.8,5245],[69.8,5328],[69.8,5411],[69.8,5494],[69.8,5577],[70,5660],[70,5744],[70,5828],[70,5910],[70,5994],[69.9,6078],[68,6160],[67,6243],[66,6328],[65.2,6411],[65,6494],[65.1,6577],[66.5,6659],[67.7,6743],[68.2,6827],[68.2,6910],[68.4,6993],[68.8,7077],[69.2,7160],[69.2,7244],[69.2,7327],[69.2,7409],[69.2,7493],[69.2,7576],[69.2,7660],[69.3,7743],[69.6,7826],[69.8,7909],[70.1,7998],[70.1,8076],[70.1,8164],[70.1,8248],[70.1,8326],[70.1,8414],[69.4,8498],[68.3,8582],[67.5,8660],[67.1,8742],[67.1,8826]]",1,0,786.4336,791.1342,61.45833333,3.2522,"[{""rating"":61.458333333333336,""responseTime"":3.2521999999992204}]",space,4.1506,,791.1343,All the time,100,791.1412,,,[],,0,8,8,8,1,audio/Narrative7Situation8.wav,audio/Narrative8Situation8.wav,audio/Narrative5Situation8.wav,audio/Narrative6Situation8.wav,2,3,3,5,,,,,,,,,,,,,,,,,,,,,,,,,,,,,,,,,,,,,,,
,,,,,,63eab29693a6eb7fd0174010,2024-05-13_11h53.21.225,group3.1-3.2-social-tom,2023.2.2,Win32,59.88023952,65c5074098b851296ff0b7ed,66423732ea1b963499cab2bc,,,,,,,,,,,,,,,,,,,,,,,,,,,,,791.1415,2,audio/Narrative5Situation9.wav,794.1434,,794.1435,833.6944,"[[999,0],[999,81],[999,165],[999,248],[999,332],[999,415],[999,503],[999,581],[999,664],[999,748],[999,831],[999,914],[999,1003],[999,1086],[999,1164],[999,1252],[999,1331],[999,1414],[999,1502],[999,1586],[999,1664],[999,1748],[999,1831],[999,1914],[999,1997],[999,2082],[999,2163],[999,2247],[999,2330],[999,2414],[999,2497],[999,2580],[999,2669],[999,2746],[999,2829],[999,2913],[999,3001],[999,3080],[999,3163],[999,3246],[999,3329],[999,3417],[999,3496],[999,3579],[999,3663],[999,3746],[999,3833],[999,3914],[999,3996],[999,4079],[999,4167],[999,4249],[999,4333],[999,4417],[999,4500],[999,4583],[999,4666],[999,4750],[999,4827],[999,4911],[999,4999],[999,5083],[999,5166],[999,5249],[999,5328],[999,5417],[999,5501],[999,5578],[62.2,5680],[63,5759],[64.8,5844],[65.6,5926],[69.2,6010],[74,6093],[74.8,6178],[75.5,6259],[75.5,6343],[75.5,6426],[75.5,6510],[75.5,6593],[77.7,6676],[78.4,6759],[78.4,6842],[78.4,6925],[78.4,7009],[78.6,7093],[79.6,7176],[80.2,7259],[80.4,7343],[80.4,7425],[80.4,7509],[80.4,7592],[80.4,7675],[80.3,7760],[79.3,7842],[79.3,7925],[79.4,8008],[79.8,8091],[79.9,8175],[79.9,8257],[79.9,8341],[79.9,8424],[79.9,8507],[79.9,8590],[79.9,8674],[80,8757],[80,8840],[80,8924],[80,9008],[80,9091],[79.9,9174],[78.7,9257],[77.3,9340],[76.4,9424],[76.1,9507],[75,9589],[74.7,9673],[74.7,9757],[75.4,9839],[76.5,9923],[77.2,10006],[77.9,10090],[78.4,10173],[78.5,10256],[78.5,10340],[77.8,10423],[75.9,10505],[74.6,10589],[73.8,10674],[73.6,10756],[73.6,10838],[73.6,10922],[73.6,11006],[73.6,11089],[73.6,11173],[73.6,11256],[73.6,11339],[73.6,11422],[73.6,11506],[73.6,11589],[73.6,11671],[73.6,11755],[73.6,11839],[73.6,11922],[73.6,12005],[73.6,12088],[73.6,12171],[73.6,12255],[73.6,12338],[73.6,12421],[73.6,12504],[73.6,12588],[73.6,12671],[73.6,12755],[73.6,12837],[73.6,12921],[73.6,13004],[73.6,13087],[73.6,13171],[73.6,13254],[73.6,13337],[73.6,13420],[73.6,13504],[73.6,13587],[73.6,13670],[73.6,13754],[73.6,13837],[73.6,13920],[73.6,14003],[73.6,14086],[73.6,14170],[73.6,14253],[73.6,14337],[73.6,14420],[73.6,14503],[73.6,14586],[73.6,14669],[73.6,14753],[73.6,14836],[73.6,14919],[73.6,15003],[73.6,15086],[73.6,15169],[73.6,15252],[73.6,15336],[73.6,15419],[73.6,15502],[73.6,15586],[73.6,15669],[73.6,15751],[73.6,15835],[73.6,15919],[73.6,16002],[73.6,16085],[73.6,16168],[73.6,16252],[73.6,16335],[73.6,16418],[73.6,16501],[73.6,16585],[73.6,16668],[73.6,16751],[73.6,16834],[73.6,16918],[74,17006],[74.5,17084],[74.8,17169],[75.5,17250],[76.4,17334],[77.2,17417],[77.6,17500],[77.6,17583],[77.6,17667],[77.6,17750],[77.6,17834],[77.6,17917],[77.6,18000],[77.6,18083],[77.6,18166],[77.6,18249],[77.6,18333],[77.6,18417],[77.6,18501],[77,18583],[76.1,18666],[74.7,18749],[73.9,18832],[73.3,18916],[73.3,18999],[73.3,19082],[73.9,19166],[74.7,19248],[75.7,19332],[76.9,19415],[77.5,19498],[77.6,19582],[77.6,19666],[77.4,19749],[75.7,19832],[73.5,19916],[73,19999],[72.7,20082],[72.7,20165],[72.7,20248],[73.1,20332],[74,20415],[75,20497],[75.8,20582],[76.8,20664],[77.3,20748],[77.6,20831],[78.1,20914],[78.9,20999],[79.2,21081],[79.2,21164],[76.8,21247],[73.6,21330],[72.8,21413],[72.3,21497],[72.1,21580],[72.1,21663],[72.1,21747],[74.5,21831],[77.5,21914],[79.7,21997],[81.7,22080],[83.3,22163],[84.4,22248],[85.1,22329],[85.9,22413],[86.4,22496],[86.8,22579],[87,22663],[87.8,22747],[88,22829],[88,22912],[88,22996],[88,23079],[88,23164],[88,23245],[88,23329],[88,23412],[87.4,23496],[85.2,23578],[85.1,23661],[85.1,23745],[85.1,23829],[85.3,23912],[86.6,23996],[87.7,24078],[88,24161],[88,24246],[85.7,24329],[84.6,24411],[83.9,24495],[82.6,24577],[81.7,24662],[80.8,24744],[79.8,24827],[79.7,24911],[81.7,24994],[82.7,25078],[83.2,25160],[83.2,25244],[83.2,25327],[83.2,25410],[83.2,25494],[83.2,25577],[83.2,25660],[83.2,25744],[83.2,25827],[83.2,25910],[83.2,25993],[83.3,26077],[83.9,26159],[83.9,26243],[81.6,26326],[79.9,26411],[79,26493],[78.7,26576],[78.3,26660],[78.6,26743],[80.9,26826],[83,26910],[84.2,26992],[85.1,27077],[85.3,27159],[82.2,27242],[80.5,27325],[79.7,27409],[79.3,27493],[79,27576],[79,27659],[79.6,27743],[80,27826],[80.3,27909],[80.9,27991],[80.9,28075],[80.4,28158],[80.3,28241],[80.7,28324],[81.3,28408],[81.3,28491],[80.8,28575],[80.4,28658],[80.9,28742],[81.3,28825],[81.8,28907],[82.1,28991],[82.1,29074],[82.1,29157],[82.1,29241],[82.7,29324],[83.3,29407],[83.6,29490],[83.3,29574],[82.2,29657],[81.9,29741],[81.9,29824],[81.9,29907],[79.6,29990],[79.1,30073],[79,30156],[80.6,30239],[81,30323],[81.8,30407],[82.2,30489],[82.3,30573],[82.3,30657],[82.3,30740],[82.3,30823],[82.3,30906],[82.3,30989],[82.5,31073],[83.3,31157],[83.9,31239],[83.9,31323],[83.9,31406],[83.9,31488],[83.8,31573],[82.4,31655],[80.3,31741],[78.3,31822],[76.8,31906],[75.4,31988],[74.6,32071],[74.3,32155],[74.1,32238],[72.6,32321],[71.8,32404],[71.1,32489],[71,32572],[71,32655],[71,32739],[71,32821],[71,32904],[71,32988],[71,33071],[71,33154],[71,33237],[70.5,33320],[70.1,33404],[69.5,33488],[68.6,33571],[67.8,33654],[67,33737],[66.2,33820],[65.4,33904],[65,33987],[65,34070],[65,34154],[65,34237],[65,34320],[65,34403],[65,34487],[64.7,34571],[64.7,34653],[64.7,34736],[64.7,34819],[64.8,34903],[65.8,34986],[66.1,35070],[66.7,35152],[67.5,35236],[67.7,35318],[67.7,35402],[67.7,35486],[67.7,35569],[67.7,35652],[67.7,35736],[67.3,35818],[66.9,35902],[66.9,35985],[66.9,36069],[66.9,36152],[67.4,36236],[67.7,36318],[68,36402],[68.8,36485],[69.1,36569],[69.3,36651],[69.3,36734],[69.2,36819],[68.9,36900],[68.5,36984],[68.5,37068],[68.5,37151],[68.6,37234],[69.1,37318],[69.7,37400],[70.4,37483],[71,37567],[71,37651],[71,37734],[71,37817],[71.3,37901],[72.3,37983],[72.7,38068],[73.8,38150],[74.9,38233],[75.7,38316],[76,38399],[76,38483],[76,38567],[76,38650],[77.1,38734],[78.4,38816],[79,38899],[79,38982],[79.6,39066],[79.9,39149],[80.2,39232],[81.1,39316],[81.8,39400],[82.2,39483]]",1,0,833.6949,836.8076,76.97916826,2.894,"[{""rating"":81.45833810170491,""responseTime"":1.7709999999999582},{""rating"":76.97916825612386,""responseTime"":2.8940000000000055}]",space,2.5658,,836.8078,Half the time,50,836.8145,,,[],,0,9,9,9,1,audio/Narrative7Situation9.wav,audio/Narrative8Situation9.wav,audio/Narrative5Situation9.wav,audio/Narrative6Situation9.wav,2,3,3,4,,,,,,,,,,,,,,,,,,,,,,,,,,,,,,,,,,,,,,,
,,,,,,63eab29693a6eb7fd0174010,2024-05-13_11h53.21.225,group3.1-3.2-social-tom,2023.2.2,Win32,59.88023952,65c5074098b851296ff0b7ed,66423732ea1b963499cab2bc,,,,,,,,,,,,,,,,,,,,,,,,,,,,,836.8149,2,audio/Narrative6Situation1.wav,838.8224,,838.8225,865.4008,"[[13.9,5661],[14.3,5744],[15,5828],[15.5,5910],[15.8,5994],[16.7,6077],[18.4,6160],[19,6245],[19,6327],[19.1,6412],[19.1,6494],[19.1,6577],[19.1,6660],[19.1,6744],[19.1,6827],[19.1,6910],[19.1,6994],[19.1,7077],[19.1,7160],[22.8,7243],[30.9,7327],[39.8,7409],[44,7492],[44.7,7575],[44.8,7659],[44.8,7743],[44.8,7826],[44.8,7909],[46,7993],[48.1,8076],[48.6,8158],[48.8,8242],[49.4,8325],[49.8,8410],[49.8,8492],[49.8,8576],[49.8,8659],[49.8,8742],[49.8,8826],[49.8,8909],[49.8,8992],[49.8,9075],[49.8,9159],[49.8,9241],[49.8,9324],[49.8,9408],[49.8,9491],[49.8,9575],[49.8,9658],[49.8,9741],[49.8,9825],[49.8,9908],[49.8,9990],[49.8,10074],[49.8,10158],[49.8,10240],[49.8,10324],[49.8,10408],[49.8,10491],[49.8,10574],[49.8,10658],[49.8,10740],[36.5,11157],[38,11240],[39.5,11322],[39.7,11406],[39.7,11490],[39.7,11573],[39.7,11656],[39.7,11740],[39.7,11823],[39.7,11906],[39.7,11990],[39.9,12072],[41,12156],[42.7,12239],[44.3,12322],[44.5,12405],[44.5,12489],[44.5,12572],[44.5,12655],[44.5,12739],[44.5,12822],[44.5,12905],[44.5,12989],[44.5,13072],[44.5,13155],[44.5,13238],[44.5,13322],[44.5,13404],[44.5,13488],[44.5,13571],[44.5,13655],[44.5,13738],[44.5,13821],[44.5,13904],[44.5,13988],[44.5,14071],[44.5,14154],[42.5,14237],[39.5,14321],[36.1,14404],[31.9,14486],[31,14570],[30.9,14653],[30.9,14737],[30.9,14820],[30.9,14904],[30.9,14987],[30.9,15070],[30.9,15153],[30.9,15237],[30.9,15320],[30.9,15403],[30.9,15486],[30.9,15570],[30.9,15653],[30.9,15736],[30.9,15820],[30.9,15903],[30.9,15986],[30.9,16069],[30.9,16152],[30.9,16236],[30.9,16318],[30.9,16402],[30.9,16485],[30.9,16569],[30.9,16652],[30.9,16736],[30.9,16819],[30.9,16902],[30.9,16985],[30.9,17069],[30.9,17152],[30.9,17235],[30.9,17318],[30.9,17402],[30.9,17485],[30.9,17568],[30.9,17652],[30.9,17734],[30.9,17817],[30.9,17901],[30.9,17985],[30.9,18068],[30.9,18151],[30.9,18234],[30.9,18319],[30.9,18400],[30.9,18484],[30.9,18567],[30.9,18651],[30.9,18734],[30.9,18817],[30.9,18900],[30.9,18984],[30.9,19067],[30.9,19150],[31.5,19235],[32.7,19317],[32.8,19399],[32.8,19484],[33.4,19566],[34.6,19649],[36.5,19733],[37,19816],[37.3,19900],[37.7,19983],[38,20066],[38,20149],[38,20233],[38,20316],[38,20399],[38,20482],[38,20566],[38,20649],[38,20732],[38,20816],[38,20898],[38,20982],[38,21065],[38,21149],[38,21232],[38,21315],[38,21398],[38,21482],[38,21564],[38,21648],[38,21731],[38,21815],[38,21898],[38,21981],[38,22064],[38,22148],[38,22231],[38,22314],[41.2,22397],[42.2,22481],[43.4,22563],[44.3,22646],[45,22730],[46,22813],[47.8,22898],[49.7,22980],[50.3,23063],[50.3,23146],[50.3,23230],[50.3,23314],[50.3,23397],[50.3,23480],[50.3,23563],[50.3,23647],[50.3,23729],[50.3,23813],[50.3,23896],[50.3,23980],[50.3,24063],[50.3,24146],[50.3,24230],[50.3,24313],[50.3,24396],[50.3,24479],[50.3,24563],[50.3,24645],[50.3,24728],[50.3,24812],[50.3,24896],[50.3,24979],[50.3,25062],[50.3,25146],[50.3,25229],[50.3,25312],[50.3,25395],[50.3,25478],[50.3,25562],[50.3,25645],[50.3,25728],[50.3,25811],[50.3,25895],[50.3,25977],[50.3,26061],[50.3,26144],[50.3,26227],[50.3,26311],[50.3,26394],[50.3,26478],[50.3,26560]]",1,0,865.4011,869.3356,47.70833651,3.0069,"[{""rating"":47.708336512247726,""responseTime"":3.0069000000003143}]",space,3.3674,,869.3357,All the time,100,869.3419,,,[],,0,10,10,10,1,audio/Narrative8Situation1.wav,audio/Narrative7Situation1.wav,audio/Narrative6Situation1.wav,audio/Narrative5Situation1.wav,5,2,2,5,,,,,,,,,,,,,,,,,,,,,,,,,,,,,,,,,,,,,,,
,,,,,,63eab29693a6eb7fd0174010,2024-05-13_11h53.21.225,group3.1-3.2-social-tom,2023.2.2,Win32,59.88023952,65c5074098b851296ff0b7ed,66423732ea1b963499cab2bc,,,,,,,,,,,,,,,,,,,,,,,,,,,,,869.3424,2,audio/Narrative6Situation2.wav,872.3451,,872.3452,900.8595,"[[46.5,13576],[45.4,13659],[44.4,13743],[43.3,13826],[42,13910],[40.3,13993],[39.4,14077],[38.9,14159],[38.9,14239],[38.9,14326],[38.9,14404],[38.9,14487],[38.9,14571],[38.9,14658],[38.9,14737],[37.5,14820],[35.3,14909],[34,14992],[33.4,15075],[32.6,15160],[31.6,15237],[31,15319],[31,15403],[31.8,15487],[32.7,15575],[33.6,15659],[34.6,15741],[34.9,15824],[35.7,15908],[36.4,15992],[37.1,16069],[38.2,16154],[39.4,16240],[40.9,16324],[42,16403],[42.6,16490],[42.6,16568],[41.1,16656],[40.3,16740],[40.3,16818],[40.3,16901],[40.3,16985],[38,17070],[35.8,17156],[35.3,17236],[35.2,17318],[35.2,17401],[35.2,17490],[35.2,17568],[35.2,17656],[35,17735],[32.9,17822],[32.2,17906],[32.2,17984],[32.5,18069],[33.6,18156],[34.3,18239],[34.3,18318],[34.4,18400],[36.7,18490],[43.2,18573],[46.9,18651],[48.8,18738],[49.4,18822],[49.5,18900],[50.5,18988],[50.8,19072],[50.8,19150],[50.8,19234],[50.8,19317],[50.8,19405],[50.8,19483],[50.1,19567],[49.7,19650],[50.5,19739],[51.9,19817],[53.3,19905],[54.5,19990],[55.5,20067],[56.5,20155],[56.5,20233],[56.1,20321],[56,20404],[55.9,20482],[59,20570],[60.6,20656],[60.6,20737],[59.4,20820],[58.4,20899],[54.7,20986],[53,21070],[52.2,21148],[51.1,21237],[50.9,21315],[51.3,21399],[51.6,21482],[52.4,21571],[52.8,21653],[53,21733],[53.4,21815],[53.4,21897],[53.4,21982],[53.5,22069],[53.5,22148],[53.6,22237],[53.6,22314],[53.6,22402],[53.7,22481],[53.7,22564],[53.7,22647],[53.7,22731],[53.7,22814],[53.7,22897],[53.7,22985],[53.7,23064],[53.7,23147],[53.7,23235],[53.7,23314],[53.7,23397],[53.7,23480],[53.4,23564],[52.2,23651],[51.7,23734],[51.4,23813],[50.8,23897],[49.9,23984],[48.6,24068],[47.7,24152],[47,24234],[46.7,24318],[46.8,24397],[48.8,24484],[50.6,24563],[51.8,24647],[52.6,24735],[52.6,24812],[52.6,24896],[52.6,24984],[52.7,25062],[52.7,25145],[52.7,25229],[52.7,25316],[52.7,25395],[52.7,25479],[52.7,25567],[52.7,25650],[52.7,25733],[52.7,25812],[52.3,25900],[51.5,25983],[51.1,26060],[50.6,26150],[49.7,26233],[49.6,26310],[49.6,26400],[50.7,26478],[52.1,26566],[52.5,26644],[52,26732],[50.9,26816],[50.6,26894],[50.6,26982],[50.6,27059],[51.6,27144],[52,27226],[52.6,27315],[53,27399],[53.3,27482],[53.9,27565],[54.4,27649],[54.4,27727],[54.4,27810],[54.4,27898],[54.4,27976],[54.4,28059],[54.4,28149],[54.4,28231],[54.4,28309],[54.4,28393],[54.4,28481]]",1,0,900.8599,904.7019,48.33333492,3.081,"[{""rating"":48.33333492279053,""responseTime"":3.0810000000000173}]",space,3.3123,,904.7021,Half the time,50,904.7083,,,[],,0,11,11,11,1,audio/Narrative8Situation2.wav,audio/Narrative7Situation2.wav,audio/Narrative6Situation2.wav,audio/Narrative5Situation2.wav,3,3,3,3,,,,,,,,,,,,,,,,,,,,,,,,,,,,,,,,,,,,,,,
,,,,,,63eab29693a6eb7fd0174010,2024-05-13_11h53.21.225,group3.1-3.2-social-tom,2023.2.2,Win32,59.88023952,65c5074098b851296ff0b7ed,66423732ea1b963499cab2bc,,,,,,,,,,,,,,,,,,,,,,,,,,,,,904.7088,2,audio/Narrative6Situation3.wav,909.7143,,909.7145,922.3588,"[[999,17],[999,82],[999,170],[999,249],[999,337],[999,416],[999,499],[999,583],[999,666],[999,748],[999,832],[999,915],[999,998],[999,1081],[999,1164],[999,1248],[999,1331],[999,1420],[999,1503],[999,1581],[999,1665],[999,1748],[999,1836],[999,1915],[999,1997],[999,2080],[999,2165],[999,2247],[999,2331],[999,2414],[999,2502],[999,2586],[999,2664],[999,2747],[999,2835],[999,2914],[999,2997],[999,3080],[999,3163],[999,3247],[999,3329],[999,3415],[999,3502],[999,3580],[999,3663],[999,3746],[999,3830],[999,3913],[999,3996],[999,4083],[999,4163],[999,4251],[999,4333],[999,4419],[999,4496],[999,4583],[999,4666],[999,4746],[999,4833],[55,4916],[56.5,4999],[57.5,5084],[57.8,5161],[58,5250],[58,5328],[58.2,5412],[60,5499],[61.4,5582],[62,5661],[62.1,5750],[62.1,5828],[62.1,5911],[62.1,5995],[62.1,6077],[62.1,6161],[62.1,6249],[62.1,6328],[62.1,6411],[62.1,6494],[62.1,6577],[62.1,6660],[62.1,6744],[62.1,6827],[62.1,6910],[62.1,6994],[62.1,7078],[60.8,7160],[59.5,7248],[58.2,7332],[57.9,7410],[57.9,7492],[58.6,7582],[59.3,7664],[59.7,7743],[59.9,7827],[59.9,7909],[59.9,7998],[59.9,8076],[59.9,8164],[59.9,8242],[59.9,8326],[59.9,8409],[59.9,8492],[59.9,8576],[59.9,8659],[59.9,8747],[59.9,8830],[59.9,8908],[59.9,8992],[59.9,9079],[59.9,9158],[59.9,9241],[59.9,9325],[59.9,9408],[59.9,9492],[59.9,9580],[59.9,9657],[59.9,9740],[59.9,9825],[59.9,9908],[59.9,9996],[59.9,10074],[59.9,10162],[59.9,10241],[59.9,10324],[59.9,10412],[59.9,10496],[59.9,10579],[59.9,10657],[59.9,10745],[59.9,10824],[59.9,10907],[59.9,10990],[59.9,11074],[59.9,11157],[59.9,11239],[59.9,11323],[59.9,11407],[59.9,11489],[59.9,11577],[59.9,11657],[59.9,11744],[59.9,11823],[59.9,11906],[59.9,11989],[59.9,12073],[59.9,12156],[59.9,12239],[59.9,12324],[59.9,12406],[59.9,12494],[59.9,12572]]",1,0,922.3592,925.4007,60.83333492,1.8657,"[{""rating"":60.83333492279053,""responseTime"":1.865700000001084}]",space,2.5046,,925.4008,All the time,100,925.4067,,,[],,0,12,12,12,1,audio/Narrative8Situation3.wav,audio/Narrative7Situation3.wav,audio/Narrative6Situation3.wav,audio/Narrative5Situation3.wav,4,8,5,3,,,,,,,,,,,,,,,,,,,,,,,,,,,,,,,,,,,,,,,
,,,,,,63eab29693a6eb7fd0174010,2024-05-13_11h53.21.225,group3.1-3.2-social-tom,2023.2.2,Win32,59.88023952,65c5074098b851296ff0b7ed,66423732ea1b963499cab2bc,,,,,,,,,,,,,,,,,,,,,,,,,,,,,925.4071,2,audio/Narrative6Situation4.wav,927.415,,927.415,940.0399,"[[60.7,2183],[58.2,2264],[52.8,2348],[50.1,2432],[50.1,2514],[50.1,2597],[50.1,2681],[50.1,2765],[50.1,2848],[50.1,2932],[50.1,3015],[50.1,3097],[50.1,3181],[50.1,3265],[50.1,3348],[50.1,3431],[50.1,3514],[50.1,3598],[50.1,3681],[50.1,3764],[50.7,3847],[51,3931],[51.6,4013],[51.8,4096],[52.3,4180],[52.9,4263],[53.3,4346],[53.4,4429],[53.6,4513],[53.6,4597],[53.6,4680],[53.6,4763],[53.6,4846],[52.9,4929],[50.8,5013],[49.2,5095],[48.5,5179],[48.5,5263],[48.5,5346],[48.5,5429],[48.5,5513],[48.5,5596],[48.5,5679],[48.5,5762],[48.5,5845],[48.5,5928],[48.5,6013],[48.5,6096],[48.5,6178],[48.5,6262],[48.5,6345],[48.5,6428],[48.5,6511],[48.5,6595],[48.5,6678],[48.5,6762],[48.5,6845],[47.5,6927],[46.7,7011],[46.7,7095],[46.7,7178],[46.9,7260],[47.4,7344],[48.2,7427],[48.8,7512],[49,7595],[49.2,7677],[49.3,7761],[49.3,7844],[49.3,7927],[49.3,8010],[49.3,8093],[49.3,8176],[49.3,8261],[49.3,8344],[49.3,8427],[49.3,8510],[49.3,8594],[49.3,8676],[49.3,8760],[49.3,8843],[49.3,8926],[49.3,9009],[49.2,9093],[48.5,9176],[47.5,9259],[46.1,9342],[45.5,9426],[45.5,9509],[45.9,9595],[47.8,9675],[50,9759],[52.6,9843],[54.5,9925],[56.4,10009],[57.8,10092],[58.9,10176],[60.7,10259],[62.9,10341],[63.5,10424],[63.5,10509],[63.5,10592],[63.5,10675],[63.5,10759],[63.5,10841],[65,10925],[66.6,11009],[66.9,11091],[67.2,11174],[67.7,11258],[68,11341],[67.9,11425],[66.5,11507],[65.2,11590],[64.7,11674],[64.4,11758],[64.4,11841],[69.3,11923],[71.3,12008],[71.9,12090],[72.8,12174],[73.1,12257],[72.4,12340],[71.1,12423],[70.7,12509],[70.4,12590]]",1,0,940.0402,943.3367,63.43750159,2.629,"[{""rating"":63.43750158945719,""responseTime"":2.629000000000019}]",space,2.7486,,943.3368,Half the time,50,943.343,,,[],,0,13,13,13,1,audio/Narrative8Situation4.wav,audio/Narrative7Situation4.wav,audio/Narrative6Situation4.wav,audio/Narrative5Situation4.wav,3,3,2,1,,,,,,,,,,,,,,,,,,,,,,,,,,,,,,,,,,,,,,,
,,,,,,63eab29693a6eb7fd0174010,2024-05-13_11h53.21.225,group3.1-3.2-social-tom,2023.2.2,Win32,59.88023952,65c5074098b851296ff0b7ed,66423732ea1b963499cab2bc,,,,,,,,,,,,,,,,,,,,,,,,,,,,,943.3434,2,audio/Narrative6Situation5.wav,945.3511,,945.3512,953.3116,"[[59.1,3835],[54.3,3913],[54.3,3995],[53.7,4080],[51.4,4162],[50.6,4245],[50.3,4328],[50.3,4413],[50.3,4496],[50.3,4579],[50.3,4662],[50.3,4746],[50.3,4829],[50.3,4912],[50.3,4995],[47.6,5078],[45.6,5161],[45.4,5244],[45.4,5327],[45.4,5411],[48.8,5494],[52.5,5577],[55.7,5661],[58.6,5745],[60.8,5827],[63.4,5912],[65.1,5994],[65.8,6079],[65.9,6160],[65.9,6244],[65.9,6328],[65.9,6411],[65.9,6495],[65.9,6577],[65.9,6660],[65.9,6743],[65.9,6826],[65.9,6910],[65.9,6993],[65.9,7077],[69.6,7160],[72.8,7243],[77.5,7326],[81.7,7411],[85.3,7493],[89,7576],[90.5,7659],[91.1,7742],[91.4,7826],[91.4,7910]]",1,0,953.3118,957.1591,78.74999841,3.357,"[{""rating"":82.39583174387614,""responseTime"":1.3385999999997011},{""rating"":78.7499984105428,""responseTime"":3.3570000000000846}]",space,3.3076,,957.1592,Half the time,50,964.2026,50,2.6927,"[{""rating"":50,""responseTime"":2.692700000001082}]",space,0,14,14,14,1,audio/Narrative8Situation5.wav,audio/Narrative7Situation5.wav,audio/Narrative6Situation5.wav,audio/Narrative5Situation5.wav,2,5,2,5,,,6.4954,,,,,,,,,,,,,,,,,,,,,,,,,,,,,,,,,,,,
,,,,,,63eab29693a6eb7fd0174010,2024-05-13_11h53.21.225,group3.1-3.2-social-tom,2023.2.2,Win32,59.88023952,65c5074098b851296ff0b7ed,66423732ea1b963499cab2bc,,,,,,,,,,,,,,,,,,,,,,,,,,,,,964.2201,2,audio/Narrative6Situation6.wav,966.2342,,966.2342,977.3418,"[[60.5,3413],[67.7,3497],[72.5,3580],[74.8,3662],[80.2,3747],[84.3,3830],[85.9,3912],[86.3,3996],[86.3,4080],[86.3,4163],[86.3,4246],[86.3,4329],[86.3,4412],[86.3,4496],[86.3,4579],[86.3,4662],[86.3,4746],[86.3,4829],[86.3,4912],[90.8,4995],[91.9,5078],[91.9,5162],[87.7,5246],[84.3,5328],[83.2,5411],[82.2,5496],[81.9,5579],[82.3,5661],[83.2,5744],[83.5,5829],[83.5,5911],[83.8,5995],[84.1,6077],[84.7,6161],[84.9,6244],[85.1,6327],[85,6411],[85,6493],[85,6576],[85,6660],[85,6744],[85,6826],[85,6910],[85,6994],[85,7077],[85,7160],[85,7243],[85,7327],[85,7410],[82.5,7493],[76.4,7576],[73.5,7660],[72.3,7743],[72,7828],[71.8,7909],[71.8,7993],[71.8,8076],[71.9,8159],[71.9,8242],[71.9,8326],[71.9,8409],[71.9,8492],[71.9,8576],[71.9,8658],[71.9,8742],[71.9,8826],[71.9,8909],[72.1,8993],[76.6,9075],[84.8,9158],[88.2,9241],[88.5,9325],[88.5,9408],[88.5,9491],[88.5,9575],[88.5,9658],[91,9740],[92.5,9825],[93.1,9907],[93.2,9990],[93.2,10075],[93.2,10157],[93.2,10240],[93.2,10324],[93.2,10408],[93.2,10491],[93.2,10574],[93.2,10658],[93.2,10740],[93.2,10824],[92.8,10907],[91.9,10991],[91.3,11073]]",1,0,977.3419,983.6028,83.64583651,5.1242,"[{""rating"":83.64583651224773,""responseTime"":5.12420000000111}]",space,5.7129,,983.603,Half the time,50,983.6056,,,[],,0,15,15,15,1,audio/Narrative8Situation6.wav,audio/Narrative7Situation6.wav,audio/Narrative6Situation6.wav,audio/Narrative5Situation6.wav,2,3,2,3,,,,,,,,,,,,,,,,,,,,,,,,,,,,,,,,,,,,,,,
,,,,,,63eab29693a6eb7fd0174010,2024-05-13_11h53.21.225,group3.1-3.2-social-tom,2023.2.2,Win32,59.88023952,65c5074098b851296ff0b7ed,66423732ea1b963499cab2bc,,,,,,,,,,,,,,,,,,,,,,,,,,,,,983.6061,2,audio/Narrative6Situation7.wav,988.6158,,988.6158,1013.4791,"[[63.1,3413],[62.9,3497],[62.9,3579],[62.9,3663],[62.9,3746],[62.9,3830],[62.9,3913],[62.9,3996],[62.9,4079],[62.9,4162],[62.9,4246],[63,4330],[63.9,4413],[64.6,4496],[65.6,4579],[66,4662],[66,4746],[64.7,4829],[61.9,4912],[60,4995],[58.2,5079],[56.5,5162],[55.8,5244],[55.6,5328],[55.6,5411],[55.6,5495],[55.6,5577],[55.6,5661],[55.6,5745],[55.6,5828],[55.6,5912],[55.6,5995],[55.6,6077],[55.6,6161],[55.6,6244],[55.6,6327],[55.6,6411],[55.6,6494],[55.6,6577],[55.6,6661],[55.6,6744],[55.6,6826],[55.6,6910],[55.6,6994],[55.1,7076],[53.9,7159],[53.9,7243],[53.9,7326],[53.9,7409],[54.4,7493],[54.9,7576],[55.4,7659],[55.9,7742],[56.6,7827],[57.1,7911],[57.3,7993],[57.6,8077],[57.8,8160],[57.8,8242],[57.8,8325],[57.8,8410],[57.8,8492],[57.8,8576],[57.8,8659],[57.8,8742],[57.8,8825],[57.8,8909],[57.8,8992],[57.8,9076],[57.8,9159],[57.8,9242],[57.8,9325],[57.8,9408],[57.8,9492],[57.8,9575],[57.8,9658],[57.8,9741],[57.8,9825],[57.8,9908],[57.8,9991],[57.8,10075],[57.8,10158],[57.8,10241],[57.8,10324],[57.8,10407],[57.8,10491],[57.8,10575],[57.8,10657],[57.8,10741],[57.8,10824],[57.8,10907],[57.8,10991],[57.8,11074],[57.8,11157],[57.8,11239],[57.8,11323],[57.8,11407],[57.8,11490],[57.8,11573],[57.8,11657],[57.8,11740],[57.8,11823],[57.8,11907],[57.8,11990],[57.8,12073],[57.8,12156],[57.8,12240],[57.8,12323],[57.8,12406],[58.1,12489],[58.5,12572],[59.4,12657],[60.1,12739],[60.2,12822],[60.2,12905],[60.2,12988],[60.2,13072],[60.2,13155],[60.2,13239],[56.6,13322],[53.4,13405],[52.9,13488],[53.4,13572],[56.6,13656],[58.3,13737],[58.9,13822],[59.1,13905],[59.1,13988],[59.4,14071],[62,14154],[65,14238],[67.2,14320],[69.3,14404],[70.1,14487],[70.3,14570],[69.9,14654],[67.9,14737],[66.8,14820],[66.4,14903],[66.4,14987],[66.4,15070],[67.2,15154],[67.7,15236],[68.2,15319],[68.4,15404],[68.8,15486],[69.1,15570],[69.1,15653],[69.1,15736],[69.1,15819],[69.1,15903],[69.1,15986],[69.1,16069],[69.1,16153],[69.1,16236],[69.1,16319],[69.1,16403],[69.1,16486],[69.1,16569],[69.1,16653],[69.1,16736],[69.1,16819],[69.1,16902],[69.1,16986],[69.1,17069],[69.1,17152],[69.1,17235],[69.1,17318],[69.1,17402],[69.1,17485],[69.1,17568],[69.1,17651],[69.1,17735],[69.1,17818],[69.1,17902],[69.1,17985],[69.1,18068],[69.1,18152],[69.1,18235],[69.1,18318],[69.1,18401],[69.1,18484],[69.5,18568],[70.3,18651],[70.3,18734],[70.3,18817],[70.3,18901],[70.3,18984],[70.3,19068],[70.3,19150],[70.3,19234],[70.3,19317],[70.3,19400],[70.3,19484],[70.3,19567],[70.3,19649],[70.3,19733],[70.3,19817],[70.3,19900],[70.3,19983],[70.3,20067],[70.3,20149],[70.3,20233],[70.3,20316],[70.3,20399],[70.3,20482],[70.3,20566],[70.3,20649],[70.3,20732],[70.3,20816],[70.3,20899],[70.3,20982],[70.3,21066],[70.3,21149],[70.3,21232],[70.3,21315],[70.3,21398],[70.3,21482],[70.3,21565],[70.3,21649],[70.3,21732],[70.3,21815],[70.3,21898],[70.3,21982],[70.3,22065],[70.3,22148],[70.3,22231],[70.3,22315],[70.3,22398],[70.3,22481],[70.3,22564],[70.3,22647],[69.9,22730],[68.9,22814],[68.1,22897],[67.8,22981],[67.8,23064],[67.8,23147],[67.8,23230],[67.8,23313],[67.8,23397],[67.8,23480],[67.8,23564],[67.8,23647],[67.8,23730],[67.8,23813],[67.8,23896],[67.8,23980],[67.8,24063],[67.8,24147],[67.8,24229],[67.8,24312],[67.8,24396],[67.8,24479],[67.8,24563],[67.8,24645],[67.8,24729],[67.8,24812]]",1,0,1013.4795,1017.758,65.10416667,3.8229,"[{""rating"":65.10416666666666,""responseTime"":3.8228999999985263}]",space,3.7367,,1017.7582,All the time,100,1017.7659,,,[],,0,16,16,16,1,audio/Narrative8Situation7.wav,audio/Narrative7Situation7.wav,audio/Narrative6Situation7.wav,audio/Narrative5Situation7.wav,3,5,5,4,,,,,,,,,,,,,,,,,,,,,,,,,,,,,,,,,,,,,,,
