exp_question,consent.started,consent.stopped,consentResponse.keys,consentResponse.rt,consentResponse.duration,participantID,date,expName,psychopyVersion,OS,frameRate,STUDY_ID,SESSION_ID,opening1.started,opening1.stopped,keyEndingOpening1.keys,keyEndingOpening1.rt,keyEndingOpening1.duration,volumeAdjust.started,volumeAdjust.stopped,endingAdjust.keys,endingAdjust.rt,endingAdjust.duration,opening2.started,opening2.stopped,keyEndingOpening.keys,keyEndingOpening.rt,keyEndingOpening.duration,mouse.x,mouse.y,mouse.leftButton,mouse.midButton,mouse.rightButton,mouse.time,instructionLoop.thisRepN,instructionLoop.thisTrialN,instructionLoop.thisN,instructionLoop.thisIndex,instructionLoop.ran,readyForAudio.started,readyForAudio.stopped,fixation.started,run,audio_played,fixation.stopped,endPractice.keys,audioPre.started,audioPre.stopped,continuousResponses_audio,continuousSlider.response,continuousSlider.rt,intRating.started,intRating.stopped,intQuestionSlider.response,intQuestionSlider.rt,intQuestionSlider.history,confirmResponse.keys,confirmResponse.rt,confirmResponse.duration,catchQuestion.started,catch_label,catch_value,catchQuestion.stopped,catchQuestionSlider.response,catchQuestionSlider.rt,catchQuestionSlider.history,confirmResponse_2.keys,audioRunLoop.thisRepN,audioRunLoop.thisTrialN,audioRunLoop.thisN,audioRunLoop.thisIndex,audioRunLoop.ran,conditions1_1,conditions2_1,conditions1_2,conditions2_2,dur1_1,dur2_1,dur1_2,dur2_2,endPractice.rt,endPractice.duration,confirmResponse_2.rt,confirmResponse_2.duration,runIntervalBreak.started,runIntervalBreak.stopped,endingBreakKey.keys,endingBreakKey.rt,endingBreakKey.duration,connection.started,connection.stopped,connectionEnding.keys,connectionEnding.rt,connectionEnding.duration,readyForText.started,readyForText.stopped,textPre.started,run_dup,textPre.stopped,continuousResponses_text,textRunLoop.thisRepN,textRunLoop.thisTrialN,textRunLoop.thisN,textRunLoop.thisIndex,textRunLoop.ran,text1_1,text1_2,text2_1,text2_2,runBreakText.started,runBreakText.stopped,endingBreakKey_2.keys,endingBreakKey_2.rt,endingBreakKey_2.duration,ending.started,ending.stopped,endingEnding.keys,endingEnding.rt,endingEnding.duration
tom,0.001,4.872,y,4.527,,63f77b9ca8439f6e1620c1cd,2024-05-13_08h59.01.251,group3.1-3.2-social-tom,2023.2.2,Win32,58.82352941,65c5074098b851296ff0b7ed,6642387fef7fc54214a0d6f3,,,,,,,,,,,,,,,,,,,,,,,,,,,,,,,,,,,,,,,,,,,,,,,,,,,,,,,,,,,,,,,,,,,,,,,,,,,,,,,,,,,,,,,,,,,,,,,,,,,,,,,,,,
,,,,,,63f77b9ca8439f6e1620c1cd,2024-05-13_08h59.01.251,group3.1-3.2-social-tom,2023.2.2,Win32,58.82352941,65c5074098b851296ff0b7ed,6642387fef7fc54214a0d6f3,4.872,11.522,space,6.615,,,,,,,,,,,,,,,,,,,,,,,,,,,,,,,,,,,,,,,,,,,,,,,,,,,,,,,,,,,,,,,,,,,,,,,,,,,,,,,,,,,,,,,,,,,,,,,,,,,,,,
,,,,,,63f77b9ca8439f6e1620c1cd,2024-05-13_08h59.01.251,group3.1-3.2-social-tom,2023.2.2,Win32,58.82352941,65c5074098b851296ff0b7ed,6642387fef7fc54214a0d6f3,,,,,,11.522,32.797,space,20.957,,,,,,,,,,,,,,,,,,,,,,,,,,,,,,,,,,,,,,,,,,,,,,,,,,,,,,,,,,,,,,,,,,,,,,,,,,,,,,,,,,,,,,,,,,,,,,,,,
,,,,,,63f77b9ca8439f6e1620c1cd,2024-05-13_08h59.01.251,group3.1-3.2-social-tom,2023.2.2,Win32,58.82352941,65c5074098b851296ff0b7ed,6642387fef7fc54214a0d6f3,,,,,,,,,,,32.807,46.747,space,13.909,,[],[],[],[],[],[],0,0,0,0,1,,,,,,,,,,,,,,,,,,,,,,,,,,,,,,,,,,,,,,,,,,,,,,,,,,,,,,,,,,,,,,,,,,,,,,,,,,,,,,,,
,,,,,,63f77b9ca8439f6e1620c1cd,2024-05-13_08h59.01.251,group3.1-3.2-social-tom,2023.2.2,Win32,58.82352941,65c5074098b851296ff0b7ed,6642387fef7fc54214a0d6f3,,,,,,,,,,,46.759,103.205,space,56.374,,[],[],[],[],[],[],1,0,1,0,1,,,,,,,,,,,,,,,,,,,,,,,,,,,,,,,,,,,,,,,,,,,,,,,,,,,,,,,,,,,,,,,,,,,,,,,,,,,,,,,,
,,,,,,63f77b9ca8439f6e1620c1cd,2024-05-13_08h59.01.251,group3.1-3.2-social-tom,2023.2.2,Win32,58.82352941,65c5074098b851296ff0b7ed,6642387fef7fc54214a0d6f3,,,,,,,,,,,103.221,134.45,space,31.188,,[],[],[],[],[],[],2,0,2,0,1,,,,,,,,,,,,,,,,,,,,,,,,,,,,,,,,,,,,,,,,,,,,,,,,,,,,,,,,,,,,,,,,,,,,,,,,,,,,,,,,
,,,,,,63f77b9ca8439f6e1620c1cd,2024-05-13_08h59.01.251,group3.1-3.2-social-tom,2023.2.2,Win32,58.82352941,65c5074098b851296ff0b7ed,6642387fef7fc54214a0d6f3,,,,,,,,,,,134.458,186.079,space,51.597,,[],[],[],[],[],[],3,0,3,0,1,,,,,,,,,,,,,,,,,,,,,,,,,,,,,,,,,,,,,,,,,,,,,,,,,,,,,,,,,,,,,,,,,,,,,,,,,,,,,,,,
,,,,,,63f77b9ca8439f6e1620c1cd,2024-05-13_08h59.01.251,group3.1-3.2-social-tom,2023.2.2,Win32,58.82352941,65c5074098b851296ff0b7ed,6642387fef7fc54214a0d6f3,,,,,,,,,,,186.098,204.607,space,18.49,,[],[],[],[],[],[],4,0,4,0,1,,,,,,,,,,,,,,,,,,,,,,,,,,,,,,,,,,,,,,,,,,,,,,,,,,,,,,,,,,,,,,,,,,,,,,,,,,,,,,,,
,,,,,,63f77b9ca8439f6e1620c1cd,2024-05-13_08h59.01.251,group3.1-3.2-social-tom,2023.2.2,Win32,58.82352941,65c5074098b851296ff0b7ed,6642387fef7fc54214a0d6f3,,,,,,,,,,,,,,,,,,,,,,,,,,,204.618,207.192,207.213,1,audio/Narrative13Situation2.wav,209.224,,209.225,238.988,"[[999,2],[999,115],[999,199],[999,282],[999,365],[999,449],[999,532],[999,615],[999,698],[999,782],[999,865],[999,948],[999,1032],[999,1115],[999,1199],[999,1282],[999,1365],[999,1448],[999,1533],[999,1615],[999,1699],[999,1782],[999,1865],[999,1948],[999,2032],[999,2115],[999,2199],[999,2282],[999,2365],[999,2448],[999,2532],[999,2615],[999,2699],[999,2782],[999,2865],[999,2948],[999,3032],[999,3115],[999,3198],[999,3281],[999,3365],[999,3448],[999,3532],[999,3615],[999,3699],[999,3781],[999,3865],[999,3948],[999,4031],[999,4114],[999,4198],[999,4281],[999,4365],[999,4448],[999,4531],[999,4615],[999,4697],[999,4781],[999,4864],[999,4948],[999,5032],[999,5115],[999,5199],[999,5282],[999,5364],[999,5448],[999,5532],[999,5615],[999,5698],[999,5782],[999,5865],[999,5948],[999,6031],[999,6115],[999,6198],[999,6282],[41,6365],[44,6448],[47.5,6532],[55.7,6615],[59.4,6698],[59.9,6782],[59.9,6865],[59.9,6948],[59.9,7031],[60,7114],[60,7198],[60,7282],[60,7364],[60,7448],[60,7531],[60,7614],[60,7698],[60.4,7781],[60.6,8197],[60.2,8281],[60,8365],[59.9,8448],[59.9,8531],[59.9,8615],[59.9,8698],[59.9,8781],[59.9,8864],[59.9,8948],[59.9,9030],[59.9,9114],[59.9,9198],[60.4,9281],[60.6,9365],[60.6,9447],[60.6,9531],[60.5,9615],[60,9698],[59.9,9780],[59.9,9864],[59.9,9948],[59.9,10030],[59.9,10114],[59.9,10197],[59.9,10281],[59.9,10364],[59.7,10448],[67.6,16364],[66.4,16447],[64.9,16530],[64.9,16613],[63.5,16698],[44.5,17031],[42.1,17114],[40.7,17198],[40.5,17280],[40.5,17364],[40.5,17447],[40.5,17530],[40.5,17617],[40.5,17696],[40.5,17780],[40.5,17863],[40.5,17946],[40.5,18030],[40.5,18113],[40.5,18197],[40.5,18280],[40.5,18363],[40.8,18446],[40.9,18530],[40.9,18613],[40.9,18697],[40.9,18780],[40.9,18863],[40.9,18947],[40.9,19028],[40.9,19113],[40.7,19197],[40.6,19280],[40.6,19363],[40.6,19446],[40.6,19530],[40.6,19613],[40.6,19696],[40.6,19780],[40.6,19863],[40.6,19946],[40.6,20028],[40.6,20112],[40.6,20196],[40.6,20278],[40.6,20363],[40.6,20446],[40.6,20528],[40.6,20612],[40.6,20694],[40.6,20778],[40.6,20863],[40.6,20946],[40.6,21028],[40.6,21113],[40.6,21196],[40.6,21278],[40.6,21363],[40.6,21446],[40.6,21530],[40.6,21613],[40.6,21696],[40.6,21780],[40.8,21863],[40.8,21946],[40.8,22028],[40.8,22113],[40.8,22196],[40.8,22280],[40.8,22362],[40.8,22446],[40.8,22528],[40.8,22612],[40.8,22696],[40.8,22780],[40.8,22863],[40.8,22946],[40.8,23028],[40.8,23112],[40.8,23196],[40.8,23278],[40.8,23362],[40.8,23446],[40.8,23528],[40.8,23612],[40.8,23696],[40.8,23778],[40.8,23862],[40.8,23944],[40.8,24028],[40.8,24112],[40.8,24194],[40.8,24278],[40.8,24362],[40.8,24446],[40.8,24528],[40.8,24612],[40.8,24696],[40.8,24778],[41.9,24863],[44.4,24944],[45.8,25028],[47.9,25112],[54.1,25194],[59,25278],[62,25362],[64,25446],[67.7,25528],[67.7,25612],[67.7,25696],[67.8,25778],[67.8,25862],[67.8,25946],[67.8,26028],[67.8,26112],[67.8,26196],[67.8,26278],[67.8,26362],[67.8,26444],[67.8,26528],[67.8,26612],[67.8,26694],[67.8,26778],[67.8,26862],[67.8,26944],[67.8,27028],[67.8,27112],[67.8,27196],[67.8,27278],[67.8,27362],[67.8,27444],[67.8,27528],[67.8,27610],[67.8,27694],[67.8,27778],[67.8,27862],[67.8,27944],[67.8,28028],[67.8,28112],[67.8,28194],[67.8,28278],[67.8,28362],[67.8,28444],[67.8,28528],[67.8,28610],[67.8,28694],[67.8,28778],[67.8,28860],[67.8,28944],[67.8,29028],[67.8,29112],[67.8,29194],[67.8,29278],[67.8,29362],[67.8,29444],[67.8,29528],[67.8,29612],[67.8,29694]]",1,0,238.988,248.019,57.8125,3.988,"[{""rating"":57.8125,""responseTime"":3.9879999999999995}]",space,8.492,,248.027,All the time,100,248.029,,,[],,0,0,0,0,1,audio/Narrative13Situation2.wav,audio/Narrative13Situation2.wav,audio/Narrative13Situation2.wav,audio/Narrative13Situation2.wav,2,2,2,2,,,,,,,,,,,,,,,,,,,,,,,,,,,,,,,,,,,,,,,
,,,,,,63f77b9ca8439f6e1620c1cd,2024-05-13_08h59.01.251,group3.1-3.2-social-tom,2023.2.2,Win32,58.82352941,65c5074098b851296ff0b7ed,6642387fef7fc54214a0d6f3,,,,,,,,,,,,,,,,,,,,,,,,,,,,,248.029,1,audio/Narrative8Situation1.wav,251.135,space,251.135,267.05,"[[999,7],[999,82],[999,166],[999,250],[999,332],[999,415],[999,498],[999,582],[999,666],[999,750],[999,832],[999,916],[999,1000],[999,1084],[999,1166],[999,1250],[999,1334],[999,1416],[999,1500],[999,1582],[999,1665],[999,1750],[999,1832],[999,1915],[999,2000],[999,2082],[999,2165],[999,2248],[999,2332],[999,2415],[999,2498],[999,2582],[999,2665],[999,2750],[999,2832],[999,2915],[999,3000],[999,3084],[999,3166],[999,3250],[999,3331],[999,3416],[999,3500],[999,3582],[999,3666],[999,3750],[999,3832],[999,3915],[999,4000],[999,4082],[48.8,4166],[50.7,4250],[52,4334],[54,4416],[55.2,4500],[59.6,4582],[63,4664],[63,4748],[63.2,4832],[63.2,4915],[63.3,5000],[64.1,5082],[64.5,5165],[64.5,5248],[64.5,5331],[64.5,5415],[64.5,5498],[64.5,5582],[64.5,5665],[64.5,5750],[64.5,5832],[64.5,5915],[64.5,5998],[64.5,6081],[64.5,6165],[64.5,6248],[64.5,6331],[64.5,6415],[64.5,6498],[64.5,6582],[64.5,6665],[64.5,6748],[64.5,6832],[64.5,6915],[64.5,6998],[64.5,7081],[64.5,7165],[64.5,7248],[64.5,7331],[64.8,7415],[65.8,7500],[66,7581],[66.9,7665],[67.4,7748],[67.4,7832],[68.5,7915],[68.6,7998],[68.6,8081],[68.6,8165],[68.6,8248],[68.6,8331],[68.6,8414],[68.6,8498],[68.6,8581],[68.6,8665],[68.6,8748],[68.6,8831],[68.6,8915],[68.6,8997],[68.6,9081],[68.6,9165],[68.6,9248],[68.6,9331],[68.6,9415],[68.6,9498],[68.6,9581],[68.6,9664],[68.6,9748],[68.6,9831],[68.6,9914],[68.6,9997],[68.6,10081],[68.6,10164],[68.6,10247],[68.6,10331],[68.6,10414],[68.6,10498],[68.6,10581],[68.6,10664],[68.6,10748],[68.6,10831],[68.6,10915],[68.6,10997],[68.6,11081],[68.6,11165],[68.6,11248],[68.6,11330],[68.6,11415],[68.6,11497],[68.6,11581],[68.6,11665],[68.6,11747],[68.6,11831],[68.6,11914],[68.6,11998],[68.6,12081],[67.7,12165],[65.7,12248],[64.7,12331],[64.7,12414],[64.4,12498],[64.2,12580],[63.4,12664],[63.4,12748],[63.4,12830],[63.4,12914],[63.4,12997],[63.4,13081],[63.4,13164],[63.4,13247],[63.4,13330],[63.4,13415],[63.4,13498],[63.4,13581],[63.4,13664],[63.4,13748],[63.4,13831],[63.4,13914],[63.4,13997],[63.4,14081],[63.4,14164],[63.4,14247],[63.4,14331],[63.4,14413],[63.4,14497],[63.4,14581],[63.4,14664],[63.4,14747],[63.4,14831],[63.4,14914],[63.4,14997],[63.4,15080],[63.4,15163],[63.4,15247],[63.4,15330],[63.4,15414],[63.4,15497],[63.4,15580],[63.4,15663],[63.4,15747],[63.4,15830],[63.4,15914]]",1,0,267.05,273.299,49.58333174,4.203,"[{""rating"":49.583331743876144,""responseTime"":4.203000000000031}]",space,5.72,,273.299,Not at all,0,273.305,,,[],,0,1,1,1,1,audio/Narrative7Situation1.wav,audio/Narrative8Situation1.wav,audio/Narrative5Situation1.wav,audio/Narrative6Situation1.wav,2,5,5,2,3.087,,,,,,,,,,,,,,,,,,,,,,,,,,,,,,,,,,,,,,
,,,,,,63f77b9ca8439f6e1620c1cd,2024-05-13_08h59.01.251,group3.1-3.2-social-tom,2023.2.2,Win32,58.82352941,65c5074098b851296ff0b7ed,6642387fef7fc54214a0d6f3,,,,,,,,,,,,,,,,,,,,,,,,,,,,,273.305,1,audio/Narrative8Situation2.wav,276.316,,276.316,286.43,"[[70.8,3583],[76.7,3665],[79.7,3749],[80.7,3831],[86.6,3915],[95.1,3999],[96.3,4081],[96.3,4165],[96.3,4249],[91.5,4331],[77.6,4415],[70.6,4499],[68.5,4581],[64.7,4665],[63.9,4747],[63.8,4831],[63.8,4915],[63.8,4999],[63.8,5081],[63.8,5165],[64,5249],[68.9,5331],[71.3,5415],[71.3,5499],[71.3,5581],[71.3,5665],[71.3,5749],[71.3,5831],[71.3,5915],[71.3,5997],[71.3,6081],[71.3,6165],[67.4,6249],[52.3,6331],[47.4,6415],[41.5,6499],[37.2,6581],[36.8,6665],[35.7,6747],[35.7,6831],[35.7,6915],[35.7,6997],[35.7,7081],[35.7,7165],[35.7,7247],[35.7,7331],[35.7,7415],[35.9,7497],[40.1,7581],[51.5,7665],[63.8,7749],[64.1,7831],[64.1,7915],[64.5,7999],[64.5,8081],[64.5,8165],[64.5,8247],[64.5,8331],[64.5,8413],[64.5,8497],[64.5,8581],[64.5,8663],[64.5,8747],[64.5,8831],[64.5,8913],[64.5,8997],[64.5,9081],[67.7,9163],[69.9,9247],[70,9331],[70.5,9413],[70.5,9497],[70.5,9581],[70.5,9665],[70.5,9747],[70.5,9831],[70.5,9915],[70.5,9997],[70.5,10081]]",1,0,286.43,290.98,70.5208381,1.696,"[{""rating"":70.52083810170492,""responseTime"":1.6959999999999695}]",space,4.021,,290.98,All the time,100,290.99,,,[],,0,2,2,2,1,audio/Narrative7Situation2.wav,audio/Narrative8Situation2.wav,audio/Narrative5Situation2.wav,audio/Narrative6Situation2.wav,3,3,3,3,,,,,,,,,,,,,,,,,,,,,,,,,,,,,,,,,,,,,,,
,,,,,,63f77b9ca8439f6e1620c1cd,2024-05-13_08h59.01.251,group3.1-3.2-social-tom,2023.2.2,Win32,58.82352941,65c5074098b851296ff0b7ed,6642387fef7fc54214a0d6f3,,,,,,,,,,,,,,,,,,,,,,,,,,,,,290.99,1,audio/Narrative8Situation3.wav,294.996,,294.996,317.376,"[[51.1,4332],[50.7,4415],[50.7,4500],[50,4582],[46,4666],[43.9,4749],[43.9,4832],[43.9,4915],[43.9,4999],[43.9,5082],[43.9,5165],[43.9,5250],[43.9,5331],[43.9,5415],[43.9,5500],[43.9,5581],[43.9,5665],[43.9,5749],[43.9,5832],[43.9,5915],[43.9,5999],[43.9,6081],[43.9,6165],[43.9,6249],[43.9,6331],[43.9,6415],[43.9,6499],[43.9,6582],[43.9,6665],[43.9,6749],[43.9,6831],[43.9,6915],[43.9,7000],[43.9,7082],[43.9,7165],[43.9,7249],[43.9,7331],[43.9,7415],[43.9,7500],[43.9,7582],[43.9,7665],[43.9,7749],[43.9,7832],[43.9,7916],[43.9,7999],[43.9,8081],[43.9,8165],[43.9,8250],[43.9,8332],[43.9,8415],[43.9,8500],[43.9,8582],[43.9,8665],[43.9,8749],[43.9,8832],[43.9,8915],[43.9,8999],[43.9,9081],[43.9,9165],[43.9,9249],[43.9,9331],[43.9,9415],[43.9,9499],[43.9,9581],[43.9,9665],[43.9,9749],[43.9,9831],[43.9,9915],[43.9,9999],[43.9,10081],[43.9,10165],[43.9,10249],[43.9,10331],[43.9,10415],[43.9,10497],[43.9,10581],[43.9,10665],[43.9,10749],[43.9,10831],[43.9,10915],[43.9,10999],[43.9,11081],[43.9,11165],[43.9,11249],[43.9,11331],[43.9,11415],[43.9,11499],[43.9,11581],[43.9,11665],[43.9,11749],[43.9,11831],[43.9,11915],[43.9,11999],[43.9,12081],[43.9,12165],[43.9,12249],[43.9,12331],[43.9,12415],[43.9,12499],[43.9,12581],[43.9,12665],[43.9,12747],[43.9,12831],[43.9,12915],[43.9,12999],[43.9,13081],[43.9,13165],[43.9,13249],[43.9,13331],[43.9,13415],[43.9,13499],[43.9,13581],[43.9,13665],[43.9,13747],[43.9,13831],[43.9,13915],[43.9,13999],[43.9,14081],[43.9,14163],[43.9,14247],[43.9,14331],[43.9,14413],[43.9,14497],[43.9,14581],[43.9,14665],[43.9,14747],[43.9,14831],[43.9,14915],[43.9,14997],[43.9,15081],[43.9,15165],[43.9,15247],[43.9,15331],[43.9,15415],[43.9,15497],[43.9,15581],[43.9,15665],[43.9,15747],[43.9,15831],[43.9,15913],[43.9,15997],[42.9,16081],[41.1,16165],[39.5,16247],[38.9,16331],[38.4,16415],[37.6,16497],[37.6,16581],[37.9,16665],[42.3,16747],[52.7,16831],[55.6,16915],[56.7,16997],[56.7,17081],[56.7,17165],[56.7,17247],[56.7,17331],[56.7,17415],[56.7,17497],[56.7,17581],[56.7,17663],[56.7,17747],[56.7,17831],[56.7,17913],[56.7,17997],[56.7,18081],[56.7,18163],[56.7,18247],[56.7,18329],[56.7,18413],[56.7,18497],[56.7,18581],[56.7,18665],[56.7,18747],[56.7,18831],[56.7,18915],[56.7,18997],[56.7,19081],[56.7,19163],[56.7,19247],[56.7,19329],[56.7,19413],[56.7,19497],[56.7,19581],[56.7,19665],[56.7,19747],[56.7,19831],[56.7,19913],[56.7,19997],[56.7,20081],[56.7,20163],[56.7,20247],[56.7,20331],[56.7,20413],[56.7,20497],[56.7,20579],[56.7,20663],[56.7,20747],[56.7,20831],[56.7,20913],[56.7,20997],[56.7,21081],[56.7,21163],[56.7,21247],[56.7,21331],[56.7,21413],[56.7,21497],[56.7,21581],[56.7,21665],[56.7,21747],[56.7,21831],[56.7,21913],[56.7,21997],[56.7,22081],[56.7,22163],[56.7,22247],[56.7,22331]]",1,0,317.377,322.292,72.49999841,1.638,"[{""rating"":72.49999841054282,""responseTime"":1.6380000000000337}]",space,4.383,,322.292,Not at all,0,322.303,,,[],,0,3,3,3,1,audio/Narrative7Situation3.wav,audio/Narrative8Situation3.wav,audio/Narrative5Situation3.wav,audio/Narrative6Situation3.wav,8,4,3,5,,,,,,,,,,,,,,,,,,,,,,,,,,,,,,,,,,,,,,,
,,,,,,63f77b9ca8439f6e1620c1cd,2024-05-13_08h59.01.251,group3.1-3.2-social-tom,2023.2.2,Win32,58.82352941,65c5074098b851296ff0b7ed,6642387fef7fc54214a0d6f3,,,,,,,,,,,,,,,,,,,,,,,,,,,,,322.303,1,audio/Narrative8Situation4.wav,325.309,,325.309,339.474,"[[72.3,1333],[66.4,1415],[51.6,2333],[51.6,2417],[51.6,2500],[51.6,2583],[51.5,2667],[51.5,2749],[51.5,2833],[51.5,2915],[51.5,3000],[51.5,3083],[51.5,3165],[51.5,3250],[51.5,3333],[51.5,3415],[51.5,3499],[51.5,3583],[51.5,3665],[51.5,3749],[51.5,3831],[51.5,3915],[51.5,3999],[51.5,4083],[51.5,4165],[49.7,4249],[40.2,4333],[30.8,4415],[26.9,4499],[25.6,4583],[22.6,4667],[21.7,4749],[21.7,4831],[21.7,4915],[21.7,4999],[21.7,5083],[21.7,5165],[21.7,5249],[21.7,5333],[21.7,5415],[21.7,5499],[21.7,5581],[21.7,5665],[21.7,5750],[21.7,5833],[21.7,5915],[21.7,5999],[21.7,6083],[21.7,6165],[21.7,6249],[21.7,6333],[21.7,6415],[21.7,6499],[21.7,6581],[21.7,6665],[21.7,6749],[21.7,6833],[21.7,6915],[21.7,6999],[21.7,7081],[21.7,7165],[21.7,7249],[21.7,7333],[21.7,7415],[21.7,7499],[21.7,7581],[21.7,7665],[21.7,7749],[21.7,7831],[21.7,7915],[21.7,7997],[21.7,8081],[21.7,8165],[21.7,8247],[22.2,8333],[22.9,8415],[23.8,8497],[24.9,8581],[25.5,8665],[27.4,8749],[27.5,8831],[37.2,9165],[40.9,9249],[42.7,9331],[42.7,9415],[42.7,9499],[42.9,9581],[42.9,9665],[42.9,9747],[42.9,9831],[42.9,9915],[42.9,9997],[42.9,10081],[42.9,10165],[42.9,10247],[42.9,10331],[42.9,10415],[42.9,10497],[42.9,10581],[42.9,10665],[42.9,10749],[42.9,10831],[42.9,10915],[43.4,10999],[45.6,11081],[50.7,11165],[55.3,11249],[57.5,11331],[57.6,11415],[59,11499],[65.3,11581],[69.1,11665],[70.6,11747],[70.6,11831],[73.5,11915],[80.2,11999],[80.2,12081],[80.2,12165],[80.2,12249],[80.2,12331],[80.2,12415],[80.2,12497],[80.2,12581],[80.2,12665],[80.2,12747],[80.2,12831],[80.2,12915],[80.2,12997],[80.2,13081],[80.2,13165],[80.2,13247],[80.2,13331],[80.2,13415],[80.2,13497],[80.1,13581],[78,13665],[76.4,13747],[74.4,13831],[72.5,13915],[70.6,13997],[69.4,14081],[68.4,14165]]",1,0,339.474,343.49,72.39583333,2.312,"[{""rating"":72.39583333333334,""responseTime"":2.312000000000012}]",space,3.468,,343.49,Not at all,0,343.492,,,[],,0,4,4,4,1,audio/Narrative7Situation4.wav,audio/Narrative8Situation4.wav,audio/Narrative5Situation4.wav,audio/Narrative6Situation4.wav,3,3,1,2,,,,,,,,,,,,,,,,,,,,,,,,,,,,,,,,,,,,,,,
,,,,,,63f77b9ca8439f6e1620c1cd,2024-05-13_08h59.01.251,group3.1-3.2-social-tom,2023.2.2,Win32,58.82352941,65c5074098b851296ff0b7ed,6642387fef7fc54214a0d6f3,,,,,,,,,,,,,,,,,,,,,,,,,,,,,343.493,1,audio/Narrative8Situation5.wav,345.506,,345.506,353.739,"[[999,1],[999,84],[999,167],[999,250],[999,333],[999,417],[999,501],[999,584],[999,667],[999,750],[999,834],[999,917],[999,1001],[48.4,1084],[49.3,1167],[49.4,1251],[49.4,1334],[49.9,1417],[53.5,1501],[55.9,1583],[59.5,1667],[63.5,1750],[64.8,1833],[64.8,1915],[64.8,2000],[64.8,2084],[64.8,2167],[64.8,2250],[64.8,2333],[64.8,2417],[64.8,2500],[64.8,2583],[64.8,2667],[64.8,2750],[64.8,2834],[64.8,2917],[64.8,3000],[64.8,3083],[64.8,3165],[64.8,3249],[64.8,3331],[64.8,3417],[64.8,3499],[64.8,3583],[64.8,3665],[64.8,3749],[64.8,3833],[64.8,3915],[64.8,4000],[64.8,4083],[64.8,4165],[64.8,4250],[64.8,4333],[64.4,4415],[64.4,4499],[64.4,4581],[64.4,4667],[64.4,4749],[67.1,4833],[67.9,4915],[70.3,5000],[70.8,5083],[71,5165],[71,5250],[71,5333],[71,5415],[71.7,5500],[75.3,5584],[75.3,5665],[75.3,5749],[75.4,5834],[75.4,5915],[76,5999],[76.3,6083],[76.7,6165],[76.8,6250],[76.8,6333],[76.8,6415],[76.8,6500],[76.8,6583],[76.8,6667],[76.8,6750],[76.8,6831],[76.8,6915],[76.8,6999],[76.8,7083],[76.8,7165],[76.8,7249],[76.8,7333],[76.8,7415],[76.8,7499],[76.8,7583],[76.8,7665],[76.8,7749],[76.8,7831],[76.8,7915],[76.8,7999],[76.8,8083],[76.8,8165]]",1,0,353.739,404.45,91.66666667,1.427,"[{""rating"":91.66666666666667,""responseTime"":1.427000000000021}]",space,50.164,,404.45,Not at all,0,404.465,,,[],,0,5,5,5,1,audio/Narrative7Situation5.wav,audio/Narrative8Situation5.wav,audio/Narrative5Situation5.wav,audio/Narrative6Situation5.wav,5,2,5,2,,,,,,,,,,,,,,,,,,,,,,,,,,,,,,,,,,,,,,,
,,,,,,63f77b9ca8439f6e1620c1cd,2024-05-13_08h59.01.251,group3.1-3.2-social-tom,2023.2.2,Win32,58.82352941,65c5074098b851296ff0b7ed,6642387fef7fc54214a0d6f3,,,,,,,,,,,,,,,,,,,,,,,,,,,,,404.465,1,audio/Narrative8Situation6.wav,406.467,,406.467,412.948,"[[91.6,841],[91.5,923],[91.3,1007],[91.3,1091],[91,1175],[90.7,1257],[90.6,1341],[90.6,1423],[90.6,1500],[90.6,1591],[72,1675],[49.3,1757],[39.4,1841],[32.8,1925],[28.3,2007],[27.8,2091],[27.8,2173],[27.8,2254],[27.8,2331],[27.8,2423],[27.8,2504],[27.8,2581],[27.8,2673],[27.8,2757],[27.8,2841],[27.8,2923],[27.8,2997],[27.8,3079],[27.8,3173],[27.8,3247],[27.8,3331],[27.8,3423],[27.8,3507],[27.8,3581],[27.8,3673],[27.8,3752],[27.8,3831],[27.8,3921],[27.8,4007],[27.8,4089],[27.8,4173],[27.8,4257],[27.8,4339],[27.8,4423],[27.8,4497],[27.8,4588],[27.8,4665],[27.2,4757],[23,4841],[21.5,4923],[20.9,5004],[20.9,5089],[20.9,5173],[20.9,5254],[20.9,5339],[20.9,5413],[20.9,5507],[20.9,5587],[20.9,5663],[20.9,5747],[20.5,5839],[19.5,5923],[19,6007],[18.1,6091],[16.8,6175],[15.4,6255],[15.2,6339],[15.2,6421]]",1,0,412.949,419.23,22.49999841,4.538,"[{""rating"":22.499998410542805,""responseTime"":4.538000000000011}]",space,5.718,,419.23,Half the time,50,419.24,,,[],,0,6,6,6,1,audio/Narrative7Situation6.wav,audio/Narrative8Situation6.wav,audio/Narrative5Situation6.wav,audio/Narrative6Situation6.wav,3,2,3,2,,,,,,,,,,,,,,,,,,,,,,,,,,,,,,,,,,,,,,,
,,,,,,63f77b9ca8439f6e1620c1cd,2024-05-13_08h59.01.251,group3.1-3.2-social-tom,2023.2.2,Win32,58.82352941,65c5074098b851296ff0b7ed,6642387fef7fc54214a0d6f3,,,,,,,,,,,,,,,,,,,,,,,,,,,,,419.24,1,audio/Narrative8Situation7.wav,422.247,,422.247,434.328,"[[22.9,750],[23.2,833],[23.2,915],[24.5,1000],[25.2,1083],[25.2,1165],[26.9,1249],[27.6,1333],[27.8,1415],[27.8,1500],[27.8,1583],[27.8,1665],[27.8,1749],[27.8,1831],[27.8,1915],[27.8,1998],[27.8,2081],[27.8,2165],[28.6,2249],[35.5,2331],[38.5,2415],[39.9,2499],[41.6,2583],[41.6,2665],[42.2,2750],[45.1,2833],[46.1,2915],[46.9,2999],[47.4,3083],[47.6,3165],[47.9,3249],[48.9,3333],[49,3415],[49,3499],[49,3581],[49,3665],[49,3749],[49,3833],[49,3915],[49,3999],[49,4083],[49,4165],[49,4249],[49,4333],[49,4415],[49,4499],[49,4581],[49,4665],[49,4749],[49,4833],[49,4915],[49,4999],[49,5081],[49,5165],[49,5248],[49,5331],[49.2,5415],[52.2,5499],[55.2,5581],[56.5,5665],[56.8,5749],[59.4,5831],[60.1,5915],[60.1,5999],[60.1,6081],[60.1,6165],[60.1,6248],[60.1,6331],[60.1,6415],[60.1,6498],[60.1,6581],[60.1,6665],[60.1,6748],[60.1,6831],[60.1,6914],[60.1,6999],[60.1,7081],[60.1,7165],[60.1,7248],[60.1,7331],[60.1,7415],[60.1,7498],[60.1,7581],[60.1,7664],[60.1,7748],[60.1,7831],[60.1,7915],[60.1,7998],[60.1,8081],[60.1,8165],[60,8248],[59.2,8331],[58.4,8415],[56.7,8499],[55.5,8581],[54.3,8665],[53,8749],[52.9,8831],[52.7,8915],[52.7,8998],[51.9,9081],[50.9,9165],[50.3,9248],[50.3,9331],[50.3,9415],[50.3,9498],[50.3,9581],[50.3,9665],[50.3,9748],[50.3,9831],[50.3,9915],[50.3,9998],[50.3,10081],[50.3,10165],[50.3,10248],[50.3,10331],[50.3,10415],[50.3,10498],[50.7,10581],[54.4,10665],[54.9,10748],[55.2,10831],[55.9,10915],[56.8,10998],[58.3,11081],[59.1,11165],[59.8,11248],[62.8,11331],[63.2,11415],[63.8,11498],[64.1,11581],[64.1,11665],[64.1,11748],[64.1,11831],[64.1,11915],[64.1,11998],[64.1,12081]]",1,0,434.329,437.128,63.64583174,1.224,"[{""rating"":63.64583174387614,""responseTime"":1.2240000000000464}]",space,2.25,,437.128,Not at all,0,437.133,,,[],,0,7,7,7,1,audio/Narrative7Situation7.wav,audio/Narrative8Situation7.wav,audio/Narrative5Situation7.wav,audio/Narrative6Situation7.wav,5,3,4,5,,,,,,,,,,,,,,,,,,,,,,,,,,,,,,,,,,,,,,,
,,,,,,63f77b9ca8439f6e1620c1cd,2024-05-13_08h59.01.251,group3.1-3.2-social-tom,2023.2.2,Win32,58.82352941,65c5074098b851296ff0b7ed,6642387fef7fc54214a0d6f3,,,,,,,,,,,,,,,,,,,,,,,,,,,,,437.133,1,audio/Narrative8Situation8.wav,440.145,,440.145,453.009,"[[61.5,1165],[58.6,1250],[56.1,1331],[55.8,1415],[55.8,1498],[55,1581],[54.8,1665],[54.6,1750],[53.9,1832],[53.2,1915],[52.8,2000],[52.3,2082],[51.8,2165],[51.8,2248],[51.7,2331],[51.5,2415],[51.4,2498],[51.3,2582],[51.1,2665],[50.7,2750],[50.6,2832],[50.6,2915],[50.6,2998],[50.6,3082],[50.6,3165],[50.6,3248],[50.6,3331],[50.6,3415],[50.6,3498],[50.6,3581],[50.6,3665],[50.6,3748],[50.6,3831],[50.6,3915],[50.6,3998],[50.6,4081],[50.6,4165],[50.6,4248],[50.6,4331],[50.6,4415],[50.6,4498],[50.6,4581],[50.6,4665],[50.6,4747],[50.6,4831],[50.6,4915],[50.6,4998],[50.6,5081],[50.8,5165],[51.3,5247],[51.4,5331],[51.4,5415],[51.4,5497],[51.4,5581],[52.5,5665],[52.8,5747],[53,5831],[56.7,5915],[60.1,5998],[60.4,6081],[62.4,6165],[63.3,6248],[63.3,6331],[63.3,6415],[63.3,6497],[63.3,6581],[63.3,6665],[63.3,6747],[63.3,6831],[63.3,6915],[63.3,6997],[63.3,7081],[63.3,7165],[63.3,7247],[63.3,7331],[63.3,7415],[63.3,7497],[63.3,7581],[63.3,7665],[63.3,7748],[63.3,7831],[63.3,7915],[63.3,7997],[63.3,8081],[63.1,8165],[62.3,8248],[61.8,8331],[60.8,8415],[60.6,8497],[60.5,8581],[60.5,8665],[60.5,8747],[60.5,8831],[59.6,8915],[59.5,8997],[59.5,9081],[59.5,9165],[59.5,9247],[58.8,9331],[58.1,9415],[58.1,9497],[58.1,9581],[58.1,9665],[58.1,9747],[58.1,9831],[58.1,9915],[58.1,9997],[58.1,10081],[58.1,10165],[58.1,10247],[58.1,10331],[59.5,10415],[60.3,10497],[61.5,10581],[63.9,10665],[66.9,10747],[69,10831],[70.7,10915],[70.8,10997],[71.3,11081],[71.6,11163],[71.6,11247],[71.6,11331],[71.6,11415],[71.6,11497],[71.6,11580],[71.6,11665],[71.6,11747],[71.6,11830],[71.6,11915],[71.6,11997],[71.6,12080],[71.6,12164],[71.6,12247],[71.6,12330],[71.6,12415],[71.6,12497],[71.6,12579],[71.6,12662],[71.6,12747],[71.6,12830]]",1,0,453.009,456.026,65.31250477,1.362,"[{""rating"":65.31250476837158,""responseTime"":1.3619999999999663}]",space,2.485,,456.026,All the time,100,456.031,,,[],,0,8,8,8,1,audio/Narrative7Situation8.wav,audio/Narrative8Situation8.wav,audio/Narrative5Situation8.wav,audio/Narrative6Situation8.wav,2,3,3,5,,,,,,,,,,,,,,,,,,,,,,,,,,,,,,,,,,,,,,,
,,,,,,63f77b9ca8439f6e1620c1cd,2024-05-13_08h59.01.251,group3.1-3.2-social-tom,2023.2.2,Win32,58.82352941,65c5074098b851296ff0b7ed,6642387fef7fc54214a0d6f3,,,,,,,,,,,,,,,,,,,,,,,,,,,,,456.031,1,audio/Narrative8Situation9.wav,459.042,,459.042,470.374,"[[57.2,6831],[56.7,6914],[56.6,6999],[57.5,7081],[59.3,7166],[60.3,7249],[60.3,7332],[60.3,7414],[60.6,7499],[61.1,7581],[61.1,7664],[61.1,7749],[61.1,7831],[61.1,7914],[61.1,7999],[61.1,8081],[61.1,8164],[61.1,8249],[61.1,8331],[61.1,8414],[61.1,8498],[61.1,8581],[61.1,8666],[61.1,8749],[61.1,8831],[61.1,8916],[61.1,8999],[61.1,9081],[61.1,9166],[61.1,9249],[61.1,9331],[61.1,9416],[61.1,9498],[61.1,9581],[61.1,9664],[61.1,9748],[61.1,9831],[61.1,9914],[61.1,9998],[61.1,10081],[61.1,10164],[61.1,10248],[61.1,10331],[61.1,10414],[61.1,10498],[61.1,10581],[61.1,10664],[61.1,10748],[61.1,10831],[61.1,10914],[61.1,10998],[61.1,11081],[61.1,11164],[61.1,11249],[61.1,11331]]",1,0,470.374,476.439,50.52083333,4.581,"[{""rating"":50.520833333333336,""responseTime"":4.581000000000017}]",space,5.516,,476.439,All the time,100,476.445,,,[],,0,9,9,9,1,audio/Narrative7Situation9.wav,audio/Narrative8Situation9.wav,audio/Narrative5Situation9.wav,audio/Narrative6Situation9.wav,2,3,3,4,,,,,,,,,,,,,,,,,,,,,,,,,,,,,,,,,,,,,,,
,,,,,,63f77b9ca8439f6e1620c1cd,2024-05-13_08h59.01.251,group3.1-3.2-social-tom,2023.2.2,Win32,58.82352941,65c5074098b851296ff0b7ed,6642387fef7fc54214a0d6f3,,,,,,,,,,,,,,,,,,,,,,,,,,,,,476.445,1,audio/Narrative7Situation1.wav,478.456,,478.456,534.332,"[[999,0],[999,82],[999,167],[999,249],[999,332],[999,416],[999,500],[999,582],[999,666],[999,750],[999,834],[999,917],[999,1000],[999,1084],[999,1167],[45.2,1250],[37.7,1332],[34.5,1417],[34.5,1500],[34.5,1582],[34.5,1666],[34.5,1749],[34.5,1832],[32.3,1916],[27.2,2000],[26.7,2084],[25.9,2166],[25.9,2250],[25.9,2332],[25.9,2416],[25.9,2500],[25.9,2582],[25.9,2667],[25.9,2749],[25.9,2832],[25.9,2916],[25.9,3000],[25.9,3082],[25.9,3166],[25.9,3250],[25.9,3332],[25.9,3416],[25.9,3499],[25.9,3582],[25.9,3666],[25.9,3749],[25.9,3832],[25.9,3916],[25.9,3999],[25.9,4082],[25.9,4166],[25.9,4249],[25.9,4332],[25.9,4416],[25.9,4499],[25.9,4582],[25.9,4666],[25.9,4750],[25.9,4832],[25.9,4916],[25.9,5000],[25.9,5082],[25.9,5166],[28,5249],[28.6,5331],[29.8,5416],[30.9,5498],[31,5582],[31,5666],[31,5748],[31.3,5832],[33.5,5916],[33.5,5999],[33.5,6082],[33.5,6166],[33.5,6249],[33.5,6331],[33.5,6416],[33.5,6498],[33.5,6581],[33.5,6664],[33.5,6749],[33.5,6831],[33.5,6914],[33.5,6999],[34,7081],[35.9,7164],[36.9,7249],[38.2,7331],[41.2,7414],[41.7,7499],[41.7,7581],[41.7,7664],[41.7,7749],[41.7,7831],[41.7,7916],[41.7,7999],[41.7,8081],[41.7,8166],[41.7,8249],[41.6,8331],[41.2,8416],[40.7,8498],[40.5,8581],[40.4,8664],[40.4,8749],[40.4,8832],[40.4,8916],[40.4,8999],[40.4,9082],[40.4,9166],[40.4,9248],[38.6,9332],[36.6,9416],[34.5,9500],[33.1,9581],[32.5,9664],[32.1,9749],[31.5,9832],[31.4,9914],[31.1,9999],[31.1,10081],[31.1,10166],[31.1,10249],[31.1,10331],[31.1,10414],[30.8,10498],[30.5,10581],[30.4,10664],[30.3,10748],[30,10831],[29.9,10914],[29.6,10999],[29.4,11081],[29.4,11166],[29.4,11249],[29.4,11331],[29.4,11414],[29.4,11498],[29.4,11581],[29.4,11664],[29.4,11749],[29.4,11831],[29.4,11914],[29.4,11998],[29.4,12081],[29.4,12164],[29.4,12249],[29.4,12331],[29.4,12414],[29.4,12498],[29.4,12581],[29.4,12664],[29.4,12749],[29.4,12831],[29.4,12914],[29.4,12998],[29.4,13081],[29.4,13166],[29.4,13248],[29.4,13331],[29.4,13414],[29.4,13498],[29.4,13581],[29.4,13664],[29.4,13748],[29.4,13831],[29.4,13914],[29.4,13998],[29.4,14081],[29.4,14164],[29.4,14248],[29.4,14331],[29.4,14413],[29.4,14498],[29.4,14581],[29.4,14663],[29.4,14748],[29.4,14831],[29.4,14913],[29.4,14997],[29.4,15081],[29.4,15164],[29.4,15247],[29.4,15331],[29.4,15413],[29.4,15498],[29.4,15581],[29.4,15664],[29.4,15748],[29.4,15831],[29.4,15914],[29.4,15998],[29.4,16081],[29.4,16163],[29.5,16249],[29.9,16340],[30.6,16423],[31.8,16507],[32.5,16591],[32.5,16668],[33.1,16757],[33.9,16841],[35.4,16925],[35.9,17005],[36.1,17091],[37.4,17175],[38.2,17257],[38.9,17341],[39.7,17425],[40.1,17507],[40.6,17591],[41.7,17673],[42,17758],[42.7,17841],[43.6,17923],[44.6,18007],[44.8,18090],[48.6,23340],[47.6,23423],[47.6,23505],[47.6,23590],[47.6,23663],[47.6,23755],[47.6,23840],[48.2,23923],[49,24005],[51.1,24090],[56,24173],[59.6,24255],[59.9,24339],[59.9,24420],[59.9,24505],[59.9,24590],[59.9,24663],[59.9,24755],[59.9,24839],[60,24923],[60,25004],[60,25089],[60,25172],[60,25248],[60,25330],[60,25422],[60,25505],[60,25580],[60,25673],[60,25755],[60,25834],[60,25922],[60,26005],[60,26089],[60,26173],[60,26255],[60,26331],[60,26423],[60,26505],[60,26581],[60,26663],[60,26755],[60,26839],[60,26913],[60,27004],[60,27089],[60,27173],[60,27255],[60,27330],[62.8,27423],[63.5,27505],[63.9,27581],[64.1,27672],[64.9,27757],[65.6,27839],[65.9,27922],[65.9,28004],[65.9,28089],[65.9,28172],[65.9,28250],[65.9,28339],[65.9,28422],[65.9,28498],[65.9,28589],[65.7,28672],[65.2,28755],[64.8,28839],[64.5,28922],[64.4,29005],[64.4,29082],[64.4,29172],[64.4,29250],[64.4,29337],[64.4,29420],[64.4,29495],[64.4,29580],[64.4,29671],[64.4,29754],[64.4,29837],[64.4,29913],[64.4,30003],[64.4,30089],[64.4,30163],[64.4,30254],[64.4,30337],[64.4,30422],[64.4,30505],[64.4,30589],[64.4,30662],[64.4,30745],[64.4,30829],[64.4,30913],[64.4,31005],[64.4,31079],[64.4,31167],[64.4,31254],[64.4,31336],[64.4,31422],[64.4,31504],[64.4,31589],[64.4,31670],[64.4,31754],[64.4,31829],[64.4,31922],[64.4,32004],[64.4,32086],[64.4,32162],[64.4,32245],[64.4,32337],[64.4,32412],[64.4,32504],[64.4,32587],[64.4,32662],[64.4,32753],[64.4,32829],[64.4,32916],[64.4,33004],[64.4,33089],[64.4,33162],[64.4,33254],[64.4,33336],[64.4,33412],[64.4,33504],[64.4,33579],[64.2,33663],[63.3,33754],[62.7,33839],[62.2,33922],[61.9,34004],[61.7,34089],[61.1,34170],[61,34254],[60.5,34336],[60.1,34422],[60,34504],[59.7,34580],[59.2,34672],[58.8,34754],[58.6,34827],[58.4,34922],[58,35004],[57.4,35089],[56.9,35172],[56.4,35254],[56,35337],[55.6,35422],[55.3,35495],[54.8,35587],[54.4,35672],[54.1,35754],[53.9,35837],[53.7,35922],[53.7,35995],[53.7,36087],[53.7,36161],[53.7,36254],[53.7,36336],[53.7,36422],[53.7,36504],[53.5,36577],[53.4,36662],[53.4,36754],[53.4,36837],[53.4,36912],[53.4,37004],[53.4,37079],[53.4,37171],[53.4,37254],[53.4,37327],[53.4,37421],[53.4,37504],[53.4,37577],[53.4,37670],[53.4,37753],[53.4,37836],[53.4,37921],[53.4,38003],[53.4,38079],[53.4,38163],[53.4,38254],[53.4,38336],[53.4,38416],[53.4,38507],[53.4,38587],[53.4,38666],[53.4,38753],[53.4,38836],[53.4,38923],[53.4,39004],[53.4,39086],[53.4,39166],[53.4,39254],[53.6,39336],[53.9,39421],[53.9,39504],[54.2,39587],[54.2,39671],[54.4,39754],[54.9,39836],[54.9,39913],[54.9,40004],[54.9,40077],[54.9,40161],[54.9,40252],[54.9,40336],[54.9,40420],[54.9,40504],[54.9,40586],[54.9,40670],[54.9,40745],[54.9,40836],[54.9,40921],[54.9,41004],[54.9,41086],[54.9,41171],[54.9,41254],[54.9,41336],[54.9,41412],[54.9,41495],[54.9,41586],[54.9,41671],[54.9,41744],[54.9,41827],[54.9,41916],[54.9,42004],[54.9,42086],[54.9,42168],[54.9,42254],[54.9,42336],[54.9,42411],[55.1,42505],[55.7,42595],[55.9,42678],[57,42762],[57.8,42845],[58.5,42928],[60.2,43012],[61.4,43096],[62.5,43178],[63.5,43262],[64,43345],[65.4,43428],[66.4,43510],[66.9,43594],[67.4,43677],[68,43760],[69.2,43844],[69.6,43928],[70.7,44010],[74.6,45012],[74.6,45094],[74.4,45178],[74.4,45260],[74.4,45344],[74.9,45428],[76,45510],[76,45594],[76,45678],[76,45760],[76,45844],[76,45927],[75.6,46010],[75.6,46094],[75.6,46177],[75.6,46259],[75.6,46344],[75.6,46427],[75.6,46509],[75.6,46592],[75.6,46677],[75.6,46760],[75.6,46844],[75.6,46927],[75.6,47009],[75.6,47094],[75.6,47177],[75.6,47259],[75.6,47342],[75.6,47427],[75.6,47509],[75.6,47595],[75.6,47677],[75.6,47760],[75.6,47844],[75.6,47927],[75.6,48009],[75.6,48094],[75.6,48177],[75.6,48259],[75.6,48344],[75.6,48427],[75.6,48509],[75.6,48594],[76,48676],[77,48759],[77.6,48842],[78.3,48927],[79,49009],[79,49094],[79,49177],[79,49260],[79,49344],[79,49427],[79,49509],[79,49594],[79,49678],[79,49759],[79,49844],[79,49926],[79,50010],[79,50094],[79,50176],[79,50260],[79,50342],[79,50426],[79,50509],[79,50594],[79,50676],[79,50759],[79,50844],[79,50926],[79,51009],[79,51094],[79,51176],[79,51259],[79,51342],[79,51426],[79,51509],[79,51592],[79,51676],[79,51759],[79,51844],[79,51926],[79,52009],[79,52092],[79,52177],[79,52259],[79,52342],[79,52427],[79,52509],[79,52592],[79,52676],[79,52759],[79,52842],[79,52926],[79,53009],[79,53092],[79,53176],[79,53259],[79,53342],[79,53426],[79,53509],[79,53592],[79,53677],[79,53759],[79,53842],[79,53927],[79,54009],[79,54092],[79,54176],[79,54259],[79,54342],[79,54426],[79,54509],[79,54592],[79,54676],[79,54759],[79,54842],[79,54926],[79,55009],[79,55091],[79,55176],[79,55259],[79,55341],[79,55426],[79,55509],[79,55591],[79,55676],[79,55759],[79,55841]]",1,0,534.333,537.499,75.93750159,1.519,"[{""rating"":75.9375015894572,""responseTime"":1.5190000000000055}]",space,2.626,,537.499,Not at all,0,537.503,,,[],,0,10,10,10,1,audio/Narrative8Situation1.wav,audio/Narrative7Situation1.wav,audio/Narrative6Situation1.wav,audio/Narrative5Situation1.wav,5,2,2,5,,,,,,,,,,,,,,,,,,,,,,,,,,,,,,,,,,,,,,,
,,,,,,63f77b9ca8439f6e1620c1cd,2024-05-13_08h59.01.251,group3.1-3.2-social-tom,2023.2.2,Win32,58.82352941,65c5074098b851296ff0b7ed,6642387fef7fc54214a0d6f3,,,,,,,,,,,,,,,,,,,,,,,,,,,,,537.503,1,audio/Narrative7Situation2.wav,540.515,,540.515,547.981,"[[53.7,1667],[52.7,1750],[51.8,1833],[50.6,1916],[50.2,2000],[49.9,2083],[49.8,2166],[49.8,2250],[49.8,2331],[49.8,2416],[49.8,2499],[49.8,2583],[49.8,2666],[49.8,2749],[49.8,2831],[49.8,2915],[49.8,2999],[49.8,3083],[49.8,3166],[49.8,3249],[49.8,3333],[49.8,3416],[49.8,3500],[49.8,3581],[49.8,3666],[49.8,3750],[49.8,3831],[49.8,3916],[49.8,3999],[49.8,4081],[49.8,4166],[49.8,4249],[50.9,4333],[52.4,4417],[53.3,4499],[54.2,4581],[55.5,4666],[56.6,4750],[57.8,4831],[59.4,4916],[60.1,4999],[60.4,5083],[60.7,5166],[60.7,5249],[60.7,5331],[60.7,5416],[60.7,5499],[60.7,5581],[60.7,5666],[60.7,5749],[60.7,5831],[60.7,5916],[60.7,5999],[60.7,6081],[60.7,6165],[60.7,6249],[60.7,6331],[60.7,6416],[60.7,6498],[60.7,6583],[60.7,6665],[60.7,6749],[60.7,6831],[60.7,6915],[60.7,6998],[60.7,7081],[60.7,7165],[60.7,7249],[60.7,7331],[60.7,7415]]",1,0,547.981,552.896,56.56250318,2.059,"[{""rating"":56.56250317891439,""responseTime"":2.058999999999969}]",space,4.367,,552.896,Not at all,0,552.899,,,[],,0,11,11,11,1,audio/Narrative8Situation2.wav,audio/Narrative7Situation2.wav,audio/Narrative6Situation2.wav,audio/Narrative5Situation2.wav,3,3,3,3,,,,,,,,,,,,,,,,,,,,,,,,,,,,,,,,,,,,,,,
,,,,,,63f77b9ca8439f6e1620c1cd,2024-05-13_08h59.01.251,group3.1-3.2-social-tom,2023.2.2,Win32,58.82352941,65c5074098b851296ff0b7ed,6642387fef7fc54214a0d6f3,,,,,,,,,,,,,,,,,,,,,,,,,,,,,552.9,1,audio/Narrative7Situation3.wav,560.912,,560.912,570.195,"[[999,8],[999,82],[999,167],[999,250],[999,332],[999,416],[999,500],[999,582],[999,666],[999,750],[999,832],[51.9,916],[52,1000],[52,1082],[51.7,1167],[51.7,1250],[51.5,1333],[51.1,1417],[51.1,1500],[50.8,1582],[50.6,1666],[50.6,1749],[50.6,1832],[50.6,1917],[50.6,2000],[50.6,2082],[50.6,2167],[50.6,2250],[50.6,2332],[50.6,2416],[50.6,2499],[50.6,2583],[50.6,2667],[50.6,2750],[50.6,2832],[50.6,2916],[50.6,2999],[50.6,3081],[50.6,3166],[50.6,3250],[50.6,3332],[50.6,3417],[50.1,3500],[49.2,3582],[48.3,3666],[47.6,3750],[46.8,3832],[46,3916],[45.7,3999],[45.6,4082],[45.6,4166],[45.6,4249],[45.6,4331],[45.6,4416],[45.6,4499],[45.6,4582],[45.6,4666],[45.6,4749],[45.6,4831],[45.6,4916],[45.6,5000],[45.6,5082],[45.6,5166],[45.6,5250],[45.6,5331],[45.6,5416],[45.6,5499],[45.6,5581],[45.6,5666],[45.6,5749],[45.6,5831],[45.6,5914],[45.6,5999],[45.6,6082],[46,6166],[46.6,6249],[46.6,6331],[46.6,6416],[46.6,6499],[46.9,6582],[47.1,6666],[47.1,6750],[47.1,6831],[47.1,6916],[47.1,7000],[47.1,7081],[47.1,7166],[47.1,7249],[47.1,7331],[47,7416],[46.3,7499],[45.9,7581],[45.9,7666],[45.9,7749],[45.9,7832],[45.9,7914],[45.9,7999],[45.9,8082],[45.9,8164],[46.9,8250],[48.1,8332],[48.9,8416],[49.1,8499],[49.1,8581],[49.1,8664],[49.1,8749],[49.1,8831],[49.1,8914],[49.1,8999],[49.1,9081],[49.1,9166],[49.1,9249]]",1,0,570.195,572.827,49.68750477,1.111,"[{""rating"":49.68750476837158,""responseTime"":1.11099999999999}]",space,2.088,,572.827,Not at all,0,572.831,,,[],,0,12,12,12,1,audio/Narrative8Situation3.wav,audio/Narrative7Situation3.wav,audio/Narrative6Situation3.wav,audio/Narrative5Situation3.wav,4,8,5,3,,,,,,,,,,,,,,,,,,,,,,,,,,,,,,,,,,,,,,,
,,,,,,63f77b9ca8439f6e1620c1cd,2024-05-13_08h59.01.251,group3.1-3.2-social-tom,2023.2.2,Win32,58.82352941,65c5074098b851296ff0b7ed,6642387fef7fc54214a0d6f3,,,,,,,,,,,,,,,,,,,,,,,,,,,,,572.832,1,audio/Narrative7Situation4.wav,575.844,,575.844,587.576,"[[50.2,1415],[50.2,1499],[50.2,1582],[50.2,1665],[50.2,1750],[50.2,1832],[50.2,1915],[50.2,1999],[50.2,2081],[50.2,2165],[50.2,2249],[50.2,2332],[50.2,2415],[50.2,2499],[50.2,2582],[50.2,2664],[50.2,2749],[50.2,2832],[50.6,2915],[51.1,2999],[51.5,3082],[54.7,3165],[57,3249],[59.7,3332],[59.8,3415],[59.8,3499],[59.8,3582],[59.8,3665],[60.1,3749],[60.7,3831],[60.7,3914],[61.7,3999],[64.5,4081],[67.9,4165],[68.5,4249],[68.5,4331],[68.5,4414],[68.5,4497],[68.6,4582],[68.6,4664],[68.6,4749],[68.6,4831],[68.6,4914],[68.6,4997],[68.6,5081],[68.6,5165],[68.6,5247],[68.6,5331],[68.6,5414],[68.6,5497],[68.6,5581],[68.6,5664],[68.6,5747],[68.6,5831],[68.6,5914],[68.6,5999],[68.6,6081],[68.6,6164],[68.6,6249],[68.6,6331],[68.6,6414],[68.6,6497],[68.6,6581],[68.6,6664],[68.6,6747],[68.6,6831],[68.6,6914],[68.6,6997],[68.6,7081],[68.6,7164],[68.6,7247],[68.6,7331],[68.6,7414],[68.6,7497],[68.6,7581],[68.6,7664],[68.6,7747],[68.6,7831],[68.6,7914],[68.5,7999],[67.4,8081],[65.4,8164],[64.5,8249],[63.6,8331],[62.8,8414],[61.5,8497],[60.6,8581],[59.4,8664],[57.8,8747],[57.1,8831],[56.4,8914],[55.9,8997],[55.4,9081],[54.9,9164],[53.6,9247],[52.7,9331],[49.8,9414],[46.5,9499],[43.8,9581],[42.1,9665],[40.8,9747],[39.9,9831],[38.9,9914],[38.9,9999],[38.1,10081],[36,10164],[35.5,10249],[35.3,10331],[34.3,10414],[33.8,10497],[33.6,10581],[33.6,10664],[33.6,10749],[33.6,10831],[33.6,10914],[33.6,10997],[33.6,11081],[33.6,11164],[33.6,11246],[33.6,11331],[33.6,11414],[33.6,11497],[33.6,11581],[33.6,11664]]",1,0,587.576,590.575,32.18750159,1.222,"[{""rating"":32.18750158945719,""responseTime"":1.22199999999998}]",space,2.466,,590.575,All the time,100,590.582,,,[],,0,13,13,13,1,audio/Narrative8Situation4.wav,audio/Narrative7Situation4.wav,audio/Narrative6Situation4.wav,audio/Narrative5Situation4.wav,3,3,2,1,,,,,,,,,,,,,,,,,,,,,,,,,,,,,,,,,,,,,,,
,,,,,,63f77b9ca8439f6e1620c1cd,2024-05-13_08h59.01.251,group3.1-3.2-social-tom,2023.2.2,Win32,58.82352941,65c5074098b851296ff0b7ed,6642387fef7fc54214a0d6f3,,,,,,,,,,,,,,,,,,,,,,,,,,,,,590.582,1,audio/Narrative7Situation5.wav,595.591,,595.591,604.073,"[[999,9],[999,82],[999,166],[999,250],[999,332],[999,417],[999,500],[999,582],[45.7,666],[46.8,750],[48.1,832],[48.9,917],[49,1000],[49,1082],[49,1166],[49,1249],[49,1331],[49,1416],[49,1499],[49,1582],[49,1666],[49,1749],[49,1831],[49,1916],[49,1999],[49,2082],[49,2165],[49,2250],[49,2331],[49,2417],[49,2499],[49,2582],[47.3,2666],[45.2,2750],[44.5,2832],[43.1,2917],[41.9,2999],[41.6,3081],[41.6,3167],[41.6,3250],[41.6,3332],[41.6,3416],[41.5,3500],[41.5,3582],[41.5,3666],[41.5,3750],[41.5,3832],[41.5,3916],[41.5,4000],[41.5,4082],[41.5,4166],[41.5,4250],[41.5,4332],[41.5,4417],[41.5,4499],[40,4584],[31.8,4666],[30.5,4750],[29.6,4832],[28.2,4916],[26.3,5000],[25.6,5081],[24.4,5166],[21.8,5249],[21.1,5332],[20.9,5417],[19.5,5499],[18.5,5582],[17.5,5666],[17.3,5750],[17,5832],[17,5916],[17,6000],[17,6082],[17,6166],[17,6250],[17,6332],[17,6416],[17,6499],[17,6581],[17,6666],[17,6749],[17,6832],[17,6915],[17,7000],[17,7082],[17,7166],[17,7249],[17,7331],[17,7416],[17,7499],[17,7581],[17,7666],[17,7749],[17,7831],[17.1,7915],[17.2,8000],[17.6,8082],[17.7,8165],[18.9,8250],[19.7,8331],[20.2,8415]]",1,0,604.073,606.906,23.4375,0.944,"[{""rating"":23.4375,""responseTime"":0.94399999999996}]",space,2.306,,606.906,All the time,100,606.908,,,[],,0,14,14,14,1,audio/Narrative8Situation5.wav,audio/Narrative7Situation5.wav,audio/Narrative6Situation5.wav,audio/Narrative5Situation5.wav,2,5,2,5,,,,,,,,,,,,,,,,,,,,,,,,,,,,,,,,,,,,,,,
,,,,,,63f77b9ca8439f6e1620c1cd,2024-05-13_08h59.01.251,group3.1-3.2-social-tom,2023.2.2,Win32,58.82352941,65c5074098b851296ff0b7ed,6642387fef7fc54214a0d6f3,,,,,,,,,,,,,,,,,,,,,,,,,,,,,606.91,1,audio/Narrative7Situation6.wav,609.923,,609.923,619.888,"[[25,1083],[25.4,1166],[27.8,1249],[30.1,1333],[32.5,1415],[34.4,1499],[34.4,1583],[34.9,1666],[35.7,1749],[35.7,1831],[35.7,1916],[35.7,2000],[35.7,2081],[35.7,2165],[35.7,2249],[35.7,2331],[35.7,2416],[35.7,2499],[35.7,2581],[35.7,2666],[35.7,2748],[35.7,2831],[35.7,2915],[35.7,2999],[35.7,3081],[35.7,3165],[35.7,3249],[35.7,3331],[35.7,3415],[35.7,3499],[35.7,3581],[35.7,3666],[35.7,3749],[35.7,3831],[35.7,3915],[35.7,3999],[35.7,4081],[38.5,4166],[41.6,4249],[43,4333],[47.1,4416],[48.3,4499],[49.7,4581],[51,4665],[52.8,4749],[56.3,4831],[60,4916],[63.1,4999],[65.2,5081],[68.1,5165],[70.6,5249],[70.6,5331],[72.8,5416],[72.8,5499],[72.8,5581],[72.8,5666],[72.8,5749],[72.6,5831],[70.5,5915],[68.5,5999],[68.4,6081],[68.4,6165],[68.4,6248],[68.4,6331],[68.4,6415],[68.4,6499],[68.4,6581],[68.4,6666],[68.4,6749],[68.4,6831],[68.2,6916],[65.4,6999],[64.5,7081],[64,7165],[63.6,7249],[63.4,7331],[63.4,7415],[62.6,7499],[62.6,7581],[62.6,7665],[62.6,7749],[62.6,7831],[62.6,7915],[62.6,7998],[62.6,8081],[62.6,8165],[62.6,8248],[62.6,8331],[62.6,8415],[62.6,8499],[62.6,8581],[62.6,8665],[62.6,8748],[62.6,8831],[62.6,8915],[62.6,8999],[62.6,9081],[62.6,9165],[62.6,9248],[62.6,9331],[62.6,9413],[62.6,9498],[62.6,9581],[62.6,9665],[62.6,9748],[62.6,9831],[62.6,9913]]",1,0,619.889,622.671,62.60416508,0.792,"[{""rating"":62.60416507720947,""responseTime"":0.79200000000003}]",space,2.232,,622.672,Not at all,0,622.679,,,[],,0,15,15,15,1,audio/Narrative8Situation6.wav,audio/Narrative7Situation6.wav,audio/Narrative6Situation6.wav,audio/Narrative5Situation6.wav,2,3,2,3,,,,,,,,,,,,,,,,,,,,,,,,,,,,,,,,,,,,,,,
,,,,,,63f77b9ca8439f6e1620c1cd,2024-05-13_08h59.01.251,group3.1-3.2-social-tom,2023.2.2,Win32,58.82352941,65c5074098b851296ff0b7ed,6642387fef7fc54214a0d6f3,,,,,,,,,,,,,,,,,,,,,,,,,,,,,622.68,1,audio/Narrative7Situation7.wav,627.687,,627.687,644.861,"[[62.3,917],[59.2,1000],[51.5,1082],[50.1,1166],[50.1,1249],[50.1,1332],[49.9,1416],[49.9,1499],[49.9,1582],[49.9,1666],[49.9,1749],[49.9,1832],[49.9,1916],[49.9,1999],[49.9,2081],[49.9,2166],[49.9,2250],[49.9,2331],[49.9,2416],[49.9,2499],[49.9,2581],[49.9,2666],[49.9,2749],[49.9,2831],[49.9,2915],[49.9,2999],[49.9,3081],[49.9,3166],[49.9,3249],[49.9,3331],[49.9,3416],[49.9,3499],[49.9,3581],[49.9,3666],[49.9,3749],[49.9,3831],[50,3916],[51.5,4000],[53.5,4081],[55.2,4166],[55.6,4249],[55.6,4331],[55.8,4415],[58.2,4499],[64.3,4581],[71.9,4666],[74.8,4749],[75.3,4831],[77.4,4916],[78,4999],[79.6,5082],[79.9,5166],[80,5250],[80.2,5331],[80.2,5416],[80.7,5499],[81.7,5582],[82.4,5666],[83.2,5749],[85.8,5832],[85.8,5915],[85.8,6000],[85.8,6081],[85.8,6165],[85.8,6249],[85.8,6331],[85.8,6416],[85.8,6499],[85.8,6581],[85.8,6665],[85.8,6749],[85.8,6831],[85.8,6916],[85.8,6999],[85.8,7082],[85.8,7166],[85.8,7249],[85.8,7332],[85.8,7415],[85.8,7499],[85.8,7582],[85.8,7665],[85.8,7748],[85.8,7831],[85.8,7915],[85.8,7999],[85.8,8081],[85.8,8166],[85.8,8249],[85.8,8331],[85.8,8415],[85.8,8498],[85.8,8582],[85.8,8665],[85.8,8748],[85.8,8832],[85.8,8915],[85.8,8998],[85.8,9081],[87.4,9165],[88.7,9248],[89.6,9331],[90.1,9415],[90.7,9498],[91.4,9581],[91.4,9665],[91.4,9748],[91.4,9831],[91.4,9915],[91.4,9998],[91.4,10081],[91.4,10165],[91.4,10249],[91.4,10331],[91.4,10415],[91.4,10498],[91.4,10581],[91.4,10665],[91.4,10748],[91.4,10832],[91.4,10915],[91.4,10998],[91.4,11081],[91.4,11166],[91.4,11248],[91.4,11331],[91.4,11415],[91.4,11499],[91.4,11581],[91.4,11665],[91.4,11748],[91.4,11831],[91.4,11915],[91.4,11998],[91.4,12081],[91.4,12165],[91.4,12248],[91.4,12331],[91.4,12415],[91.4,12498],[91.4,12581],[91.4,12665],[91.4,12748],[91.4,12831],[91.4,12913],[91.4,12998],[91.4,13081],[91.4,13165],[91.4,13248],[91.4,13331],[91.4,13415],[91.4,13498],[91.4,13581],[91.4,13665],[91.4,13748],[91.4,13831],[91.4,13915],[91.4,13997],[91.4,14081],[91.4,14163],[91.3,14248],[90.9,14341],[90.9,14425],[90.9,14505],[90.9,14581],[90.9,14673],[90.9,14758],[90.9,14831],[90.9,14923],[90.9,14999],[90.9,15081],[90.7,15173],[90.4,15254],[89.4,15341],[88.6,15423],[88.2,15507],[88.2,15590],[87.4,15673],[86.9,15757],[86.1,15840],[85.5,15923],[85,16007],[84.6,16091],[84.6,16173],[84.6,16247],[84.6,16341],[84.6,16423],[84.6,16497],[84.6,16591],[84.6,16672],[84.6,16748],[84.6,16840],[84.6,16915],[84.6,17007],[84.6,17090],[84.6,17173]]",1,0,644.861,649.527,84.58333015,0.733,"[{""rating"":84.58333015441895,""responseTime"":0.7330000000000609}]",space,4.133,,649.527,Not at all,0,649.533,,,[],,0,16,16,16,1,audio/Narrative8Situation7.wav,audio/Narrative7Situation7.wav,audio/Narrative6Situation7.wav,audio/Narrative5Situation7.wav,3,5,5,4,,,,,,,,,,,,,,,,,,,,,,,,,,,,,,,,,,,,,,,
,,,,,,63f77b9ca8439f6e1620c1cd,2024-05-13_08h59.01.251,group3.1-3.2-social-tom,2023.2.2,Win32,58.82352941,65c5074098b851296ff0b7ed,6642387fef7fc54214a0d6f3,,,,,,,,,,,,,,,,,,,,,,,,,,,,,649.534,1,audio/Narrative7Situation8.wav,651.541,,651.542,661.558,"[[84.3,751],[84.3,826],[84.3,918],[83.1,1003],[79.5,1086],[75.6,1168],[71.9,1250],[67.2,1335],[64.1,1418],[63.1,1501],[61.9,1585],[60.4,1668],[59.7,1749],[59.6,1834],[59.6,1916],[59.6,2000],[59.6,2075],[59.6,2167],[59.6,2250],[59.6,2328],[59.6,2417],[59.6,2500],[59.6,2580],[59.6,2658],[59.6,2750],[59.6,2825],[59.6,2912],[59.6,2990],[59.6,3085],[59.6,3158],[59.7,3250],[59.8,3335],[60.3,3418],[60.3,3500],[60.4,3584],[60.8,3667],[60.9,3750],[61.5,3834],[61.5,3907],[62,4000],[62.2,4075],[62.5,4167],[62.6,4244],[62.6,4334],[62.6,4417],[62.6,4500],[62.6,4573],[62.6,4668],[62.6,4750],[62.6,4825],[62.6,4916],[62.6,4990],[62.6,5084],[62.6,5167],[62.6,5250],[62.6,5331],[62.6,5414],[62.6,5490],[62.6,5584],[62.8,5667],[63.8,5750],[65.9,5832],[65.9,5916],[66.4,6000],[66.7,6082],[66.7,6161],[66.7,6248],[66.7,6332],[66.7,6417],[66.7,6490],[66.7,6582],[66.7,6658],[66.7,6750],[66.7,6834],[66.7,6907],[66.7,7000],[66.7,7081],[66.7,7158],[66.7,7249],[66.7,7331],[66.7,7408],[66.7,7500],[66.7,7581],[66.7,7668],[66.7,7740],[66.7,7825],[66.7,7917],[66.7,8000],[66.7,8077],[66.7,8167],[66.7,8241],[66.7,8323],[66.7,8416],[66.7,8500],[66.7,8577],[66.7,8663],[66.7,8748],[66.7,8832],[66.7,8916],[66.7,8998],[66.7,9082],[66.7,9167],[66.7,9246],[66.7,9323],[66.7,9407],[66.7,9500],[66.7,9572],[66.7,9666],[66.7,9750],[66.7,9831],[66.7,9905],[66.7,9999]]",1,0,661.558,664.775,75.72917144,1.744,"[{""rating"":75.72917143503825,""responseTime"":1.7440000000000282}]",space,2.682,,664.775,Not at all,0,664.777,,,[],,0,17,17,17,1,audio/Narrative8Situation8.wav,audio/Narrative7Situation8.wav,audio/Narrative6Situation8.wav,audio/Narrative5Situation8.wav,3,2,5,3,,,,,,,,,,,,,,,,,,,,,,,,,,,,,,,,,,,,,,,
,,,,,,63f77b9ca8439f6e1620c1cd,2024-05-13_08h59.01.251,group3.1-3.2-social-tom,2023.2.2,Win32,58.82352941,65c5074098b851296ff0b7ed,6642387fef7fc54214a0d6f3,,,,,,,,,,,,,,,,,,,,,,,,,,,,,664.778,1,audio/Narrative7Situation9.wav,666.783,,666.783,675.415,"[[75.2,1093],[73.5,1176],[69.9,1258],[62.9,1341],[59.1,1427],[56.9,1509],[55,1591],[54.4,1676],[53.4,1755],[52.6,1841],[52.2,1925],[51.8,2007],[51.5,2091],[51.4,2163],[50.9,2258],[50.8,2331],[50.8,2425],[50.8,2502],[50.8,2591],[50.8,2675],[50.8,2758],[50.8,2841],[50.8,2925],[50.8,2998],[50.8,3090],[50.8,3173],[50.8,3258],[50.8,3331],[50.8,3423],[50.8,3507],[50.8,3591],[50.8,3672],[50.8,3758],[50.8,3831],[50.8,3918],[50.8,4004],[50.8,4090],[50.8,4175],[50.8,4258],[50.8,4331],[50.8,4423],[50.8,4503],[50.8,4589],[50.8,4673],[50.7,4759],[46.3,4849],[42.5,4931],[40.9,5014],[37.6,5098],[36.3,5181],[36,5264],[35,5348],[34.1,5432],[32.9,5514],[31.1,5599],[30.9,5681],[30.9,5764],[30.9,5848],[30.9,5932],[30.9,6014],[30.9,6098],[30.9,6181],[30.9,6264],[30.9,6348],[30.9,6432],[30.9,6514],[30.9,6598],[30.9,6682],[30.9,6764],[30.9,6848],[30.9,6931],[30.9,7014],[30.9,7098],[30.9,7181],[30.9,7264],[30.9,7348],[30.9,7431],[30.9,7514],[30.9,7598],[30.9,7681],[30.9,7764],[30.9,7848],[30.9,7932],[31,8014],[37.1,8098],[50.1,8181],[50.1,8264],[50.1,8348],[50.1,8431],[50.1,8514],[50.1,8598]]",1,0,675.415,677.68,50.10416508,0.743,"[{""rating"":50.10416507720947,""responseTime"":0.7429999999999382}]",space,1.738,,677.68,Not at all,0,697.528,0,12.363,"[{""rating"":0.5208333333333315,""responseTime"":10.961999999999989},{""rating"":0,""responseTime"":11.793000000000006},{""rating"":0,""responseTime"":12.362999999999943}]",space,0,18,18,18,1,audio/Narrative8Situation9.wav,audio/Narrative7Situation9.wav,audio/Narrative6Situation9.wav,audio/Narrative5Situation9.wav,3,2,4,3,,,19.319,,,,,,,,,,,,,,,,,,,,,,,,,,,,,,,,,,,,
,,,,,,63f77b9ca8439f6e1620c1cd,2024-05-13_08h59.01.251,group3.1-3.2-social-tom,2023.2.2,Win32,58.82352941,65c5074098b851296ff0b7ed,6642387fef7fc54214a0d6f3,,,,,,,,,,,,,,,,,,,,,,,,,,,701.264,703.845,703.866,2,audio/Narrative13Situation2.wav,703.866,,703.866,733.623,"[[1.1,1411],[47.6,1826],[59.7,1911],[60.4,1994],[60.1,2078],[49.8,2161],[47.7,2244],[47.7,2326],[48.2,2410],[48.2,2494],[48.3,2576],[49.4,2660],[49.4,2744],[49.4,2826],[48.1,2910],[47.3,2994],[47.3,3076],[47.3,3161],[45.9,3243],[36.1,3326],[31.7,3411],[28.7,3494],[27.7,3576],[27.4,3660],[27.4,3744],[27.4,3826],[27.6,3910],[27.6,3994],[27.6,4076],[27.6,4160],[27.6,4244],[27.6,4326],[27.6,4411],[27.6,4494],[27.6,4576],[27.6,4660],[27.6,4744],[27.6,4826],[27.6,4910],[27.6,4993],[27.6,5076],[27.6,5160],[27.6,5243],[27.6,5326],[27.6,5410],[27.6,5493],[27.6,5576],[27.6,5660],[27.6,5743],[27.6,5826],[27.6,5908],[27.6,5994],[27.6,6076],[27.6,6160],[27.6,6243],[27.6,6326],[27.6,6410],[26.3,6493],[24.6,6576],[24.2,6660],[23.3,6744],[21.1,6826],[19.4,6910],[18.9,6994],[17.9,7076],[17.8,7160],[17.8,7243],[17.8,7326],[17.8,7410],[17.8,7494],[17.8,7576],[17.8,7660],[17.8,7743],[17.8,7826],[17.8,7910],[18.8,7994],[19.5,8076],[19.5,8158],[19.5,8243],[19.5,8326],[19.5,8410],[19.6,8493],[19.6,8576],[19.6,8660],[20.3,8744],[21.4,8826],[21.6,8910],[21.6,8993],[21.6,9076],[21.6,9160],[21.6,9243],[21.6,9326],[21.6,9408],[21.6,9493],[21.6,9576],[21.6,9660],[21.5,9743],[21.1,9826],[19.9,9910],[19,9993],[18.1,10076],[17.4,10160],[17,10244],[16.8,10326],[16.8,10408],[16.8,10493],[16.8,10576],[16.8,10658],[16.8,10743],[16.8,10826],[16.8,10910],[16.8,10992],[16.8,11076],[16.8,11158],[16.8,11243],[16.8,11326],[16.8,11410],[16.8,11493],[16.8,11576],[16.8,11658],[16.8,11742],[16.8,11826],[16.8,11908],[16.8,11993],[16.8,12076],[16.8,12160],[16.8,12243],[16.8,12326],[16.8,12408],[16.8,12492],[16.8,12576],[16.8,12658],[16.8,12743],[16.8,12826],[16.8,12908],[16.8,12992],[16.8,13075],[16.8,13158],[16.8,13242],[16.8,13325],[16.8,13408],[16.8,13492],[16.8,13576],[16.8,13658],[16.8,13742],[16.8,13825],[16.8,13908],[16.8,13992],[16.8,14075],[16.8,14158],[16.8,14243],[16.8,14326],[16.8,14408],[16.3,14492],[14.1,14576],[12.9,14660],[12.7,14742],[12.4,14825],[12.3,14908],[12.3,14993],[12.3,15075],[12.3,15158],[12.3,15243],[12.3,15326],[12.3,15408],[12.3,15492],[12.3,15575],[12.3,15658],[12.3,15742],[12.3,15825],[12.3,15908],[12.3,15993],[12.3,16076],[12.3,16158],[12.3,16242],[12.3,16325],[12.3,16408],[12.3,16492],[12.3,16575],[12.3,16658],[12.3,16743],[12.3,16825],[12.3,16908],[12.3,16992],[12.3,17076],[12.3,17158],[12.3,17243],[12.3,17325],[12.3,17408],[12.3,17492],[12.3,17575],[12.3,17658],[12.3,17742],[12.3,17826],[12.3,17908],[12.3,17993],[12.3,18075],[12.3,18158],[12.3,18242],[12.3,18325],[12.3,18408],[12.3,18492],[12.3,18575],[12.3,18658],[12.3,18741],[12.3,18826],[12.3,18908],[12.3,18992],[12.3,19075],[12.3,19158],[12.3,19242],[12.3,19325],[12.3,19408],[12.3,19492],[12.3,19575],[12.3,19658],[12.3,19742],[12.3,19825],[12.3,19908],[12.3,19992],[12.3,20076],[12.3,20158],[12.3,20242],[12.3,20325],[12.3,20408],[12.3,20492],[12.3,20574],[12.3,20658],[12.3,20741],[12.3,20825],[12.3,20908],[12.3,20992],[12.3,21075],[12.3,21158],[12.3,21241],[12.3,21324],[12.3,21408],[12.3,21492],[12.3,21574],[12.3,21658],[12.3,21741],[12.3,21824],[12.3,21908],[12.3,21991],[12.3,22075],[12.3,22158],[12.3,22241],[12.3,22325],[12.3,22408],[12.3,22491],[12.3,22574],[12.3,22658],[12.3,22741],[12.3,22826],[12.3,22908],[12.3,22991],[13.4,23075],[14.1,23158],[15,23242],[16.6,23325],[18.8,23408],[21.4,23492],[25.5,23574],[29.4,23658],[29.4,23741],[29.4,23825],[29.4,23908],[29.4,23991],[29.4,24075],[29.4,24158],[30.7,24242],[32.3,24325],[32.9,24408],[38,24491],[42.1,24575],[42.1,24657],[42.1,24741],[42.1,24824],[42.1,24908],[42.1,24991],[42.1,25075],[42.1,25158],[42.1,25241],[42.1,25324],[42.1,25408],[42.1,25492],[42.1,25574],[42.1,25658],[42.1,25741],[42.1,25824],[42.1,25908],[42.1,25991],[42.1,26074],[42.1,26158],[42.1,26241],[42.1,26324],[42.1,26408],[42.1,26491],[42.1,26574],[42.1,26657],[42.1,26741],[42.1,26824],[42.1,26908],[42.1,26991],[42.1,27075],[42.1,27158],[42.1,27241],[42.1,27325],[42.1,27408],[42.1,27490],[42.1,27574],[42.1,27658],[42.1,27741],[42.1,27824],[42.1,27907],[42.1,27991],[42.1,28075],[42.1,28157],[42.1,28240],[42.1,28324],[42.1,28408],[42.1,28491],[42.1,28574],[42.1,28658],[42.1,28741],[42.1,28824],[42.1,28906],[42.1,28990],[42.1,29073],[42.1,29158],[42.1,29240],[42.1,29324],[42.1,29407],[42.1,29490],[42.1,29574],[42.1,29657],[42.1,29740]]",1,0,733.624,733.633,,,[],,,,733.634,Not at all,0,733.634,,,[],,0,0,0,0,1,audio/Narrative13Situation2.wav,audio/Narrative13Situation2.wav,audio/Narrative13Situation2.wav,audio/Narrative13Situation2.wav,2,2,2,2,,,,,697.542,701.255,space,3.184,,,,,,,,,,,,,,,,,,,,,,,,,,,,,,,
,,,,,,63f77b9ca8439f6e1620c1cd,2024-05-13_08h59.01.251,group3.1-3.2-social-tom,2023.2.2,Win32,58.82352941,65c5074098b851296ff0b7ed,6642387fef7fc54214a0d6f3,,,,,,,,,,,,,,,,,,,,,,,,,,,,,733.634,2,audio/Narrative6Situation1.wav,735.639,,735.639,762.229,"[[41.5,2916],[41.6,3000],[41.6,3082],[41.6,3167],[41.6,3250],[41.6,3334],[39.1,3417],[32.2,3500],[31,3582],[31,3667],[31,3750],[31,3832],[31,3917],[31,4000],[31,4082],[31,4167],[31,4250],[31,4334],[31,4417],[31,4500],[31,4584],[31,4667],[31,4750],[31,4832],[31,4916],[31,5000],[31,5082],[31,5166],[31,5250],[31,5332],[31,5417],[31,5500],[31,5582],[31,5666],[31,5749],[31,5832],[31,5916],[31,6000],[31,6081],[31,6165],[31,6249],[31,6332],[31,6416],[31,6500],[31,6582],[31,6667],[31,6750],[31,6832],[31,6916],[31,7000],[31,7082],[31,7167],[31,7249],[31,7332],[31,7416],[31,7500],[31,7582],[31,7666],[31,7749],[31,7832],[31,7916],[31,7999],[31,8082],[31,8166],[31,8250],[31,8332],[31,8416],[31,8499],[31,8582],[31,8666],[32.1,8750],[32.8,8832],[33.2,8916],[34.8,8999],[35,9082],[35.4,9167],[43.2,9332],[43.6,9416],[43.6,9500],[43.6,9582],[43.6,9666],[43.6,9749],[43.6,9831],[43.6,9915],[43.6,9999],[43.6,10082],[43.6,10166],[43.6,10250],[43.6,10332],[43.6,10416],[43.6,10500],[43.6,10582],[43.6,10666],[44.8,10749],[47.7,10832],[47.9,10916],[47.9,10999],[47.9,11081],[47.9,11166],[47.9,11249],[47.9,11332],[47.9,11416],[47.9,11499],[49.5,11582],[52,11666],[54,11750],[55.7,11831],[56.1,11915],[57.3,11998],[57.7,12081],[58.2,12166],[58.2,12249],[58.2,12332],[58.2,12416],[58.2,12499],[58.2,12582],[58.2,12665],[58.2,12749],[58.2,12831],[58.2,12915],[58.2,12999],[58.2,13081],[58.2,13165],[58.2,13248],[58.2,13331],[58.2,13415],[58.2,13498],[58.2,13581],[58.2,13665],[58.2,13749],[58.2,13831],[58.2,13915],[58.2,13998],[58.2,14081],[58.2,14165],[58.2,14248],[58.2,14331],[58.2,14415],[58.2,14499],[58.2,14582],[58.2,14666],[58.2,14749],[58.2,14831],[58.2,14916],[58.2,14999],[58.2,15081],[58.2,15166],[58.2,15248],[58.2,15332],[58.2,15415],[63,15498],[65.4,15581],[65.8,15666],[65.8,15749],[65.8,15831],[65.8,15916],[65.8,15999],[65.8,16099],[65.8,16182],[65.8,16264],[65.8,16348],[65.8,16432],[65.8,16516],[65.8,16599],[65.8,16682],[65.8,16764],[65.8,16849],[65.8,16932],[65.8,17014],[65.8,17099],[65.8,17181],[65.8,17266],[66.4,17349],[67.6,17431],[67.6,17514],[67.7,17598],[68.1,17682],[68.6,17764],[69,17849],[68.9,17931],[68.9,18014],[68.9,18098],[68.9,18182],[68.9,18264],[70.1,18349],[70.1,18432],[70.1,18514],[70.1,18599],[70.1,18682],[70.1,18764],[70.1,18846],[70.1,18932],[70.1,19014],[70.1,19098],[70.1,19181],[70.1,19264],[70.1,19348],[70.1,19432],[70.2,19514],[70,19598],[69.6,19681],[67.9,19764],[66.7,19848],[65.9,19931],[65.7,20014],[65.7,20098],[65.7,20182],[65.7,20264],[65.7,20348],[65.7,20431],[65.7,20514],[65.7,20598],[65.7,20682],[65.7,20764],[65.7,20848],[65.7,20932],[65.7,21014],[65.7,21106],[65.7,21187],[65.7,21264],[65.7,21348],[65.7,21441],[65.7,21522],[65.7,21605],[65.7,21690],[65.7,21774],[65.7,21855],[65.7,21941],[65.7,22022],[65.7,22105],[65.7,22190],[65.7,22271],[65.7,22356],[65.7,22432],[65.7,22518],[65.7,22606],[65.7,22691],[65.7,22769],[65.7,22856],[65.7,22941],[65.7,23024],[65.7,23098],[65.7,23191],[65.7,23274],[65.7,23356],[65.7,23441],[65.7,23523],[65.7,23598],[65.7,23689],[65.7,23774],[65.7,23853],[65.7,23937],[65.7,24024],[65.7,24098],[65.7,24190],[65.7,24271],[65.7,24348],[65.7,24439],[65.7,24522],[65.7,24606],[65.7,24685],[65.7,24771],[65.7,24848],[65.7,24940],[65.7,25023],[65.7,25098],[65.7,25182],[65.7,25272],[65.7,25355],[65.7,25437],[65.7,25522],[65.7,25598],[65.7,25681],[65.7,25774],[65.7,25855],[65.7,25940],[65.7,26023],[65.7,26105],[65.7,26190],[65.7,26263],[65.7,26346],[65.7,26439],[65.7,26513]]",1,0,762.229,765.112,65.625,1.337,"[{""rating"":65.625,""responseTime"":1.336999999999989}]",space,2.356,,765.112,All the time,100,765.114,,,[],,0,1,1,1,1,audio/Narrative7Situation1.wav,audio/Narrative8Situation1.wav,audio/Narrative5Situation1.wav,audio/Narrative6Situation1.wav,2,5,5,2,,,,,,,,,,,,,,,,,,,,,,,,,,,,,,,,,,,,,,,
,,,,,,63f77b9ca8439f6e1620c1cd,2024-05-13_08h59.01.251,group3.1-3.2-social-tom,2023.2.2,Win32,58.82352941,65c5074098b851296ff0b7ed,6642387fef7fc54214a0d6f3,,,,,,,,,,,,,,,,,,,,,,,,,,,,,765.114,2,audio/Narrative6Situation2.wav,768.13,,768.13,796.631,"[[65.4,1831],[64.6,1913],[63.9,1998],[63.1,2081],[62.2,2163],[60.5,2248],[58.4,2331],[56.9,2415],[54.9,2498],[53.3,2581],[52.3,2665],[51,2749],[50.6,2822],[49.9,2913],[49.8,2990],[49.8,3072],[49.8,3163],[49.8,3248],[49.8,3331],[49.8,3413],[49.8,3489],[49.8,3581],[49.8,3663],[49.8,3748],[49.8,3831],[49.8,3903],[49.8,3988],[49.8,4081],[49.8,4156],[49.8,4248],[49.8,4331],[49.8,4413],[49.8,4488],[49.8,4581],[49.8,4663],[49.8,4747],[49.8,4830],[49.8,4913],[49.8,4997],[49.8,5072],[49.8,5163],[49.8,5248],[49.8,5321],[49.8,5413],[49.8,5496],[49.8,5576],[49.8,5655],[49.8,5748],[49.8,5826],[50,5913],[50.7,5997],[51.3,6081],[52.6,6163],[52.6,6238],[52.6,6330],[53.6,6413],[53.6,6487],[54.4,6581],[56.7,6663],[58.8,6748],[59.4,6830],[59.4,6913],[59.4,6996],[59.4,7081],[59.4,7163],[59.4,7247],[59.4,7331],[59.4,7403],[59.4,7496],[59.4,7572],[59.4,7655],[59.4,7747],[59.4,7830],[59.4,7913],[59.4,7988],[59.4,8081],[59.4,8163],[59.4,8238],[59.4,8330],[59.4,8413],[59.4,8496],[59.4,8581],[59.4,8663],[59.4,8746],[59.4,8830],[59.4,8903],[59.4,8987],[59.4,9080],[59.4,9163],[59.4,9237],[59.4,9331],[59.4,9413],[59.4,9496],[59.4,9572],[59.4,9655],[59.4,9747],[59.4,9831],[59.4,9913],[59.4,9997],[59.4,10071],[59.4,10163],[59.4,10238],[59.4,10328],[59.4,10413],[59.4,10488],[59.3,10576],[59,10665],[58.5,10749],[58.2,10826],[57.7,10913],[57.5,10998],[57.4,11081],[57.2,11162],[57.2,11245],[57.2,11330],[56.9,11413],[56.9,11487],[56.7,11580],[56,11665],[53.6,11748],[51.9,11830],[51.7,11913],[50.7,11997],[50.1,12081],[49.2,12163],[48.5,12247],[48,12331],[47.1,12415],[46.6,12497],[46.1,12580],[46.1,12663],[46.1,12746],[45.9,12822],[45,12913],[44.6,12997],[44.6,13070],[43.9,13163],[43.1,13246],[43.1,13323],[43.1,13411],[43.1,13487],[43.1,13580],[43.1,13662],[43.1,13746],[43.1,13829],[43.1,13912],[43.1,13988],[43.1,14080],[43.1,14158],[43.1,14246],[43.1,14331],[43.1,14403],[43.1,14494],[43.1,14580],[43.1,14656],[43.1,14746],[43.1,14830],[43.1,14913],[43.1,14997],[43.1,15079],[43.1,15163],[43.1,15246],[43.1,15328],[43.1,15413],[43.1,15488],[43.1,15576],[43.1,15663],[43.1,15735],[43.1,15829],[43.1,15903],[43.1,15987],[43.1,16080],[43.1,16162],[43.1,16245],[43.1,16329],[43.1,16413],[43.1,16496],[43.1,16580],[43.1,16663],[43.1,16737],[43.1,16829],[43.1,16912],[43.1,16985],[43.1,17080],[43.1,17153],[43.2,17253],[43.5,17336],[44.5,17420],[44.7,17503],[44.8,17586],[45.3,17670],[45.9,17753],[46.7,17836],[47.4,17920],[48.3,18003],[54.9,19670],[53.9,19753],[53.7,19836],[53.6,19920],[54,20003],[57.8,20086],[60.6,20170],[62.8,20253],[67.2,20336],[67.2,20418],[67.2,20502],[67.2,20585],[67.2,20668],[67.2,20752],[67.2,20836],[67.2,20918],[67.2,21002],[67.2,21085],[67.2,21168],[67.2,21252],[67.2,21335],[69.2,21420],[71.7,21502],[71.8,21586],[71.8,21668],[71.8,21753],[71.8,21836],[71.8,21918],[69.5,22003],[66,22086],[62.8,22168],[62.6,22253],[62.5,22336],[62.4,22418],[62.4,22502],[60.5,22586],[60.2,22668],[60,22752],[60,22836],[59.7,22918],[59.7,23002],[59.7,23086],[59.7,23168],[59.7,23252],[59.7,23335],[59.7,23418],[59.7,23502],[59.7,23586],[59.7,23668],[59.7,23753],[59.7,23836],[59.7,23918],[59.7,24002],[59.7,24085],[59.7,24168],[59.7,24252],[59.7,24335],[59.7,24418],[59.7,24503],[59.7,24585],[59.7,24668],[59.7,24752],[59.7,24836],[59.7,24918],[59.7,25003],[59.7,25085],[59.7,25168],[59.7,25252],[59.7,25335],[59.7,25418],[59.7,25502],[59.7,25585],[59.7,25668],[59.7,25751],[59.7,25835],[59.7,25918],[59.7,26002],[59.7,26085],[59.7,26168],[59.7,26252],[59.7,26335],[59.7,26418],[59.7,26502],[59.7,26585],[59.7,26668],[59.7,26752],[59.7,26835],[60.2,26918],[60.2,27002],[60.4,27085],[61.3,27168],[62,27252],[63.2,27335],[64.9,27418],[68.4,27502],[70.7,27585],[71,27668],[71,27752],[71,27835],[71,27918],[71,28002],[71,28085],[71,28168],[71,28252],[71,28335],[71,28418],[71,28501]]",1,0,796.631,799.332,71.66666985,0.927,"[{""rating"":71.66666984558105,""responseTime"":0.9270000000000209}]",space,2.167,,799.332,Half the time,50,799.337,,,[],,0,2,2,2,1,audio/Narrative7Situation2.wav,audio/Narrative8Situation2.wav,audio/Narrative5Situation2.wav,audio/Narrative6Situation2.wav,3,3,3,3,,,,,,,,,,,,,,,,,,,,,,,,,,,,,,,,,,,,,,,
,,,,,,63f77b9ca8439f6e1620c1cd,2024-05-13_08h59.01.251,group3.1-3.2-social-tom,2023.2.2,Win32,58.82352941,65c5074098b851296ff0b7ed,6642387fef7fc54214a0d6f3,,,,,,,,,,,,,,,,,,,,,,,,,,,,,799.337,2,audio/Narrative6Situation3.wav,804.347,,804.347,816.972,"[[34.8,510],[45.6,594],[48.5,677],[49,759],[49,842],[49,925],[49,1000],[49,1085],[47.4,1177],[36.8,1261],[30.9,1344],[28.3,1425],[21.9,1510],[20.2,1593],[19.5,1677],[17.8,1760],[17.8,1843],[17.8,1925],[17.8,2001],[17.8,2093],[17.8,2168],[17.8,2250],[17.8,2343],[17.8,2425],[17.8,2510],[17.8,2593],[17.8,2667],[17.8,2760],[17.8,2838],[17.8,2917],[17.8,3010],[17.8,3093],[17.8,3167],[17.8,3260],[17.8,3343],[17.8,3425],[17.8,3509],[17.8,3584],[17.8,3676],[17.8,3759],[17.8,3840],[17.8,3918],[17.8,4000],[17.8,4092],[17.8,4175],[20.2,4261],[22.5,4344],[25.4,4427],[31.6,4510],[35.9,4593],[37.8,4677],[38.1,4760],[40.5,4842],[40.5,4925],[40.5,4999],[40.5,5092],[40.5,5176],[42.4,5259],[42.6,5343],[42.6,5425],[42.6,5509],[42.6,5583],[42.6,5666],[42.6,5759],[42.6,5833],[42.6,5916],[42.6,6009],[42.6,6092],[42.6,6176],[42.6,6259],[42.6,6339],[42.6,6425],[42.6,6500],[42.6,6583],[42.6,6676],[42.6,6750],[42.6,6833],[42.6,6925],[42.6,7000],[42.6,7083],[42.6,7172],[42.6,7250],[42.6,7343],[42.6,7426],[42.6,7508],[42.6,7592],[42.6,7676],[44.4,7759],[45.1,7842],[46,7926],[47.7,8009],[47.9,8092],[47.9,8175],[47.9,8258],[48.1,8343],[48.1,8423],[49.2,8508],[49.6,8592],[50.2,8676],[50.2,8758],[50.2,8839],[50.2,8916],[50.2,9009],[50.2,9082],[50.2,9169],[50.2,9260],[50.2,9341],[50.2,9425],[50.2,9499],[50.2,9591],[50.3,9674],[52.2,9760],[54.1,9844],[56,9927],[57.5,10010],[58.2,10092],[58.2,10174],[58.2,10257],[58.2,10342],[58.2,10424],[58.2,10499],[58.2,10590],[58.2,10666],[58.2,10753],[58.2,10832],[58.2,10924],[58.2,11008],[58.2,11082],[58.2,11175],[58.2,11249],[58.2,11339],[58.2,11424],[58.2,11508],[58.2,11582],[59.6,11676],[63.9,11759],[70.2,11842],[75.6,11926],[76.5,12008],[76.5,12083],[76.5,12174],[76.5,12258],[76.5,12337],[76.5,12424],[76.5,12507],[76.5,12591]]",1,0,816.972,819.489,75.62499841,1,"[{""rating"":75.6249984105428,""responseTime"":1}]",space,1.984,,819.489,All the time,100,829.354,100,4.215,"[{""rating"":100,""responseTime"":4.215000000000032}]",space,0,3,3,3,1,audio/Narrative7Situation3.wav,audio/Narrative8Situation3.wav,audio/Narrative5Situation3.wav,audio/Narrative6Situation3.wav,8,4,3,5,,,9.326,,,,,,,,,,,,,,,,,,,,,,,,,,,,,,,,,,,,
,,,,,,63f77b9ca8439f6e1620c1cd,2024-05-13_08h59.01.251,group3.1-3.2-social-tom,2023.2.2,Win32,58.82352941,65c5074098b851296ff0b7ed,6642387fef7fc54214a0d6f3,,,,,,,,,,,,,,,,,,,,,,,,,,,,,829.36,2,audio/Narrative6Situation4.wav,831.369,,831.369,844.001,"[[55,2334],[43.6,2417],[43.6,2500],[43.6,2575],[43.8,2668],[48.2,2750],[49.1,2834],[49.1,2908],[49.1,2991],[49.1,3084],[49.1,3158],[49.1,3250],[49.1,3334],[49.1,3408],[49.1,3499],[49.1,3585],[49.1,3667],[49.1,3750],[49.1,3835],[49.1,3908],[49.1,4000],[49.1,4084],[49.1,4158],[49.1,4250],[49.1,4331],[49.5,4417],[50.6,4500],[52.6,4585],[55.2,4667],[55.7,4750],[57.3,4834],[57.3,4917],[57.3,4990],[57.3,5073],[57.3,5168],[57.3,5241],[57.3,5332],[57.3,5411],[59.7,5500],[62.3,5584],[62.4,5666],[64.4,5750],[66.5,5827],[67.2,5914],[67.2,5998],[67.2,6073],[67.2,6166],[67.2,6250],[67.2,6331],[67.2,6416],[67.2,6495],[67.2,6584],[67.2,6667],[67.2,6751],[67.2,6831],[67.2,6917],[67.2,6991],[67.2,7084],[67.2,7167],[67,7241],[67,7332],[67,7417],[67,7491],[67,7584],[67,7666],[67,7741],[67.1,7834],[70.4,7918],[75.5,8000],[80,8082],[80.1,8157],[80.1,8250],[80.1,8332],[80.1,8417],[80.1,8500],[80.1,8584],[80.1,8666],[80.1,8750],[80.1,8834],[80.1,8907],[80.1,8999],[80.1,9081],[80.1,9157],[80.1,9250],[80.1,9331],[80.1,9416],[80.1,9490],[80.1,9580],[80.1,9666],[80.1,9740],[80.1,9827],[81.5,9917],[83.5,10000],[84.4,10076],[86.8,10167],[86.8,10245],[88.3,10334],[89.4,10413],[89.4,10500],[89.4,10584],[89.4,10662],[89.4,10750],[89.4,10832],[89.4,10916],[89.4,10990],[89.9,11082],[93.6,11167],[95.8,11250],[96.9,11332],[97.4,11417],[99.7,11500],[99.7,11584],[99.8,11655],[99.8,11749],[99.8,11822],[98.4,11916],[96.4,12000],[94.1,12082],[91.9,12167],[91.3,12250],[91.3,12323],[91.3,12407],[91.3,12499],[91.3,12581]]",1,0,844.002,847.735,94.37500636,2.144,"[{""rating"":88.85416984558105,""responseTime"":1.1329999999999245},{""rating"":94.37500635782878,""responseTime"":2.1440000000000055}]",space,3.183,,847.735,All the time,100,847.737,,,[],,0,4,4,4,1,audio/Narrative7Situation4.wav,audio/Narrative8Situation4.wav,audio/Narrative5Situation4.wav,audio/Narrative6Situation4.wav,3,3,1,2,,,,,,,,,,,,,,,,,,,,,,,,,,,,,,,,,,,,,,,
,,,,,,63f77b9ca8439f6e1620c1cd,2024-05-13_08h59.01.251,group3.1-3.2-social-tom,2023.2.2,Win32,58.82352941,65c5074098b851296ff0b7ed,6642387fef7fc54214a0d6f3,,,,,,,,,,,,,,,,,,,,,,,,,,,,,847.738,2,audio/Narrative6Situation5.wav,849.752,,849.752,857.715,"[[92.8,915],[89.1,1000],[85.5,1081],[84.3,1164],[84.3,1249],[84.3,1322],[84.3,1413],[84.3,1488],[84.3,1581],[84.3,1664],[84.3,1749],[84.3,1831],[82.8,1916],[80.1,1999],[76.1,2081],[72.5,2165],[71.8,2247],[71.8,2331],[71.8,2405],[71.8,2497],[71.8,2581],[71.8,2655],[71.8,2747],[71.8,2831],[71.8,2914],[71.8,2997],[71.8,3072],[71.8,3163],[71.8,3254],[71.8,3328],[71.8,3413],[71.8,3488],[71.8,3581],[71.8,3665],[71.8,3742],[71.8,3822],[71.8,3914],[71.8,3999],[71.8,4078],[71.8,4163],[71.8,4249],[71.8,4322],[71.8,4408],[71.8,4499],[71.8,4572],[71.8,4655],[71.6,4749],[70.7,4832],[70.1,4915],[69.7,4999],[69.4,5081],[69.4,5164],[69.4,5246],[69.4,5332],[69.4,5404],[69.4,5492],[69.5,5572],[71.3,5664],[71.6,5737],[72.6,5832],[72.9,5914],[72.9,5988],[72.9,6078],[72.9,6164],[72.9,6241],[72.9,6331],[72.9,6405],[72.9,6493],[72.9,6581],[72.9,6661],[72.9,6747],[72.9,6831],[72.9,6915],[72.9,6999],[72.9,7073],[72.9,7154],[72.9,7247],[72.9,7332],[72.9,7405],[72.9,7497],[72.9,7572],[72.9,7664],[72.9,7746],[72.9,7822],[72.9,7914]]",1,0,857.716,860.584,80.62500159,1.231,"[{""rating"":80.6250015894572,""responseTime"":1.2309999999999945}]",space,2.317,,860.584,Half the time,50,860.585,,,[],,0,5,5,5,1,audio/Narrative7Situation5.wav,audio/Narrative8Situation5.wav,audio/Narrative5Situation5.wav,audio/Narrative6Situation5.wav,5,2,5,2,,,,,,,,,,,,,,,,,,,,,,,,,,,,,,,,,,,,,,,
,,,,,,63f77b9ca8439f6e1620c1cd,2024-05-13_08h59.01.251,group3.1-3.2-social-tom,2023.2.2,Win32,58.82352941,65c5074098b851296ff0b7ed,6642387fef7fc54214a0d6f3,,,,,,,,,,,,,,,,,,,,,,,,,,,,,860.585,2,audio/Narrative6Situation6.wav,862.6,,862.6,873.683,"[[79.3,1250],[78.3,1335],[45.2,1832],[44.8,1916],[44.9,2000],[45.3,2082],[45.6,2166],[49,2249],[49,2332],[49.2,2407],[49.3,2498],[49.3,2572],[49.3,2656],[49.3,2749],[49.3,2830],[49.3,2904],[49.3,2994],[49.3,3081],[49.3,3164],[49.3,3239],[49.3,3331],[49.3,3416],[49.3,3489],[49.3,3573],[49.3,3657],[49.3,3740],[49.3,3831],[49.3,3913],[49.3,3990],[49.3,4081],[49.3,4158],[49.3,4249],[49.3,4332],[49.3,4407],[49.3,4496],[49.3,4582],[49.3,4666],[49.3,4749],[49.3,4831],[49.3,4914],[49.3,5000],[49.3,5082],[49.3,5164],[49.3,5249],[49.3,5331],[49.3,5416],[49.3,5500],[49.3,5580],[49.3,5666],[49.3,5740],[49.3,5831],[49.3,5914],[49.3,5990],[49.3,6081],[49.3,6154],[49.3,6239],[49.3,6331],[49.3,6414],[49.3,6489],[49.3,6581],[49.3,6654],[49.3,6745],[49.3,6831],[49.3,6913],[49.3,6999],[49.3,7081],[49.3,7163],[49.3,7246],[49.3,7331],[49.3,7414],[49.3,7498],[49.3,7581],[49.3,7663],[49.3,7748],[49.3,7830],[49.3,7907],[49.3,7999],[49.3,8081],[49.3,8157],[49.3,8239],[49.3,8327],[49.3,8407],[49.3,8489],[49.3,8572],[49.3,8663],[49.3,8739],[49.3,8826],[49.3,8913],[49.3,8999],[49.3,9081],[49.3,9163],[49.3,9248],[49.3,9331],[49.3,9406],[49.3,9495],[49.3,9581],[49.3,9664],[49.3,9748],[49.3,9831],[49.3,9904],[49.3,9989],[49.3,10081],[49.3,10163],[49.3,10246],[49.3,10330],[49.3,10403],[49.3,10496],[49.3,10576],[49.3,10664],[49.3,10748],[50.8,10830]]",1,0,873.683,877.938,94.47916349,2.904,"[{""rating"":94.47916348775227,""responseTime"":2.9039999999999964}]",space,3.701,,877.938,Not at all,0,877.943,,,[],,0,6,6,6,1,audio/Narrative7Situation6.wav,audio/Narrative8Situation6.wav,audio/Narrative5Situation6.wav,audio/Narrative6Situation6.wav,3,2,3,2,,,,,,,,,,,,,,,,,,,,,,,,,,,,,,,,,,,,,,,
,,,,,,63f77b9ca8439f6e1620c1cd,2024-05-13_08h59.01.251,group3.1-3.2-social-tom,2023.2.2,Win32,58.82352941,65c5074098b851296ff0b7ed,6642387fef7fc54214a0d6f3,,,,,,,,,,,,,,,,,,,,,,,,,,,,,877.943,2,audio/Narrative6Situation7.wav,882.954,,882.954,907.818,"[[999,10],[999,82],[999,165],[999,250],[999,332],[999,416],[999,500],[999,582],[999,666],[999,750],[999,833],[999,915],[999,1000],[999,1082],[999,1165],[999,1250],[68.9,1332],[69.2,1415],[69.3,1499],[69.4,1582],[69.4,1666],[69.4,1750],[69.4,1831],[69.4,1915],[69.4,1999],[69.4,2082],[69.4,2165],[69.4,2249],[69.4,2332],[69.4,2415],[69.4,2500],[69.4,2582],[69.4,2665],[69.4,2749],[69.4,2832],[69.4,2915],[69.4,3000],[69.4,3082],[69.4,3165],[69.4,3249],[69.4,3332],[69.4,3415],[68.8,3500],[67.5,3582],[67.3,3664],[66.8,3749],[66.2,3831],[65.7,3915],[65.2,3999],[64.8,4082],[64,4165],[63.1,4249],[63.1,4332],[61.8,4415],[61.7,4500],[61.7,4582],[61.7,4665],[61.7,4749],[61.7,4831],[61.7,4915],[61.7,4999],[61.7,5082],[61.7,5165],[61.7,5249],[61.7,5332],[61.7,5415],[61.7,5499],[61.7,5582],[61.7,5665],[61.7,5749],[61.7,5832],[61.7,5916],[61.7,6000],[61.7,6082],[61.7,6165],[61.7,6250],[61.7,6331],[61.6,6416],[60.6,6500],[60.2,6582],[59.4,6666],[58.8,6750],[58.5,6832],[58.5,6915],[58.5,6999],[58.4,7082],[58.4,7165],[58.2,7249],[57.9,7332],[57.5,7415],[57.3,7499],[57.2,7581],[57.1,7665],[56.6,7749],[56.5,7831],[56.5,7914],[56.5,7999],[56.1,8083],[56,8165],[56,8249],[56,8331],[56,8415],[56,8497],[56,8581],[56,8665],[56,8749],[56,8831],[56,8915],[56,8999],[56,9081],[56,9165],[56,9249],[56,9331],[56,9414],[56,9499],[56,9581],[56,9664],[56,9747],[56,9831],[56,9914],[56,9997],[56,10081],[56,10164],[56,10247],[56,10331],[56,10414],[56.1,10497],[56.5,10581],[57,10664],[57.3,10749],[57.3,10831],[57.7,10914],[57.7,10997],[57.7,11081],[57.8,11164],[57.8,11249],[57.8,11331],[57.8,11415],[57.8,11499],[57.8,11581],[57.7,11664],[57.4,11749],[57.1,11832],[56.7,11914],[56,11997],[55.6,12081],[55.4,12165],[55.3,12249],[55,12331],[55,12414],[55,12499],[55,12581],[55,12664],[55,12749],[55,12831],[55,12915],[55,12999],[55,13081],[55,13165],[55,13247],[55,13331],[55,13414],[55,13499],[55,13581],[55,13664],[55,13747],[55,13831],[55,13914],[55,13997],[55,14081],[55,14164],[54.4,14247],[53.2,14331],[52.4,14415],[51.5,14497],[50.5,14581],[49.6,14664],[47.8,14749],[46.3,14831],[44.9,14914],[43.4,14999],[43.1,15081],[43.1,15164],[43.1,15247],[43.1,15331],[43.1,15414],[43.1,15497],[43.1,15581],[43.1,15663],[43.1,15747],[43.1,15831],[43.1,15914],[43.1,15997],[43.1,16081],[43.1,16163],[43.1,16247],[43.1,16331],[43.1,16414],[43.1,16496],[43.1,16581],[43.1,16663],[43.2,16747],[43.4,16831],[43.8,16913],[44.3,16997],[44.8,17081],[44.8,17164],[45.8,17247],[47.6,17331],[49.6,17414],[50.8,17497],[52.6,17581],[53.6,17664],[54.2,17746],[54.2,17831],[54.2,17913],[54.7,17996],[58.3,18081],[58.8,18163],[61.1,18246],[63.8,18331],[65.3,18413],[67.8,18500],[70.3,18581],[72.2,18663],[72.8,18747],[72.9,18829],[72.9,18913],[72.9,18997],[72.9,19079],[72.9,19163],[71.9,19246],[71.4,19329],[71.4,19413],[71.4,19496],[71.4,19581],[71.4,19663],[71.4,19747],[71.4,19831],[71.4,19913],[71.4,19997],[71.4,20081],[71.4,20163],[71.4,20246],[70.9,20331],[70.4,20413],[70.4,20496],[70.4,20581],[70.4,20664],[70.4,20747],[70.4,20829],[70.7,20913],[72.5,20997],[73.4,21079],[73.4,21163],[73.4,21246],[73.4,21331],[73.4,21413],[73.4,21496],[73.4,21581],[73.4,21664],[73.4,21747],[73.4,21831],[73.4,21913],[73.4,21996],[73.4,22081],[73.4,22163],[73.4,22247],[73.4,22331],[73.4,22413],[73.4,22496],[73.4,22581],[73.4,22663],[73.4,22746],[73.4,22829],[73.4,22913],[73.3,22996],[73.1,23081],[73,23163],[73,23246],[73,23331],[73,23413],[73,23496],[73,23581],[73,23663],[73,23746],[72.4,23831],[71.8,23913],[71.5,23996],[71,24079],[71,24163],[71,24245],[71,24329],[71,24413],[71,24496],[71,24579],[71,24663],[71,24746],[71,24829]]",1,0,907.818,910.934,70.83333333,1.182,"[{""rating"":70.83333333333334,""responseTime"":1.1820000000000164}]",space,2.584,,910.934,Not at all,0,910.939,,,[],,0,7,7,7,1,audio/Narrative7Situation7.wav,audio/Narrative8Situation7.wav,audio/Narrative5Situation7.wav,audio/Narrative6Situation7.wav,5,3,4,5,,,,,,,,,,,,,,,,,,,,,,,,,,,,,,,,,,,,,,,
,,,,,,63f77b9ca8439f6e1620c1cd,2024-05-13_08h59.01.251,group3.1-3.2-social-tom,2023.2.2,Win32,58.82352941,65c5074098b851296ff0b7ed,6642387fef7fc54214a0d6f3,,,,,,,,,,,,,,,,,,,,,,,,,,,,,910.939,2,audio/Narrative6Situation8.wav,915.95,,915.95,922.817,"[[49.7,1582],[49.5,1664],[49.5,1749],[49.5,1831],[49.5,1914],[49.5,1999],[49.5,2081],[49.5,2165],[49.5,2249],[49.5,2332],[49.5,2415],[49.5,2499],[49.5,2581],[49.5,2665],[49.5,2749],[49.5,2832],[49.5,2915],[49.5,2999],[49.5,3082],[49.5,3165],[49.5,3249],[49.5,3331],[49.5,3415],[49.5,3499],[49.5,3582],[49.5,3667],[49.5,3750],[49.5,3832],[49.5,3915],[49.5,3999],[49.5,4082],[49.5,4165],[49.5,4250],[49.5,4332],[49.5,4414],[49.5,4500],[49.5,4582],[49.5,4665],[49.5,4749],[49.5,4832],[49.5,4915],[49.5,4999],[49.5,5081],[49.5,5165],[49.5,5247],[49.5,5331],[49.5,5414],[49.5,5499],[49.5,5581],[49.5,5665],[49.5,5749],[49.5,5832],[49.5,5914],[49.5,6000],[49.5,6081],[49.5,6164],[49.5,6249],[49.5,6332],[49.5,6415],[49.5,6499],[49.5,6581],[49.5,6665],[49.5,6749],[49.5,6831]]",1,0,922.817,927.481,50.83333651,3.01,"[{""rating"":50.83333651224772,""responseTime"":3.009999999999991}]",space,4.116,,927.481,All the time,100,927.487,,,[],,0,8,8,8,1,audio/Narrative7Situation8.wav,audio/Narrative8Situation8.wav,audio/Narrative5Situation8.wav,audio/Narrative6Situation8.wav,2,3,3,5,,,,,,,,,,,,,,,,,,,,,,,,,,,,,,,,,,,,,,,
,,,,,,63f77b9ca8439f6e1620c1cd,2024-05-13_08h59.01.251,group3.1-3.2-social-tom,2023.2.2,Win32,58.82352941,65c5074098b851296ff0b7ed,6642387fef7fc54214a0d6f3,,,,,,,,,,,,,,,,,,,,,,,,,,,,,927.489,2,audio/Narrative6Situation9.wav,931.498,,931.498,941.479,"[[52.8,3500],[65.9,3582],[65.9,3665],[65.9,3749],[65.9,3832],[65.9,3915],[65.9,4000],[65.9,4082],[65.9,4165],[65.9,4250],[65.9,4331],[65.9,4415],[65.9,4499],[65.9,4581],[65.9,4665],[65.9,4749],[65.9,4832],[65.9,4915],[65.9,5000],[65.9,5082],[65.9,5167],[65.9,5249],[65.9,5332],[65.9,5415],[65.9,5499],[65.9,5582],[65.9,5665],[65.9,5749],[65.9,5832],[65.9,5915],[65.9,5999],[65.9,6081],[65.9,6164],[65.9,6249],[65.9,6332],[65.9,6415],[65.9,6499],[65.9,6582],[65.9,6664],[65.9,6749],[65.9,6831],[65.9,6915],[65.9,6999],[65.9,7081],[65.9,7165],[67.8,7249],[70.1,7332],[70.8,7417],[71,7500],[72.7,7582],[74.3,7665],[74.8,7749],[75.4,7832],[75.5,7915],[75.7,7999],[75.7,8081],[75.7,8165],[75.7,8247],[75.7,8331],[75.7,8415],[75.7,8497],[75.7,8581],[75.7,8664],[75.7,8747],[75.7,8832],[75.7,8914],[75.7,8999],[75.7,9081],[75.7,9164],[75.7,9247],[75.7,9331],[75.7,9414],[75.7,9497],[75.7,9581],[75.7,9663],[75.7,9747],[75.7,9831],[75.7,9914]]",1,0,941.479,943.846,85.20833651,0.693,"[{""rating"":85.20833651224773,""responseTime"":0.6929999999999836}]",space,1.834,,943.846,Half the time,50,943.851,,,[],,0,9,9,9,1,audio/Narrative7Situation9.wav,audio/Narrative8Situation9.wav,audio/Narrative5Situation9.wav,audio/Narrative6Situation9.wav,2,3,3,4,,,,,,,,,,,,,,,,,,,,,,,,,,,,,,,,,,,,,,,
,,,,,,63f77b9ca8439f6e1620c1cd,2024-05-13_08h59.01.251,group3.1-3.2-social-tom,2023.2.2,Win32,58.82352941,65c5074098b851296ff0b7ed,6642387fef7fc54214a0d6f3,,,,,,,,,,,,,,,,,,,,,,,,,,,,,943.851,2,audio/Narrative5Situation1.wav,948.862,,948.862,962.16,"[[85.2,3250],[63.8,3582],[52.5,3666],[52.5,3750],[52.5,3833],[52.5,3915],[52.5,4000],[52.5,4082],[52.5,4165],[52.5,4248],[52.5,4332],[52.5,4415],[52.5,4500],[52.5,4582],[52.5,4665],[52.5,4750],[52.5,4832],[52.5,4915],[52.5,4998],[52.5,5082],[52.5,5166],[52.5,5250],[52.5,5331],[52.5,5415],[52.5,5498],[52.5,5582],[52.5,5666],[52.5,5750],[52.5,5832],[52.5,5915],[52.5,6000],[52.5,6082],[52.5,6165],[52.5,6250],[52.5,6332],[52.5,6415],[52.5,6500],[52.5,6581],[52.5,6665],[52.5,6750],[52.5,6832],[52.5,6915],[52.5,6998],[52.5,7081],[52.5,7165],[52.5,7250],[52.5,7331],[52.5,7416],[52.5,7500],[52.5,7582],[52.5,7665],[52.5,7748],[52.5,7831],[52.5,7914],[52.5,7998],[52.5,8081],[52.5,8164],[52.5,8247],[52.5,8331],[52.5,8414],[52.5,8498],[52.5,8581],[52.5,8664],[52.5,8747],[52.5,8831],[52.5,8915],[52.5,8997],[52.5,9081],[52.5,9165],[52.5,9248],[52.5,9331],[52.5,9414],[52.5,9497],[52.5,9581],[52.5,9665],[52.5,9748],[52.5,9831],[52.5,9915],[52.5,9998],[52.5,10081],[52.5,10164],[52.5,10248],[52.5,10332],[52.5,10415],[52.5,10498],[52.5,10582],[52.5,10665],[52.5,10748],[52.5,10831],[52.5,10914],[52.5,10997],[52.5,11081],[52.5,11165],[52.5,11248],[52.5,11331],[52.5,11415],[52.5,11498],[52.5,11581],[52.5,11665],[52.5,11748],[52.5,11831],[52.5,11915],[52.5,11997],[52.5,12082],[52.5,12165],[52.5,12248],[52.5,12331],[52.5,12414],[52.5,12498],[52.5,12581],[52.5,12664],[52.5,12747],[52.5,12831],[52.5,12914],[52.5,12998],[52.5,13081],[52.5,13164],[52.5,13247]]",1,0,962.16,967.477,24.58333174,2.244,"[{""rating"":24.58333174387614,""responseTime"":2.244000000000028}]",space,4.785,,967.477,Not at all,0,967.481,,,[],,0,10,10,10,1,audio/Narrative8Situation1.wav,audio/Narrative7Situation1.wav,audio/Narrative6Situation1.wav,audio/Narrative5Situation1.wav,5,2,2,5,,,,,,,,,,,,,,,,,,,,,,,,,,,,,,,,,,,,,,,
,,,,,,63f77b9ca8439f6e1620c1cd,2024-05-13_08h59.01.251,group3.1-3.2-social-tom,2023.2.2,Win32,58.82352941,65c5074098b851296ff0b7ed,6642387fef7fc54214a0d6f3,,,,,,,,,,,,,,,,,,,,,,,,,,,,,967.482,2,audio/Narrative5Situation2.wav,970.493,,970.493,999.956,"[[25.4,4665],[34.1,5333],[37.3,5416],[38.2,5500],[38.9,5581],[39.6,5664],[40.9,5749],[40.9,5833],[40.9,5915],[40.9,5999],[40.9,6083],[40.9,6165],[40.9,6249],[42.5,6331],[47.5,6415],[47.5,6499],[47.5,6581],[47.5,6665],[47.5,6749],[47.5,6831],[47.5,6914],[48.1,6999],[48.1,7081],[48.1,7165],[48.1,7250],[48.1,7333],[48.1,7414],[48.1,7499],[48.1,7581],[48.1,7664],[48.1,7749],[48.1,7831],[48.1,7915],[48.1,8000],[48.1,8081],[48.1,8165],[48.1,8249],[48.1,8331],[48.1,8414],[48.1,8499],[48.1,8581],[48.1,8664],[48.1,8748],[48.1,8831],[48.1,8915],[48.1,8999],[48.1,9081],[48.1,9164],[48.1,9249],[48.1,9331],[48.1,9415],[48.1,9499],[48.1,9581],[48.1,9664],[46.9,9750],[36.9,9831],[31.4,9914],[31.4,9998],[29.5,10083],[26.1,10171],[25.5,10248],[24.5,10331],[24.4,10414],[24.3,10498],[24.1,10580],[23.5,10663],[23.2,10749],[22.5,10830],[21.9,10914],[21.5,10999],[21.5,11080],[21.5,11164],[21.5,11248],[21.5,11330],[21.5,11414],[21.5,11498],[21.5,11580],[21.5,11664],[21.5,11748],[21.5,11830],[21.5,11914],[21.5,11998],[21.5,12081],[21.5,12164],[21.5,12248],[21.5,12331],[21.5,12414],[21.5,12498],[21.5,12581],[21.5,12664],[21.5,12748],[21.5,12830],[21.5,12914],[21.5,12999],[21.5,13080],[21.5,13164],[21.5,13248],[21.5,13330],[21.5,13414],[21.5,13499],[21.5,13580],[21.5,13664],[21.5,13748],[21.5,13831],[21.5,13914],[21.5,13998],[21.5,14080],[21.5,14164],[21.5,14248],[21.5,14330],[21.5,14414],[21.5,14498],[21.5,14581],[21.5,14663],[21.5,14748],[21.5,14830],[21.5,14913],[21.5,14998],[21.5,15080],[21.5,15164],[21.5,15248],[21.8,15340],[22.6,15414],[22.7,15498],[23.2,15581],[24.2,15664],[24.5,15749],[26.5,15830],[27.9,15913],[28.9,15998],[29.1,16081],[29.1,16164],[29.1,16248],[29.5,16331],[29.5,16413],[29.5,16498],[29.9,16581],[30.2,16663],[30.2,16747],[31.6,16830],[32,16914],[32.4,16998],[32.4,17080],[32.4,17163],[32.4,17248],[33.3,17330],[33.3,17414],[34.3,17497],[34.8,17580],[35.1,17664],[35.4,17748],[36.5,17830],[36.7,17913],[36.7,17998],[37,18079],[37,18163],[37,18247],[38.3,18330],[38.8,18413],[39.9,18497],[41.4,18580],[42,18663],[42.9,18747],[43.1,18830],[44.3,18913],[44.6,18997],[45,19080],[45.7,19164],[46.6,19247],[47.3,19330],[47.9,19415],[48.3,19496],[48.3,19581],[48.3,19663],[48.3,19747],[48.3,19829],[48.3,19913],[49.4,19997],[50.3,20079],[50.3,20163],[50.3,20246],[50.3,20330],[50.3,20413],[50.3,20497],[50.3,20579],[50.3,20663],[50.3,20747],[50.3,20829],[50.3,20913],[50.3,20997],[50.3,21079],[50.3,21163],[50.3,21247],[50.3,21329],[50.3,21413],[50.3,21497],[50.3,21579],[50.3,21663],[50.3,21746],[50.3,21829],[50.3,21913],[50.3,21997],[50.3,22080],[50.3,22163],[50.3,22247],[50.3,22329],[50.3,22413],[50.3,22497],[50.3,22579],[50.3,22663],[50.3,22746],[50.3,22829],[50.4,22914],[50.5,22996],[50.5,23079],[53.4,23163],[53.6,23247],[54,23329],[54,23413],[54.4,23497],[55,23579],[55.8,23663],[55.9,23747],[55.9,23829],[55.9,23913],[55.9,23997],[55.9,24079],[55.9,24163],[55.8,24247],[55.3,24329],[54.1,24413],[52.9,24497],[52.4,24579],[52.4,24663],[52.4,24746],[52.4,24829],[52.4,24913],[52.4,24996],[52.4,25079],[52.4,25163],[52.4,25246],[52.4,25329],[52.4,25413],[52.4,25497],[52.4,25579],[52.4,25663],[52.4,25747],[52.4,25828],[52.4,25913],[52.4,25996],[52.4,26079],[52.4,26163],[52.4,26244],[52.4,26328],[52.4,26412],[52.4,26496],[52.4,26578],[52.4,26663],[52.4,26746],[52.4,26829],[52.4,26912],[52.4,26996],[52.4,27078],[52.4,27162],[52.4,27246],[52.4,27328],[52.4,27412],[52.4,27496],[52.4,27578],[52.4,27663],[52.4,27746],[52.4,27829],[52.4,27913],[52.4,27996],[52.4,28079],[52.4,28163],[52.4,28246],[52.4,28329],[52.4,28413],[52.4,28496],[52.4,28579],[52.4,28662],[52.4,28746],[52.4,28828],[52.4,28912],[52.4,28996],[52.4,29078],[52.4,29163],[52.4,29246],[52.4,29329],[52.4,29413]]",1,0,999.957,1028.402,36.45833333,26.96,"[{""rating"":52.39583651224772,""responseTime"":3.2530000000001564},{""rating"":36.458333333333336,""responseTime"":26.960000000000036}]",space,27.896,,1028.402,Not at all,0,1028.407,,,[],,0,11,11,11,1,audio/Narrative8Situation2.wav,audio/Narrative7Situation2.wav,audio/Narrative6Situation2.wav,audio/Narrative5Situation2.wav,3,3,3,3,,,,,,,,,,,,,,,,,,,,,,,,,,,,,,,,,,,,,,,
,,,,,,63f77b9ca8439f6e1620c1cd,2024-05-13_08h59.01.251,group3.1-3.2-social-tom,2023.2.2,Win32,58.82352941,65c5074098b851296ff0b7ed,6642387fef7fc54214a0d6f3,,,,,,,,,,,,,,,,,,,,,,,,,,,,,1028.407,2,audio/Narrative5Situation3.wav,1031.419,,1031.419,1045.333,"[[51.8,1000],[52.3,1084],[52.3,1165],[51.9,1250],[47.9,1333],[44.3,1415],[39,1499],[33.5,1582],[30.3,1665],[27.1,1749],[25.8,1834],[23.8,1917],[18,2000],[16.8,2082],[15,2165],[13.4,2249],[13.2,2333],[13.2,2414],[13.2,2499],[13.2,2582],[13.2,2665],[13.2,2749],[13.2,2833],[13.2,2914],[13.2,2999],[13.2,3083],[13.2,3165],[13.2,3249],[13.2,3332],[13.2,3415],[13.2,3499],[13.2,3582],[13.2,3665],[13.2,3749],[13.2,3832],[13.2,3915],[13.2,3999],[13.2,4082],[13.2,4164],[13.2,4249],[13.2,4332],[13.2,4414],[13.2,4499],[13.2,4582],[13.2,4664],[13.2,4749],[13.2,4832],[13.2,4915],[13.2,4998],[13.2,5082],[13.2,5164],[13.2,5250],[13.2,5331],[13.2,5413],[13.2,5498],[13.2,5581],[13.2,5664],[13.2,5748],[13.2,5832],[13.2,5914],[13.2,5998],[13.2,6082],[13.2,6163],[13.2,6248],[13.2,6331],[13.2,6414],[13.2,6498],[13.2,6582],[13.2,6664],[13.2,6748],[13.2,6831],[13.2,6914],[13.2,6998],[13.2,7081],[13.2,7164],[13.2,7249],[13.2,7331],[13.2,7414],[13.2,7498],[13.2,7581],[13.2,7664],[13.2,7748],[13.2,7832],[13.2,7914],[13.2,7998],[13.2,8081],[13.2,8164],[13.2,8248],[13.2,8331],[13.2,8414],[13.2,8498],[13.2,8582],[13.2,8664],[13.2,8748],[13.2,8832],[13.2,8914],[13.2,8998],[13.2,9081],[13.2,9164],[13.2,9248],[13.2,9332],[13.2,9414],[13.2,9498],[13.2,9581],[13.2,9664],[13.2,9748],[13.2,9832],[13.2,9914],[13.2,9998],[13.2,10082],[13.2,10164],[13.2,10248],[13.2,10332],[13.2,10413],[13.2,10498],[13.2,10582],[13.2,10664],[13.2,10748],[13.2,10831],[13.2,10913],[13.2,10999],[44.3,11665],[46.7,11749],[47.9,11833],[48.4,11914],[51.6,11999],[54.5,12082],[57.1,12163],[58.6,12249],[58.8,12331],[58.8,12414],[58.8,12498],[58.8,12581],[58.8,12664],[58.8,12747],[58.8,12831],[58.8,12913],[58.8,12997],[58.8,13081],[58.8,13163],[58.8,13247],[58.8,13330],[58.8,13413],[58.8,13497],[58.8,13580],[58.8,13663],[58.8,13747],[58.8,13830],[58.8,13913]]",1,0,1045.333,1048.016,58.75000159,1.062,"[{""rating"":58.75000158945719,""responseTime"":1.0620000000001255}]",space,2.152,,1048.016,Half the time,50,1048.025,,,[],,0,12,12,12,1,audio/Narrative8Situation3.wav,audio/Narrative7Situation3.wav,audio/Narrative6Situation3.wav,audio/Narrative5Situation3.wav,4,8,5,3,,,,,,,,,,,,,,,,,,,,,,,,,,,,,,,,,,,,,,,
,,,,,,63f77b9ca8439f6e1620c1cd,2024-05-13_08h59.01.251,group3.1-3.2-social-tom,2023.2.2,Win32,58.82352941,65c5074098b851296ff0b7ed,6642387fef7fc54214a0d6f3,,,,,,,,,,,,,,,,,,,,,,,,,,,,,1048.025,2,audio/Narrative5Situation4.wav,1049.032,,1049.033,1069.43,"[[58.4,2499],[56.9,2583],[54.9,2665],[54.8,2750],[54.3,2833],[52.3,2916],[50.3,2999],[48,3083],[43.6,3165],[42.1,3250],[42,3333],[41,3416],[39,3500],[35.1,3583],[33.4,3665],[31.7,3749],[31,3832],[25.6,3915],[25.1,4005],[49,10831],[56.3,10914],[58.2,11000],[59.2,11082],[64.4,11164],[66.8,11248],[68.1,11332],[70.3,11414],[72.3,11498],[75.7,11581],[76,11663],[76.1,11748],[76.1,11831],[76.1,11914],[76.1,11998],[76.1,12081],[76.1,12163],[76.1,12248],[76.1,12331],[76.1,12413],[76.1,12498],[76.1,12581],[76.1,12664],[76.1,12748],[76.1,12831],[76.1,12913],[76.1,12998],[76.1,13082],[76.1,13163],[76.1,13248],[76.1,13331],[76.1,13413],[76.1,13498],[76.1,13582],[76.1,13663],[76.1,13748],[76.1,13831],[76.1,13914],[76.1,13998],[76.1,14082],[76.1,14164],[76.1,14248],[76.1,14332],[76.1,14413],[76.1,14497],[76.1,14581],[76.1,14664],[76.1,14748],[76.1,14831],[76.1,14913],[76.1,14997],[76.1,15081],[76.1,15163],[76.1,15248],[76.1,15331],[76.1,15414],[76.1,15498],[76.1,15582],[76.1,15663],[76.1,15748],[76.1,15832],[76.1,15913],[76.1,15997],[76.1,16081],[76.1,16163],[76.1,16248],[76.1,16331],[76.1,16413],[76.1,16497],[76.1,16581],[76.1,16663],[76.1,16748],[76.1,16831],[76.1,16914],[76.1,16998],[76.1,17081],[76.1,17163],[76.1,17248],[76.1,17331],[76.1,17413],[76.1,17498],[76.1,17581],[76.1,17663],[76.1,17747],[76.1,17831],[76.1,17913],[76.1,17997],[76.1,18079],[76.1,18163],[76.1,18247],[75.9,18333],[75,18414],[69.7,18497],[61.7,18579],[59.7,18663],[58.5,18747],[57.6,18829],[56.5,18913],[55.8,18997],[55.5,19079],[55,19163],[54.5,19248],[53.4,19331],[52.7,19413],[51.3,19498],[50.7,19579],[50.1,19663],[49,19748],[48.5,19829],[48.5,19913],[47.5,19999],[47.2,20079],[47.2,20163],[47.1,20249],[47.1,20329]]",1,0,1069.43,1073.363,26.04166667,1.826,"[{""rating"":26.041666666666664,""responseTime"":1.8260000000000218}]",space,3.403,,1073.363,Half the time,50,1073.366,,,[],,0,13,13,13,1,audio/Narrative8Situation4.wav,audio/Narrative7Situation4.wav,audio/Narrative6Situation4.wav,audio/Narrative5Situation4.wav,3,3,2,1,,,,,,,,,,,,,,,,,,,,,,,,,,,,,,,,,,,,,,,
,,,,,,63f77b9ca8439f6e1620c1cd,2024-05-13_08h59.01.251,group3.1-3.2-social-tom,2023.2.2,Win32,58.82352941,65c5074098b851296ff0b7ed,6642387fef7fc54214a0d6f3,,,,,,,,,,,,,,,,,,,,,,,,,,,,,1073.366,2,audio/Narrative5Situation5.wav,1078.379,,1078.379,1093.81,"[[26.5,12580],[26.9,12663],[27.4,12749],[31.5,13080],[37.3,13164],[39.9,13248],[40.6,13330],[49.9,13498],[50.2,13580],[51.4,13664],[56.1,13748],[61.4,13832],[64.4,13914],[64.5,13998],[65.5,14082],[65.7,14164],[66.7,14248],[66.7,14330],[66.8,14413],[66.8,14497],[66.8,14580],[66.8,14663],[66.8,14748],[66.8,14830],[66.8,14913],[66.8,14998],[66.8,15080],[66.8,15163],[66.8,15248],[66.8,15330],[66.8,15413]]",1,0,1093.81,1096.593,60.20833651,1.228,"[{""rating"":60.20833651224772,""responseTime"":1.2280000000000655}]",space,2.25,,1096.593,Not at all,0,1096.598,,,[],,0,14,14,14,1,audio/Narrative8Situation5.wav,audio/Narrative7Situation5.wav,audio/Narrative6Situation5.wav,audio/Narrative5Situation5.wav,2,5,2,5,,,,,,,,,,,,,,,,,,,,,,,,,,,,,,,,,,,,,,,
,,,,,,63f77b9ca8439f6e1620c1cd,2024-05-13_08h59.01.251,group3.1-3.2-social-tom,2023.2.2,Win32,58.82352941,65c5074098b851296ff0b7ed,6642387fef7fc54214a0d6f3,,,,,,,,,,,,,,,,,,,,,,,,,,,,,1096.598,2,audio/Narrative5Situation6.wav,1099.609,,1099.609,1105.276,"[[60.3,750],[60.9,835],[61.3,917],[61,1000],[57.1,1084],[53.5,1166],[52.7,1250],[51.5,1334],[50.9,1416],[50.6,1500],[50.6,1583],[50.5,1665],[50.5,1750],[50.5,1833],[50.5,1915],[50.5,2000],[50.5,2083],[50.5,2165],[50.5,2250],[50.5,2333],[50.5,2416],[50.5,2500],[50.5,2583],[50.5,2666],[50.5,2750],[50.5,2833],[50.5,2915],[50.5,2999],[50.5,3083],[50.5,3166],[50.5,3250],[50.5,3333],[50.5,3416],[50.5,3500],[50.5,3583],[48.8,3666],[44.6,3751],[41.5,3834],[40.5,3916],[38.4,4000],[36.6,4083],[36,4165],[35.9,4250],[35.9,4333],[35.9,4416],[35.9,4500],[35.9,4584],[35.9,4665],[35.9,4750],[35.9,4833],[35.9,4915],[35.9,4999],[35.9,5083],[35.9,5165],[35.9,5250],[35.9,5333],[35.9,5415],[35.9,5500],[35.9,5583],[35.9,5666]]",1,0,1105.276,1109.675,12.08333572,2.61,"[{""rating"":17.91667143503825,""responseTime"":1.7920000000001437},{""rating"":12.083335717519123,""responseTime"":2.6100000000001273}]",space,3.851,,1109.675,Not at all,0,1109.679,,,[],,0,15,15,15,1,audio/Narrative8Situation6.wav,audio/Narrative7Situation6.wav,audio/Narrative6Situation6.wav,audio/Narrative5Situation6.wav,2,3,2,3,,,,,,,,,,,,,,,,,,,,,,,,,,,,,,,,,,,,,,,
,,,,,,63f77b9ca8439f6e1620c1cd,2024-05-13_08h59.01.251,group3.1-3.2-social-tom,2023.2.2,Win32,58.82352941,65c5074098b851296ff0b7ed,6642387fef7fc54214a0d6f3,,,,,,,,,,,,,,,,,,,,,,,,,,,,,1109.679,2,audio/Narrative5Situation7.wav,1113.691,,1113.691,1134.755,"[[45.4,83],[45.8,166],[45.8,250],[45.8,332],[45.8,416],[45.8,498],[45.8,582],[45.8,665],[46,750],[47.3,832],[47.5,916],[47.5,998],[48.1,1082],[48.4,1166],[49,1250],[49,1333],[49,1415],[49.5,1498],[50.1,1583],[52.8,1665],[53.3,1750],[56,1832],[56.7,1915],[56.8,2000],[56.8,2082],[56.8,2165],[56.8,2248],[56.4,2333],[54.1,2415],[48.5,2498],[46,2582],[42.6,2666],[40.4,2748],[39.5,2832],[39,2915],[39,3000],[39,3082],[39,3165],[39,3248],[39,3331],[39,3420],[39,3498],[39,3581],[39,3665],[39,3748],[39,3832],[39,3914],[39,3998],[39,4081],[39,4164],[39,4248],[39,4332],[39,4415],[39,4500],[39,4582],[39,4665],[39,4750],[39,4832],[39,4915],[39,4998],[39,5081],[39,5165],[39,5248],[39,5331],[39,5415],[39,5498],[39,5581],[39,5665],[39,5750],[39,5832],[39,5915],[39,5998],[39,6081],[39,6165],[39,6248],[39,6331],[39,6415],[39,6497],[39,6581],[39,6664],[39,6748],[39,6832],[39,6915],[39,6998],[39,7081],[39,7165],[39,7248],[39,7331],[39,7414],[39,7498],[39,7581],[39,7665],[39,7748],[39,7831],[39,7914],[39,7998],[39,8081],[39,8164],[39,8248],[39,8331],[39,8414],[39,8498],[39,8581],[39,8664],[39,8748],[39,8831],[39,8914],[39,8997],[39,9081],[39,9164],[39,9248],[39,9331],[39,9414],[39,9498],[39,9581],[39,9665],[39,9748],[39,9831],[39,9914],[39,9998],[39,10081],[39,10164],[39,10247],[39,10331],[39,10414],[39,10498],[39,10581],[39,10665],[39,10747],[39,10831],[39,10914],[39,10998],[39,11080],[39,11163],[39,11247],[39,11331],[39,11414],[39,11497],[39,11583],[39,11664],[39,11748],[39,11830],[39,11914],[39,11997],[39,12081],[39,12164],[39,12247],[39,12331],[39,12414],[39,12498],[39,12581],[39,12664],[39,12747],[39,12831],[39,12914],[39,12998],[39,13081],[39,13164],[39,13248],[39,13330],[39,13415],[39,13497],[39,13581],[39,13664],[39,13747],[39,13830],[39,13914],[39,13997],[39,14080],[39,14164],[39.4,14247],[44.2,14331],[45.6,14414],[47.4,14497],[52.1,14581],[52.8,14664],[52.8,14747],[53.3,14831],[53.5,14913],[54,14997],[55.6,15081],[59.1,15164],[62.6,15248],[68.8,15330],[71.9,15414],[71.9,15497],[72.6,15581],[72.7,15664],[74.2,15748],[74.7,15831],[74.9,15914],[75,15997],[75,16081],[75,16164],[75,16247],[75,16330],[75,16413],[75,16497],[75,16580],[75,16664],[75,16746],[75,16830],[75,16913],[75,16997],[75,17080],[75,17163],[75,17246],[75,17330],[75,17413],[75,17497],[75,17580],[75,17663],[75,17747],[75,17830],[75,17913],[75,17996],[75,18080],[75,18163],[75,18247],[75,18330],[75,18414],[75,18496],[75,18580],[75,18663],[75,18746],[75,18830],[75,18913],[75,18996],[75,19080],[75,19163],[75,19247],[75,19330],[75,19413],[75,19496],[75,19580],[75,19663],[75,19746],[75,19830],[75,19913],[75,20000],[75,20079],[75,20162],[75,20246],[75,20330],[75,20414],[75,20497],[75,20580],[75,20663],[75,20746],[75,20829],[75,20913],[75,20996]]",1,0,1134.756,1137.488,74.89583492,1.249,"[{""rating"":74.89583492279053,""responseTime"":1.2490000000000236}]",space,2.186,,1137.488,Half the time,50,1137.494,,,[],,0,16,16,16,1,audio/Narrative8Situation7.wav,audio/Narrative7Situation7.wav,audio/Narrative6Situation7.wav,audio/Narrative5Situation7.wav,3,5,5,4,,,,,,,,,,,,,,,,,,,,,,,,,,,,,,,,,,,,,,,
,,,,,,63f77b9ca8439f6e1620c1cd,2024-05-13_08h59.01.251,group3.1-3.2-social-tom,2023.2.2,Win32,58.82352941,65c5074098b851296ff0b7ed,6642387fef7fc54214a0d6f3,,,,,,,,,,,,,,,,,,,,,,,,,,,,,1137.494,2,audio/Narrative5Situation8.wav,1140.504,,1140.504,1149.336,"[[74.8,4584],[74.6,4665],[74.1,4750],[72,4833],[71.7,4916],[71.6,5000],[71.5,5083],[71.1,5165],[70.7,5250],[69.2,5333],[68.1,5416],[67.9,5500],[67.8,5583],[67.8,5665],[67.8,5749],[67.8,5833],[67.8,5915],[67.8,6000],[67.8,6082],[67.8,6166],[67.8,6250],[67.8,6333],[67.8,6416],[67.8,6500],[67.8,6583],[67.8,6665],[67.8,6750],[67.8,6832],[67.8,6916],[67.8,7000],[67.8,7083],[67.8,7165],[67.8,7249],[67.8,7332],[67.8,7414],[67.8,7499],[67.8,7583],[67.8,7665],[67.8,7749],[67.8,7832],[67.8,7915],[67.8,7999],[67.8,8083],[67.8,8165],[67.8,8249],[67.8,8332],[67.8,8414],[67.8,8499],[67.8,8587],[67.8,8664],[67.8,8749],[67.8,8832]]",1,0,1149.336,1158.186,76.7708381,6.493,"[{""rating"":76.77083810170491,""responseTime"":6.492999999999938}]",space,8.323,,1158.186,Half the time,50,1158.204,,,[],,0,17,17,17,1,audio/Narrative8Situation8.wav,audio/Narrative7Situation8.wav,audio/Narrative6Situation8.wav,audio/Narrative5Situation8.wav,3,2,5,3,,,,,,,,,,,,,,,,,,,,,,,,,,,,,,,,,,,,,,,
