exp_question,consent.started,consent.stopped,consentResponse.keys,consentResponse.rt,consentResponse.duration,participantID,date,expName,psychopyVersion,OS,frameRate,STUDY_ID,SESSION_ID,opening1.started,opening1.stopped,keyEndingOpening1.keys,keyEndingOpening1.rt,keyEndingOpening1.duration,volumeAdjust.started,volumeAdjust.stopped,endingAdjust.keys,endingAdjust.rt,endingAdjust.duration,opening2.started,opening2.stopped,keyEndingOpening.keys,keyEndingOpening.rt,keyEndingOpening.duration,mouse.x,mouse.y,mouse.leftButton,mouse.midButton,mouse.rightButton,mouse.time,instructionLoop.thisRepN,instructionLoop.thisTrialN,instructionLoop.thisN,instructionLoop.thisIndex,instructionLoop.ran,readyForAudio.started,readyForAudio.stopped,fixation.started,run,audio_played,fixation.stopped,endPractice.keys,audioPre.started,audioPre.stopped,continuousResponses_audio,continuousSlider.response,continuousSlider.rt,intRating.started,intRating.stopped,intQuestionSlider.response,intQuestionSlider.rt,intQuestionSlider.history,confirmResponse.keys,confirmResponse.rt,confirmResponse.duration,catchQuestion.started,catch_label,catch_value,catchQuestion.stopped,catchQuestionSlider.response,catchQuestionSlider.rt,catchQuestionSlider.history,confirmResponse_2.keys,audioRunLoop.thisRepN,audioRunLoop.thisTrialN,audioRunLoop.thisN,audioRunLoop.thisIndex,audioRunLoop.ran,conditions1_1,conditions2_1,conditions1_2,conditions2_2,dur1_1,dur2_1,dur1_2,dur2_2,endPractice.rt,endPractice.duration,confirmResponse_2.rt,confirmResponse_2.duration,runIntervalBreak.started,runIntervalBreak.stopped,endingBreakKey.keys,endingBreakKey.rt,endingBreakKey.duration,connection.started,connection.stopped,connectionEnding.keys,connectionEnding.rt,connectionEnding.duration,readyForText.started,readyForText.stopped,textPre.started,run_dup,textPre.stopped,continuousResponses_text,textRunLoop.thisRepN,textRunLoop.thisTrialN,textRunLoop.thisN,textRunLoop.thisIndex,textRunLoop.ran,text1_1,text1_2,text2_1,text2_2,runBreakText.started,runBreakText.stopped,endingBreakKey_2.keys,endingBreakKey_2.rt,endingBreakKey_2.duration,ending.started,ending.stopped,endingEnding.keys,endingEnding.rt,endingEnding.duration
social,0.0003,10.2755,y,9.7446,,63fcf26a814570a76bcf2237,2024-05-13_11h42.16.020,group3.1-3.2-social-tom,2023.2.2,Win32,8.576623555,65c5074098b851296ff0b7ed,6642343a79c2d4133b535f37,,,,,,,,,,,,,,,,,,,,,,,,,,,,,,,,,,,,,,,,,,,,,,,,,,,,,,,,,,,,,,,,,,,,,,,,,,,,,,,,,,,,,,,,,,,,,,,,,,,,,,,,,,
,,,,,,63fcf26a814570a76bcf2237,2024-05-13_11h42.16.020,group3.1-3.2-social-tom,2023.2.2,Win32,8.576623555,65c5074098b851296ff0b7ed,6642343a79c2d4133b535f37,10.2758,16.2892,space,5.8559,,,,,,,,,,,,,,,,,,,,,,,,,,,,,,,,,,,,,,,,,,,,,,,,,,,,,,,,,,,,,,,,,,,,,,,,,,,,,,,,,,,,,,,,,,,,,,,,,,,,,,
,,,,,,63fcf26a814570a76bcf2237,2024-05-13_11h42.16.020,group3.1-3.2-social-tom,2023.2.2,Win32,8.576623555,65c5074098b851296ff0b7ed,6642343a79c2d4133b535f37,,,,,,16.2894,24.4506,space,7.6888,,,,,,,,,,,,,,,,,,,,,,,,,,,,,,,,,,,,,,,,,,,,,,,,,,,,,,,,,,,,,,,,,,,,,,,,,,,,,,,,,,,,,,,,,,,,,,,,,
,,,,,,63fcf26a814570a76bcf2237,2024-05-13_11h42.16.020,group3.1-3.2-social-tom,2023.2.2,Win32,8.576623555,65c5074098b851296ff0b7ed,6642343a79c2d4133b535f37,,,,,,,,,,,24.4622,35.788,space,11.1776,,[],[],[],[],[],[],0,0,0,0,1,,,,,,,,,,,,,,,,,,,,,,,,,,,,,,,,,,,,,,,,,,,,,,,,,,,,,,,,,,,,,,,,,,,,,,,,,,,,,,,,
,,,,,,63fcf26a814570a76bcf2237,2024-05-13_11h42.16.020,group3.1-3.2-social-tom,2023.2.2,Win32,8.576623555,65c5074098b851296ff0b7ed,6642343a79c2d4133b535f37,,,,,,,,,,,35.7962,59.1447,space,23.1263,,[],[],[],[],[],[],1,0,1,0,1,,,,,,,,,,,,,,,,,,,,,,,,,,,,,,,,,,,,,,,,,,,,,,,,,,,,,,,,,,,,,,,,,,,,,,,,,,,,,,,,
,,,,,,63fcf26a814570a76bcf2237,2024-05-13_11h42.16.020,group3.1-3.2-social-tom,2023.2.2,Win32,8.576623555,65c5074098b851296ff0b7ed,6642343a79c2d4133b535f37,,,,,,,,,,,59.1523,78.8094,space,19.4706,,[],[],[],[],[],[],2,0,2,0,1,,,,,,,,,,,,,,,,,,,,,,,,,,,,,,,,,,,,,,,,,,,,,,,,,,,,,,,,,,,,,,,,,,,,,,,,,,,,,,,,
,,,,,,63fcf26a814570a76bcf2237,2024-05-13_11h42.16.020,group3.1-3.2-social-tom,2023.2.2,Win32,8.576623555,65c5074098b851296ff0b7ed,6642343a79c2d4133b535f37,,,,,,,,,,,78.8097,128.6641,space,49.6826,,[],[],[],[],[],[],3,0,3,0,1,,,,,,,,,,,,,,,,,,,,,,,,,,,,,,,,,,,,,,,,,,,,,,,,,,,,,,,,,,,,,,,,,,,,,,,,,,,,,,,,
,,,,,,63fcf26a814570a76bcf2237,2024-05-13_11h42.16.020,group3.1-3.2-social-tom,2023.2.2,Win32,8.576623555,65c5074098b851296ff0b7ed,6642343a79c2d4133b535f37,,,,,,,,,,,128.6718,144.5682,space,15.7364,,[],[],[],[],[],[],4,0,4,0,1,,,,,,,,,,,,,,,,,,,,,,,,,,,,,,,,,,,,,,,,,,,,,,,,,,,,,,,,,,,,,,,,,,,,,,,,,,,,,,,,
,,,,,,63fcf26a814570a76bcf2237,2024-05-13_11h42.16.020,group3.1-3.2-social-tom,2023.2.2,Win32,8.576623555,65c5074098b851296ff0b7ed,6642343a79c2d4133b535f37,,,,,,,,,,,,,,,,,,,,,,,,,,,144.5772,147.0824,147.1031,1,audio/Narrative13Situation2.wav,149.1789,,149.179,179.257,"[[999,0],[999,198],[999,414],[999,559],[999,702],[999,849],[999,992],[999,1135],[999,1278],[999,1421],[49.1,1568],[49.1,1713],[49.1,1858],[48.3,2006],[48.3,2151],[48.3,2297],[49,2442],[57.1,2589],[57.1,2735],[57.1,2881],[57.1,3025],[57.1,3171],[57.1,3338],[57.1,3483],[57.1,3626],[57.1,3770],[57.1,3914],[53.6,4060],[46.7,4207],[46.7,4350],[46.7,4508],[45.7,4671],[31.6,4836],[24.1,4985],[24.1,5129],[24.1,5275],[24.1,5419],[19.4,5568],[12.1,5713],[12.1,5862],[12.1,6007],[12.1,6153],[12.1,6297],[12.1,6439],[12.1,6584],[12.1,6730],[16.4,6878],[16.4,7022],[16.4,7206],[16.4,7347],[16.4,7491],[16.4,7636],[16.4,7781],[16.4,7925],[16.4,8069],[16.4,8216],[16.4,8366],[20.8,8512],[34,8658],[45.4,8803],[58.3,8948],[71.5,9094],[82.9,9240],[82.9,9385],[82.9,9529],[82.9,9674],[82.9,9817],[82.9,9962],[82.9,10109],[82.9,10254],[82.9,10398],[82.9,10546],[72.3,10691],[72.3,10838],[72.3,10982],[72.3,11130],[72.3,11274],[72.3,11421],[76.1,11566],[87,11711],[94.9,11857],[94.9,12007],[94.9,12159],[94.9,12305],[94.9,12449],[94.9,12593],[94.9,12738],[94.9,12884],[94.9,13027],[94.9,13179],[94.9,13322],[94.9,13470],[94.9,13617],[90.7,13763],[83.1,13910],[83.1,14055],[83.1,14271],[83.1,14416],[83.1,14561],[83.1,14707],[83.1,14852],[83.1,14996],[83.1,15142],[79.8,15287],[79.8,15433],[85,15585],[96.4,15730],[96.4,15876],[96.4,16020],[92.1,16171],[79.2,16314],[78.3,16460],[78.3,16606],[78.3,16748],[78.3,16890],[78.3,17035],[78.3,17182],[78.3,17326],[78.3,17471],[78.3,17618],[73.1,17769],[59.8,17915],[57.5,18057],[57.5,18204],[57.5,18349],[57.5,18493],[57.5,18638],[51.1,18784],[51.1,18930],[51.1,19076],[51.1,19222],[51.1,19368],[51.1,19511],[60.5,19658],[60.5,19806],[60.5,19952],[56.8,20096],[46.6,20241],[46.6,20386],[46.6,20531],[46.6,20679],[46.6,20824],[46.6,20969],[46.6,21131],[51.3,21304],[62.3,21449],[62.3,21594],[62.3,21740],[62.3,21885],[62.3,22030],[58.1,22175],[46.4,22323],[38.9,22467],[38.9,22613],[38.9,22759],[42.5,22905],[54.3,23051],[61.1,23200],[61.1,23346],[61.1,23490],[61.1,23636],[61.1,23782],[65.2,23928],[76.6,24073],[76.6,24220],[76.6,24364],[76.6,24509],[76.6,24655],[76.6,24799],[76.6,24945],[76.6,25089],[76.6,25236],[84.7,25384],[84.7,25527],[84.7,25675],[84.7,25818],[84.7,25962],[84.7,26110],[84.7,26255],[84.7,26404],[80.5,26549],[67.4,26692],[60.2,26840],[60.2,26987],[60.2,27138],[60.2,27282],[60.2,27429],[60.2,27574],[60.2,27720],[60.2,27865],[60.2,28012],[60.2,28173],[60.2,28317],[60.2,28462],[60.2,28607],[60.2,28752],[49.1,28898],[40.2,29045],[40.2,29195],[40.2,29339],[40.2,29484],[40.2,29628],[40.2,29782],[40.2,29931],[40.2,30077]]",1,0,179.2574,195.5957,71.77083333,13.1517,"[{""rating"":63.22916666666667,""responseTime"":8.844000000000023},{""rating"":63.22916666666667,""responseTime"":9.759699999999725},{""rating"":71.77083333333334,""responseTime"":13.151699999999721}]",space,15.4425,,195.596,Partially,50,195.5998,,,[],,0,0,0,0,1,audio/Narrative13Situation2.wav,audio/Narrative13Situation2.wav,audio/Narrative13Situation2.wav,audio/Narrative13Situation2.wav,2,2,2,2,,,,,,,,,,,,,,,,,,,,,,,,,,,,,,,,,,,,,,,
,,,,,,63fcf26a814570a76bcf2237,2024-05-13_11h42.16.020,group3.1-3.2-social-tom,2023.2.2,Win32,8.576623555,65c5074098b851296ff0b7ed,6642343a79c2d4133b535f37,,,,,,,,,,,,,,,,,,,,,,,,,,,,,195.6001,1,audio/Narrative8Situation1.wav,198.6271,space,198.6271,214.8988,"[[59.8,1274],[59.1,1416],[59.1,1558],[59.1,1702],[56,1843],[56,2000],[56,2140],[56,2283],[56,2426],[52.5,2568],[45.1,2713],[45.1,2855],[45.1,2999],[45.1,3143],[45.1,3283],[52.7,3427],[52.7,3568],[52.7,3711],[52.7,3852],[52.7,4003],[52,4147],[44.7,4290],[44.7,4431],[44.7,4573],[44.7,4715],[44.7,4858],[44.7,5003],[44.7,5145],[44.7,5288],[41,5432],[32.3,5576],[32.3,5719],[32.3,5863],[32.3,6005],[32.3,6150],[35.5,6293],[35.5,6439],[35.5,6583],[35.5,6756],[35.5,6900],[35.5,7043],[35.5,7186],[34.7,7328],[25.9,7472],[25.9,7612],[25.9,7757],[25.9,7900],[25.9,8042],[25.9,8184],[30.3,8329],[38.2,8473],[38.2,8615],[38.2,8778],[38.2,8921],[38.2,9064],[40.7,9207],[49.5,9350],[49.5,9492],[49.5,9633],[49.5,9777],[49.5,9917],[53.9,10061],[61.3,10205],[61.3,10347],[65.5,10490],[76.5,10638],[76.5,10881],[80.6,11024],[84.8,11189],[84.8,11330],[84.8,11474],[84.8,11616],[84.8,11758],[84.8,11899],[84.8,12040],[84.8,12182],[84.8,12323],[84.8,12466],[84.8,12607],[84.8,12749],[89.1,12892],[97.7,13037],[97.7,13180],[97.7,13323],[97.7,13464],[97.7,13606],[97.7,13766],[97.7,13926],[97.7,14070],[97.7,14215],[97.7,14357],[97.7,14498],[97.7,14639],[97.7,14782],[97.7,14925],[97.7,15092],[97.7,15238],[86.1,15409],[86.1,15553],[86.1,15697],[86.1,15839],[86.1,15988],[86.1,16129],[86.1,16271]]",1,0,214.899,222.6833,70.52083333,5.4527,"[{""rating"":62.39583333333334,""responseTime"":3.6225000000000023},{""rating"":73.85416666666667,""responseTime"":4.690499999999986},{""rating"":70.52083333333333,""responseTime"":5.452700000000192}]",space,6.8882,0.0001,222.6833,Not at all,0,222.6934,,,[],,0,1,1,1,1,audio/Narrative7Situation1.wav,audio/Narrative8Situation1.wav,audio/Narrative5Situation1.wav,audio/Narrative6Situation1.wav,2,5,5,2,2.8914,0.0002,,,,,,,,,,,,,,,,,,,,,,,,,,,,,,,,,,,,,
,,,,,,63fcf26a814570a76bcf2237,2024-05-13_11h42.16.020,group3.1-3.2-social-tom,2023.2.2,Win32,8.576623555,65c5074098b851296ff0b7ed,6642343a79c2d4133b535f37,,,,,,,,,,,,,,,,,,,,,,,,,,,,,222.6936,1,audio/Narrative8Situation2.wav,225.8253,,225.8254,236.2589,"[[63.6,1701],[53.6,1842],[53.6,1985],[53.6,2127],[53.6,2270],[53.6,2412],[53.6,2559],[53.6,2702],[54.4,2845],[63.8,2990],[63.8,3134],[63.8,3275],[63.8,3417],[63.8,3560],[63.8,3703],[60.4,3847],[51.8,3989],[51.8,4131],[51.8,4273],[51.8,4415],[51.8,4583],[51.8,4726],[55.8,4870],[63.8,5013],[63.8,5156],[59.6,5299],[47.3,5443],[38.8,5587],[38.8,5729],[38.8,5871],[38.8,6014],[38.8,6156],[38.8,6300],[38.8,6441],[38.8,6583],[38.8,6725],[38.8,6869],[38.8,7008],[38.8,7151],[39.4,7292],[47.9,7439],[47.9,7581],[47.9,7722],[47.9,7864],[47.9,8006],[47.9,8149],[47.9,8292],[47.9,8433],[47.9,8577],[47.9,8720],[47.2,8863],[35,9006],[25.3,9150],[25.3,9292],[25.3,9435],[25.3,9577],[25.3,9721],[25.3,9862],[25.3,10004],[25.3,10146],[29.2,10290],[29.9,10433]]",1,0,236.2591,242.427,41.87500636,2.3725,"[{""rating"":41.875006357828774,""responseTime"":2.3725000000000023}]",space,5.2727,,242.427,Not at all,0,242.4285,,,[],,0,2,2,2,1,audio/Narrative7Situation2.wav,audio/Narrative8Situation2.wav,audio/Narrative5Situation2.wav,audio/Narrative6Situation2.wav,3,3,3,3,,,,,,,,,,,,,,,,,,,,,,,,,,,,,,,,,,,,,,,
,,,,,,63fcf26a814570a76bcf2237,2024-05-13_11h42.16.020,group3.1-3.2-social-tom,2023.2.2,Win32,8.576623555,65c5074098b851296ff0b7ed,6642343a79c2d4133b535f37,,,,,,,,,,,,,,,,,,,,,,,,,,,,,242.4287,1,audio/Narrative8Situation3.wav,246.4316,,246.4316,269.1368,"[[51.5,1697],[51.5,1839],[51.5,1983],[48.4,2125],[38.5,2267],[38.5,2411],[38.5,2552],[38.5,2695],[38.5,2838],[38.5,2981],[38.5,3123],[38.5,3265],[38.5,3412],[38.5,3554],[38.5,3698],[42.7,3843],[54.9,3987],[67.1,4129],[79.4,4272],[88.1,4416],[88.1,4561],[88.1,4706],[88.1,4852],[88.1,5052],[88.1,5193],[88.1,5335],[88.1,5477],[88.1,5620],[92.3,5765],[93.1,5909],[93.1,6050],[93.1,6193],[93.1,6334],[93.1,6481],[93.1,6622],[89.5,6766],[82.3,6912],[82.3,7054],[82.3,7195],[82.3,7337],[82.3,7479],[82.3,7621],[82.3,7767],[82.3,7910],[82.3,8049],[82.3,8193],[82.3,8334],[82.3,8477],[82.3,8618],[82.3,8764],[92.4,8908],[92.4,9052],[92.4,9193],[92.4,9335],[92.4,9477],[92.4,9620],[92.4,9761],[92.4,9903],[92.4,10044],[92.4,10186],[92.4,10326],[92.4,10468],[92.4,10610],[92.4,10752],[92.4,10896],[92.4,11038],[92.4,11181],[92.4,11321],[92.4,11462],[92.4,11605],[92.4,11747],[92.4,11974],[92.4,12153],[92.4,12295],[92.4,12437],[92.4,12579],[92.4,12725],[83.4,12870],[83.4,13019],[83.4,13161],[83.4,13302],[83.4,13442],[84.3,13584],[93,13728],[93,13870],[93,14015],[93,14157],[93,14299],[93,14443],[89.2,14585],[81.5,14730],[81.5,14872],[81.5,15015],[81.5,15156],[81.5,15298],[81.5,15439],[81.5,15580],[81.5,15722],[85.3,15866],[93,16008],[93,16153],[93,16297],[93,16440],[93,16583],[93,16725],[93,16867],[93,17008],[93,17154],[93,17295],[93,17438],[93,17579],[93,17721],[93,17871],[93,18015],[93,18162],[92.6,18304],[92.6,18448],[92.6,18590],[92.6,18733],[92.6,18923],[92.6,19067],[92.6,19232],[87.2,19415],[85.5,19559],[85.5,19700],[85.5,19843],[85.5,19985],[85.5,20128],[85.5,20273],[85.5,20417],[85.5,20559],[85.5,20700],[85.5,20843],[85.5,20985],[85.5,21126],[85.5,21276],[85.5,21418],[85.5,21560],[85.5,21702],[85.5,21843],[85.5,21987],[85.5,22130],[74.9,22275],[64.3,22418],[64.3,22562],[64.3,22704]]",1,0,269.1369,275.9713,93.4375,5.1667,"[{""rating"":93.4375,""responseTime"":4.655600000000106},{""rating"":93.4375,""responseTime"":5.166700000000162}]",space,6.0185,,275.9713,Not at all,0,290.3149,0,9.5215,"[{""rating"":4.166666666666669,""responseTime"":5.856600000000128},{""rating"":0,""responseTime"":9.521500000000003}]",space,0,3,3,3,1,audio/Narrative7Situation3.wav,audio/Narrative8Situation3.wav,audio/Narrative5Situation3.wav,audio/Narrative6Situation3.wav,8,4,3,5,,,13.4277,0.0002,,,,,,,,,,,,,,,,,,,,,,,,,,,,,,,,,,,
,,,,,,63fcf26a814570a76bcf2237,2024-05-13_11h42.16.020,group3.1-3.2-social-tom,2023.2.2,Win32,8.576623555,65c5074098b851296ff0b7ed,6642343a79c2d4133b535f37,,,,,,,,,,,,,,,,,,,,,,,,,,,,,290.3246,1,audio/Narrative8Situation4.wav,293.4026,,293.4026,307.8671,"[[11.8,142],[23.6,286],[34.8,429],[34.8,571],[34.8,713],[34.8,856],[34.8,1001],[47,1146],[55.6,1289],[55.6,1433],[55.6,1575],[55.6,1717],[55.6,1861],[55.6,2003],[55.6,2146],[55.6,2289],[55.6,2432],[55.6,2576],[55.6,2718],[55.6,2859],[55.6,3010],[55.6,3153],[59.7,3296],[67.8,3439],[67.8,3584],[67.8,3726],[63.4,3875],[45.6,4083],[37.9,4228],[37.9,4371],[37.9,4514],[37.9,4658],[41.8,4801],[49,4944],[49,5088],[49,5229],[49,5375],[49,5518],[52.9,5664],[63.8,5808],[73.9,5950],[81.5,6095],[81.5,6237],[81.5,6380],[81.5,6523],[81.5,6665],[81.5,6807],[85.4,6954],[92.6,7115],[92.6,7258],[92.6,7402],[92.6,7544],[92.6,7687],[92.6,7830],[92.6,7981],[92.6,8123],[92.6,8264],[92.6,8406],[92.6,8548],[92.6,8690],[92.6,8833],[92.6,8975],[92.6,9116],[92.6,9258],[92.6,9400],[92.6,9543],[92.6,9685],[92.6,9827],[92.6,9978],[92.6,10119],[92.6,10260],[92.6,10413],[92.6,10574],[92.6,10751],[92.6,10904],[92.6,11046],[92.6,11188],[92.6,11330],[92.6,11472],[92.6,11614],[92.6,11757],[92.6,11902],[92.6,12044],[92.6,12186],[92.6,12328],[92.6,12471],[92.6,12612],[92.6,12754],[92.6,12903],[92.6,13045],[92.6,13187],[92.6,13329],[92.6,13470],[92.6,13612],[92.6,13754],[92.6,13897],[92.6,14038],[92.6,14180],[92.6,14320],[92.6,14464]]",1,0,307.8671,311.6812,92.60417938,1.0491,"[{""rating"":92.60417938232422,""responseTime"":1.0491000000000668}]",space,2.9165,,311.6813,Definitely yes,100,311.6843,,,[],,0,4,4,4,1,audio/Narrative7Situation4.wav,audio/Narrative8Situation4.wav,audio/Narrative5Situation4.wav,audio/Narrative6Situation4.wav,3,3,1,2,,,,,,,,,,,,,,,,,,,,,,,,,,,,,,,,,,,,,,,
,,,,,,63fcf26a814570a76bcf2237,2024-05-13_11h42.16.020,group3.1-3.2-social-tom,2023.2.2,Win32,8.576623555,65c5074098b851296ff0b7ed,6642343a79c2d4133b535f37,,,,,,,,,,,,,,,,,,,,,,,,,,,,,311.6845,1,audio/Narrative8Situation5.wav,313.7724,,313.7725,322.3643,"[[77.1,568],[84.5,711],[80.6,857],[69.7,999],[58.1,1143],[54.8,1287],[54.8,1428],[54.8,1571],[54.8,1715],[55.5,1858],[66,1999],[77.4,2145],[84.1,2288],[84.1,2430],[84.1,2571],[84.1,2713],[84.1,2854],[84.1,2997],[84.1,3140],[84.1,3283],[96.4,3424],[97.2,3593],[97.2,3735],[97.2,3875],[97.2,4019],[97.2,4159],[97.2,4301],[97.2,4442],[97.2,4596],[97.2,4738],[97.2,4879],[97.2,5022],[97.2,5164],[97.2,5306],[97.2,5448],[97.2,5590],[97.2,5731],[97.2,5873],[97.2,6022],[97.2,6164],[97.2,6306],[97.2,6448],[97.2,6594],[97.2,6736],[97.2,6877],[94.3,7023],[94.3,7166],[94.3,7306],[94.3,7449],[94.3,7592],[94.3,7735],[94.3,7879],[94.3,8021],[94.3,8163],[94.3,8307],[94.3,8449],[94.3,8591]]",1,0,322.3644,326.5251,94.27083333,1.0533,"[{""rating"":94.27083333333333,""responseTime"":1.0532999999998083}]",space,3.2708,,326.5251,Not at all,0,326.5274,,,[],,0,5,5,5,1,audio/Narrative7Situation5.wav,audio/Narrative8Situation5.wav,audio/Narrative5Situation5.wav,audio/Narrative6Situation5.wav,5,2,5,2,,,,,,,,,,,,,,,,,,,,,,,,,,,,,,,,,,,,,,,
,,,,,,63fcf26a814570a76bcf2237,2024-05-13_11h42.16.020,group3.1-3.2-social-tom,2023.2.2,Win32,8.576623555,65c5074098b851296ff0b7ed,6642343a79c2d4133b535f37,,,,,,,,,,,,,,,,,,,,,,,,,,,,,326.5276,1,audio/Narrative8Situation6.wav,328.5941,,328.5942,335.3961,"[[90.6,2145],[90.6,2287],[90.6,2430],[90.6,2574],[90.6,2718],[90.6,2861],[91.5,3004],[100,3148],[100,3290],[100,3431],[100,3574],[100,3717],[100,3858],[100,4001],[97.9,4145],[97.9,4285],[97.9,4428],[97.9,4581],[97.9,4742],[97.9,4921],[97.9,5089],[97.9,5230],[97.9,5372],[97.9,5514],[97.9,5656],[97.9,5800],[97.9,5942],[97.9,6083],[97.9,6226],[97.9,6369],[97.9,6511],[97.9,6659],[97.9,6801]]",1,0,335.3961,338.4502,97.91666667,1.0827,"[{""rating"":97.91666666666667,""responseTime"":1.0826999999997042}]",space,2.1619,,338.4502,Not at all,0,338.4516,,,[],,0,6,6,6,1,audio/Narrative7Situation6.wav,audio/Narrative8Situation6.wav,audio/Narrative5Situation6.wav,audio/Narrative6Situation6.wav,3,2,3,2,,,,,,,,,,,,,,,,,,,,,,,,,,,,,,,,,,,,,,,
,,,,,,63fcf26a814570a76bcf2237,2024-05-13_11h42.16.020,group3.1-3.2-social-tom,2023.2.2,Win32,8.576623555,65c5074098b851296ff0b7ed,6642343a79c2d4133b535f37,,,,,,,,,,,,,,,,,,,,,,,,,,,,,338.4518,1,audio/Narrative8Situation7.wav,341.5057,,341.5058,353.8179,"[[93.5,1376],[81.3,1516],[69.9,1660],[69.9,1849],[69.9,1992],[69.9,2138],[69.9,2279],[69.9,2421],[70.5,2563],[78,2707],[78,2850],[78,2992],[82,3136],[90.1,3281],[90.1,3424],[90.1,3566],[90.1,3708],[90.1,3850],[90.1,4003],[90.1,4145],[90.1,4287],[90.1,4429],[90.1,4572],[90.1,4713],[90.1,4857],[90.1,5000],[90.1,5148],[90.1,5289],[90.1,5432],[85.7,5576],[84.9,5722],[84.9,5864],[84.9,6007],[84.9,6150],[80.5,6295],[72.6,6438],[72.6,6579],[72.6,6724],[72.6,6866],[72.6,7010],[72.6,7152],[72.6,7293],[72.6,7435],[72.6,7576],[72.6,7719],[72.6,7871],[72.6,8012],[72.6,8156],[68.3,8301],[59.9,8444],[59.9,8587],[60.5,8734],[70.4,8936],[70.4,9151],[70.4,9298],[70.4,9441],[70.4,9583],[70.4,9725],[70.4,9868],[66.4,10012],[58.6,10163],[58.6,10306],[58.6,10449],[58.6,10592],[62.3,10733],[69.5,10875],[69.5,11017],[69.5,11161],[69.5,11304],[80,11446],[87,11589],[87,11733],[87,11886],[87,12027],[87,12169],[87,12311]]",1,0,353.818,357.7204,98.02083333,2.7629,"[{""rating"":98.02083333333333,""responseTime"":2.762899999999945}]",space,3.008,,357.7205,Partially,50,357.7228,,,[],,0,7,7,7,1,audio/Narrative7Situation7.wav,audio/Narrative8Situation7.wav,audio/Narrative5Situation7.wav,audio/Narrative6Situation7.wav,5,3,4,5,,,,,,,,,,,,,,,,,,,,,,,,,,,,,,,,,,,,,,,
,,,,,,63fcf26a814570a76bcf2237,2024-05-13_11h42.16.020,group3.1-3.2-social-tom,2023.2.2,Win32,8.576623555,65c5074098b851296ff0b7ed,6642343a79c2d4133b535f37,,,,,,,,,,,,,,,,,,,,,,,,,,,,,357.7231,1,audio/Narrative8Situation8.wav,360.788,,360.788,373.9888,"[[94.8,848],[84,989],[84,1132],[84,1276],[84,1419],[84,1563],[79.6,1707],[67.7,1849],[59.3,1992],[59.3,2134],[59.3,2276],[59.3,2418],[53.2,2582],[45.3,2725],[45.3,2868],[45.3,3010],[45.3,3203],[45.3,3346],[35.6,3512],[35.6,3683],[35.6,3826],[35.6,3991],[35.6,4133],[35.6,4274],[35.6,4416],[35.6,4558],[35.6,4722],[36.3,4863],[43.1,5007],[43.1,5149],[43.1,5293],[43.1,5436],[43.1,5581],[43.1,5723],[43.1,5866],[43.1,6009],[43.1,6151],[43.1,6293],[43.1,6437],[43.1,6579],[47.1,6723],[57,6866],[57,7010],[57,7152],[57,7295],[57,7437],[57,7582],[60.7,7725],[67.8,7870],[67.8,8012],[67.8,8156],[67.8,8297],[67.8,8439],[67.8,8585],[67.8,8727],[67.8,8869],[67.8,9010],[67.8,9153],[67.8,9349],[67.8,9493],[67.8,9657],[67.8,9802],[67.8,9945],[67.8,10088],[67.8,10229],[67.8,10371],[67.8,10592],[67.8,10735],[67.8,10878],[68.5,11022],[75.2,11166],[75.2,11308],[75.2,11450],[75.2,11593],[75.2,11736],[75.2,11878],[75.2,12019],[75.2,12164],[75.2,12306],[74.6,12470],[74.6,12632],[74.6,12772],[74.6,12914],[74.6,13056],[74.6,13200]]",1,0,373.9889,378.4609,82.70833333,2.5666,"[{""rating"":83.54166666666667,""responseTime"":1.6517000000002326},{""rating"":82.70833333333334,""responseTime"":2.5666000000001077}]",space,3.5016,,378.4609,Not at all,0,378.4631,,,[],,0,8,8,8,1,audio/Narrative7Situation8.wav,audio/Narrative8Situation8.wav,audio/Narrative5Situation8.wav,audio/Narrative6Situation8.wav,2,3,3,5,,,,,,,,,,,,,,,,,,,,,,,,,,,,,,,,,,,,,,,
,,,,,,63fcf26a814570a76bcf2237,2024-05-13_11h42.16.020,group3.1-3.2-social-tom,2023.2.2,Win32,8.576623555,65c5074098b851296ff0b7ed,6642343a79c2d4133b535f37,,,,,,,,,,,,,,,,,,,,,,,,,,,,,378.4633,1,audio/Narrative8Situation9.wav,381.5394,,381.5395,393.2649,"[[77.4,1428],[86,1572],[86,1714],[86,1858],[81.9,2002],[74,2146],[74,2289],[74,2430],[74,2573],[74,2716],[74,2872],[74,3012],[74,3155],[74,3296],[74,3439],[74,3582],[74,3726],[74,3914],[74,4057],[85.7,4200],[85.7,4342],[85.7,4485],[85.7,4628],[96.4,4772],[100,4915],[100,5056],[100,5199],[100,5340],[100,5484],[100,5627],[100,5769],[100,5910],[100,6052],[100,6194],[100,6339],[100,6479],[100,6621],[100,6766],[100,6911],[100,7055],[100,7196],[100,7338],[100,7487],[100,7629],[100,7810],[100,8010],[100,8149],[100,8297],[100,8436],[100,8578],[100,8721],[100,8861],[100,9004],[100,9145],[100,9288],[100,9430],[100,9573],[100,9715],[100,9861],[100,10004],[100,10147],[100,10289],[100,10431],[100,10574],[100,10717],[100,10872],[100,11014],[100,11156],[100,11298],[100,11441],[100,11583],[100,11725]]",1,0,393.265,397.2629,96.66666667,2.7674,"[{""rating"":96.66666666666667,""responseTime"":2.7673999999999523}]",space,3.0375,,397.263,Not at all,0,397.2648,,,[],,0,9,9,9,1,audio/Narrative7Situation9.wav,audio/Narrative8Situation9.wav,audio/Narrative5Situation9.wav,audio/Narrative6Situation9.wav,2,3,3,4,,,,,,,,,,,,,,,,,,,,,,,,,,,,,,,,,,,,,,,
,,,,,,63fcf26a814570a76bcf2237,2024-05-13_11h42.16.020,group3.1-3.2-social-tom,2023.2.2,Win32,8.576623555,65c5074098b851296ff0b7ed,6642343a79c2d4133b535f37,,,,,,,,,,,,,,,,,,,,,,,,,,,,,397.265,1,audio/Narrative7Situation1.wav,399.3609,,399.3609,455.6466,"[[67.9,142],[67.9,281],[67.9,424],[67.9,565],[67.9,706],[67.9,849],[67.9,994],[67.9,1137],[67.9,1279],[63.9,1423],[55.9,1572],[55.9,1713],[55.9,1856],[55.9,2004],[55.9,2150],[55.9,2291],[55.9,2432],[55.9,2574],[55.9,2717],[52.5,2861],[52.5,3005],[52.5,3145],[52.5,3287],[56.5,3430],[63.8,3572],[63.8,3712],[63.8,3854],[63.8,4012],[63.8,4202],[73.1,4345],[73.1,4488],[73.1,4636],[73.1,4778],[73.1,4918],[73.1,5062],[73.1,5202],[73.1,5344],[73.1,5484],[73.1,5626],[73.1,5768],[73.1,5911],[73.1,6057],[73.1,6198],[73.1,6340],[73.1,6479],[73.1,6621],[73.1,6762],[73.1,6904],[73.1,7053],[73.1,7194],[73.1,7336],[73.1,7478],[73.1,7619],[68.8,7763],[61.8,7913],[61.8,8056],[61.8,8200],[61.8,8343],[57.4,8488],[49.7,8629],[49.7,8773],[53.8,8917],[60.9,9061],[60.9,9203],[60.9,9345],[56.9,9487],[43.9,9639],[35.2,9784],[35.2,9930],[35.2,10073],[35.2,10215],[35.2,10360],[38,10502],[38,10649],[38,10796],[38,10949],[41.6,11093],[48.1,11242],[48.1,11388],[48.1,11531],[48.1,11689],[48.1,11836],[52.6,11995],[52.6,12154],[52.6,12299],[52.6,12442],[52.6,12588],[47.5,12743],[39.8,12886],[39.8,13037],[39.8,13183],[39.8,13328],[39.8,13474],[40.6,13618],[48.5,13777],[48.5,13929],[48.5,14074],[48.5,14222],[48.5,14380],[40.2,14528],[40.2,14670],[40.2,14821],[40.2,14967],[40.2,15111],[40.2,15255],[40.2,15396],[40.2,15538],[40.2,15684],[40.2,15827],[53.1,15973],[64.3,16116],[64.3,16260],[64.3,16403],[68.4,16549],[76.9,16692],[76.9,16837],[76.9,16983],[76.9,17126],[76.9,17269],[76.9,17411],[76.9,17554],[73.4,17697],[73.4,17838],[73.4,17991],[69.1,18134],[61,18280],[61,18421],[61,18563],[61,18703],[61,18844],[61,18986],[61,19128],[61,19276],[70.4,19420],[70.4,19564],[70.4,19706],[70.4,19845],[70.4,19991],[70.4,20133],[71.1,20283],[71.1,20425],[71.1,20566],[71.1,20708],[71.1,20851],[71.1,21005],[71.1,21146],[71.1,21290],[74.5,21434],[75.3,21579],[75.3,21719],[75.3,21860],[75.3,22002],[75.3,22145],[75.3,22287],[75.3,22428],[75.3,22572],[75.3,22714],[75.3,22857],[75.3,23002],[75.3,23143],[71,23285],[71,23430],[71,23572],[71,23714],[71,23856],[71,23999],[71,24141],[71,24285],[59.6,24461],[59.6,24633],[59.6,24774],[59.6,24918],[59.6,25064],[59.6,25206],[59.6,25348],[59.6,25493],[59.6,25635],[59.6,25778],[59.6,25920],[59.6,26064],[59.6,26203],[59.6,26344],[59.6,26492],[59.6,26634],[59.6,26776],[62.2,26919],[68.8,27062],[68.8,27208],[68.8,27351],[68.8,27494],[68.8,27635],[68.8,27776],[68.8,27917],[68.8,28060],[68.8,28202],[56.7,28345],[56.7,28487],[56.7,28630],[55.7,28772],[48,28918],[48,29060],[48,29204],[48,29346],[48,29487],[48,29629],[48,29770],[48,29912],[43.5,30056],[42.7,30199],[42.7,30343],[42.7,30486],[42.7,30630],[42.7,30770],[42.7,30912],[42.7,31054],[42.7,31197],[42.7,31338],[42.7,31482],[42.7,31622],[42.7,31764],[42.7,31907],[51.3,32057],[51.3,32206],[51.3,32349],[51.3,32490],[51.3,32638],[51.3,32779],[51.3,32923],[60.9,33066],[61.7,33210],[61.7,33351],[61.7,33492],[61.7,33635],[61.7,33778],[61.7,33919],[61.7,34060],[61.7,34202],[61.7,34346],[61.7,34486],[61.7,34628],[61.7,34773],[61.7,34916],[61.7,35057],[61.7,35200],[61.7,35358],[61.7,35501],[61.7,35641],[61.7,35784],[61.7,35925],[61.7,36067],[58.5,36208],[50.9,36361],[50.9,36500],[50.9,36642],[50.9,36785],[50.9,36926],[40.2,37070],[40.2,37214],[40.2,37357],[40.2,37500],[40.2,37641],[40.2,37785],[40.2,37927],[40.2,38069],[40.2,38210],[40.2,38361],[40.2,38502],[40.2,38644],[40.2,38784],[40.2,38927],[40.2,39069],[40.2,39210],[40.2,39352],[40.2,39495],[40.8,39637],[48.2,39780],[48.2,39923],[48.2,40064],[48.2,40206],[48.2,40350],[50.9,40493],[50.9,40636],[50.9,40776],[50.9,40924],[50.9,41066],[50.9,41207],[50.9,41349],[50.9,41491],[50.9,41635],[58.2,41779],[58.2,41920],[58.2,42062],[58.2,42204],[58.2,42348],[62,42492],[72.8,42634],[79.8,42779],[79.8,42920],[79.8,43065],[83.8,43207],[90.3,43351],[90.3,43491],[90.3,43632],[90.3,43775],[91.3,43917],[100,44061],[100,44204],[100,44347],[100,44495],[100,44636],[92.8,44779],[92.8,44925],[92.8,45069],[92.8,45213],[92.8,45354],[92.8,45497],[92.8,45637],[92.8,45779],[92.8,45921],[92.8,46129],[92.8,46269],[92.8,46411],[92.8,46553],[92.8,46694],[92.8,46835],[92.8,46977],[92.8,47119],[92.8,47262],[92.8,47404],[92.8,47551],[92.8,47694],[92.8,47835],[92.8,47977],[92.8,48121],[92.8,48262],[92.8,48404],[92.8,48546],[92.8,48688],[92.8,48829],[92.8,48972],[92.8,49113],[92.8,49256],[92.8,49398],[92.8,49540],[92.8,49682],[92.8,49824],[92.8,50031],[92.8,50213],[92.8,50364],[92.8,50506],[92.8,50659],[92.8,50802],[92.8,50943],[92.8,51085],[92.8,51226],[92.8,51369],[92.8,51518],[92.8,51660],[92.8,51802],[92.8,51944],[92.8,52089],[92.8,52231],[92.8,52372],[92.8,52515],[93.6,52657],[100,52809],[100,52968],[100,53113],[100,53255],[100,53397],[100,53540],[100,53697],[100,53839],[100,53980],[100,54122],[100,54265],[100,54408],[100,54553],[100,54713],[100,54858],[100,55000],[100,55141],[100,55284],[97.1,55426],[97.1,55568],[97.1,55710],[98.9,55853],[98.9,55996],[98.9,56138],[98.9,56285]]",1,0,455.6467,458.8535,98.85417938,0.8581,"[{""rating"":98.85417938232422,""responseTime"":0.8581000000000927}]",space,2.2117,,458.8535,Not at all,0,458.8549,,,[],,0,10,10,10,1,audio/Narrative8Situation1.wav,audio/Narrative7Situation1.wav,audio/Narrative6Situation1.wav,audio/Narrative5Situation1.wav,5,2,2,5,,,,,,,,,,,,,,,,,,,,,,,,,,,,,,,,,,,,,,,
,,,,,,63fcf26a814570a76bcf2237,2024-05-13_11h42.16.020,group3.1-3.2-social-tom,2023.2.2,Win32,8.576623555,65c5074098b851296ff0b7ed,6642343a79c2d4133b535f37,,,,,,,,,,,,,,,,,,,,,,,,,,,,,458.8551,1,audio/Narrative7Situation2.wav,461.9356,,461.9356,469.8147,"[[95.7,1004],[84.7,1148],[84.7,1292],[84.7,1450],[84.7,1592],[84.7,1734],[84.7,1878],[84.7,2022],[85.5,2167],[85.5,2309],[85.5,2452],[85.5,2593],[85.5,2734],[85.5,2880],[85.5,3020],[85.5,3163],[85.5,3307],[92,3451],[92,3593],[92,3734],[92,3877],[92,4019],[92,4160],[92,4304],[92,4446],[92,4588],[92,4728],[92,4871],[92,5012],[92,5154],[92,5297],[92,5448],[92,5590],[92,5731],[92,5872],[92,6018],[92,6161],[92,6316],[92,6458],[92,6599],[92,6741],[92,6885],[92,7027],[92,7170],[92,7311],[92,7453],[92,7595],[92,7737],[92,7878]]",1,0,469.8148,472.7077,91.97916667,1.3707,"[{""rating"":91.97916666666667,""responseTime"":1.37070000000017}]",space,1.9786,0.0002,472.7078,Not at all,0,472.709,,,[],,0,11,11,11,1,audio/Narrative8Situation2.wav,audio/Narrative7Situation2.wav,audio/Narrative6Situation2.wav,audio/Narrative5Situation2.wav,3,3,3,3,,,,,,,,,,,,,,,,,,,,,,,,,,,,,,,,,,,,,,,
,,,,,,63fcf26a814570a76bcf2237,2024-05-13_11h42.16.020,group3.1-3.2-social-tom,2023.2.2,Win32,8.576623555,65c5074098b851296ff0b7ed,6642343a79c2d4133b535f37,,,,,,,,,,,,,,,,,,,,,,,,,,,,,472.7092,1,audio/Narrative7Situation3.wav,480.823,,480.823,490.4026,"[[88.2,993],[82.5,1136],[82.5,1279],[82.5,1419],[82.5,1564],[82.5,1708],[82.5,1849],[81.6,1993],[72.8,2136],[72.8,2279],[72.8,2421],[72.8,2578],[72.8,2756],[67.6,2911],[67.6,3055],[67.6,3198],[67.6,3341],[67.6,3511],[67.6,3709],[67.6,3851],[67.6,3994],[67.6,4137],[77.9,4281],[86.1,4425],[86.1,4566],[86.1,4707],[86.1,4849],[86.1,4991],[86.1,5133],[86.1,5276],[86.1,5421],[82,5567],[73.1,5712],[73.1,5852],[73.1,5994],[73.1,6137],[73.1,6281],[73.1,6423],[73.1,6567],[73.1,6715],[73.1,6857],[73.1,6999],[73.1,7140],[73.1,7282],[73.1,7424],[73.1,7573],[73.1,7717],[73.1,7860],[73.1,8001],[77.2,8146],[85.1,8290],[85.1,8432],[85.1,8574],[85.1,8723],[85.1,8861],[85.1,9004],[85.1,9148],[81.7,9291],[81.7,9437],[81.7,9579]]",1,0,490.4027,494.1993,73.95833333,2.1327,"[{""rating"":70.625,""responseTime"":1.0683000000002494},{""rating"":73.95833333333334,""responseTime"":2.1327000000001135}]",space,2.9061,,494.1994,Partially,50,494.2015,,,[],,0,12,12,12,1,audio/Narrative8Situation3.wav,audio/Narrative7Situation3.wav,audio/Narrative6Situation3.wav,audio/Narrative5Situation3.wav,4,8,5,3,,,,,,,,,,,,,,,,,,,,,,,,,,,,,,,,,,,,,,,
,,,,,,63fcf26a814570a76bcf2237,2024-05-13_11h42.16.020,group3.1-3.2-social-tom,2023.2.2,Win32,8.576623555,65c5074098b851296ff0b7ed,6642343a79c2d4133b535f37,,,,,,,,,,,,,,,,,,,,,,,,,,,,,494.2017,1,audio/Narrative7Situation4.wav,497.2597,,497.2597,509.4734,"[[74.9,1803],[75.6,1945],[75.6,2087],[75,2229],[62.8,2373],[54.2,2517],[54.2,2663],[54.2,2805],[54.2,2947],[54.2,3088],[54.2,3231],[54.2,3373],[54.2,3514],[54.2,3663],[54.2,3806],[54.2,3947],[54.2,4090],[51,4234],[43.8,4377],[43.8,4518],[43.8,4662],[43.8,4804],[43.8,4948],[43.8,5092],[43.8,5236],[43.8,5379],[42.8,5525],[34.1,5672],[34.1,5820],[34.1,5962],[34.1,6101],[34.1,6243],[34.1,6384],[37,6528],[49.1,6670],[59.5,6816],[59.5,6960],[59.5,7102],[59.5,7243],[59.5,7385],[58.6,7532],[47.9,7674],[47.9,7816],[47.9,7957],[47.9,8137],[43.4,8281],[35.5,8424],[35.5,8567],[35.5,8709],[35.5,8851],[35.5,8992],[35.5,9134],[35.5,9278],[35.5,9421],[35.5,9563],[35.5,9708],[35.5,9851],[35.5,9992],[35.5,10135],[35.5,10278],[35.5,10420],[35.5,10567],[35.5,10706],[35.5,10855],[35.5,10997],[35.5,11141],[35.5,11283],[35.5,11424],[35.5,11568],[35.5,11711],[35.5,11853],[35.5,11995],[35.5,12213]]",1,0,509.4736,513.1831,23.85416667,1.402,"[{""rating"":23.854166666666664,""responseTime"":1.40199999999993}]",space,2.7788,0.0002,513.1832,Partially,50,513.1847,,,[],,0,13,13,13,1,audio/Narrative8Situation4.wav,audio/Narrative7Situation4.wav,audio/Narrative6Situation4.wav,audio/Narrative5Situation4.wav,3,3,2,1,,,,,,,,,,,,,,,,,,,,,,,,,,,,,,,,,,,,,,,
,,,,,,63fcf26a814570a76bcf2237,2024-05-13_11h42.16.020,group3.1-3.2-social-tom,2023.2.2,Win32,8.576623555,65c5074098b851296ff0b7ed,6642343a79c2d4133b535f37,,,,,,,,,,,,,,,,,,,,,,,,,,,,,513.1849,1,audio/Narrative7Situation5.wav,518.3048,,518.3049,527.1267,"[[19.5,1135],[12.6,1279],[12.6,1421],[12.6,1562],[13.4,1718],[23.9,1857],[23.9,1997],[23.9,2139],[23.9,2282],[23.9,2424],[23.9,2566],[23.9,2708],[23.9,2850],[28,2996],[38.6,3141],[38.6,3284],[38.6,3425],[38.6,3568],[38.6,3710],[38.6,3853],[38.6,3994],[38.6,4136],[38.6,4277],[38.6,4426],[38.6,4567],[38.6,4716],[38.6,4867],[38.6,5066],[38.6,5247],[38.6,5389],[38.6,5534],[38.6,5678],[38.6,5820],[38.6,5962],[38.6,6104],[38.6,6246],[38.6,6386],[38.6,6531],[38.6,6674],[34.3,6818],[26.4,6964],[26.4,7107],[26.4,7249],[26.4,7391],[26.4,7533],[26.4,7675],[26.4,7821],[26.4,7965],[27.2,8106],[38.4,8249],[45.5,8393],[45.5,8536],[41.4,8678],[30.1,8821]]",1,0,527.1268,530.0043,18.64583333,1.0508,"[{""rating"":18.645833333333332,""responseTime"":1.0507999999998674}]",space,1.984,0.0002,530.0043,Partially,50,530.0057,,,[],,0,14,14,14,1,audio/Narrative8Situation5.wav,audio/Narrative7Situation5.wav,audio/Narrative6Situation5.wav,audio/Narrative5Situation5.wav,2,5,2,5,,,,,,,,,,,,,,,,,,,,,,,,,,,,,,,,,,,,,,,
,,,,,,63fcf26a814570a76bcf2237,2024-05-13_11h42.16.020,group3.1-3.2-social-tom,2023.2.2,Win32,8.576623555,65c5074098b851296ff0b7ed,6642343a79c2d4133b535f37,,,,,,,,,,,,,,,,,,,,,,,,,,,,,530.0058,1,audio/Narrative7Situation6.wav,533.0661,,533.0661,543.3578,"[[30.1,1137],[30.8,1283],[30.8,1425],[30.8,1566],[30.8,1708],[34.1,1853],[45.7,1996],[55.6,2141],[55.6,2288],[55.6,2430],[55.6,2572],[55.6,2713],[55.6,2855],[55.6,2997],[55.6,3139],[55.6,3282],[55.6,3424],[55.6,3565],[56.4,3707],[63.1,3849],[63.1,3992],[63.1,4139],[63.1,4304],[71.1,4447],[71.1,4589],[71.1,4731],[71.1,4874],[71.1,5015],[71.1,5158],[71.1,5307],[72.1,5451],[76.3,5595],[76.3,5737],[76.3,5879],[76.3,6027],[76.3,6169],[76.3,6310],[76.3,6452],[76.3,6593],[77.1,6735],[87.7,6878],[87.7,7020],[87.7,7166],[87.7,7309],[87.7,7451],[87.7,7592],[87.7,7734],[87.7,7876],[87.7,8017],[87.7,8161],[87.7,8302],[87.7,8444],[87.7,8586],[87.7,8727],[87.7,8869],[87.7,9010],[87.7,9152],[87.7,9295],[87.7,9436],[87.7,9578],[87.7,9720],[87.7,9862],[87.7,10003],[87.7,10145],[87.7,10291]]",1,0,543.3579,546.3222,87.70833333,1.1473,"[{""rating"":87.70833333333333,""responseTime"":1.147300000000314}]",space,2.0152,,546.3222,Not at all,0,546.3246,,,[],,0,15,15,15,1,audio/Narrative8Situation6.wav,audio/Narrative7Situation6.wav,audio/Narrative6Situation6.wav,audio/Narrative5Situation6.wav,2,3,2,3,,,,,,,,,,,,,,,,,,,,,,,,,,,,,,,,,,,,,,,
,,,,,,63fcf26a814570a76bcf2237,2024-05-13_11h42.16.020,group3.1-3.2-social-tom,2023.2.2,Win32,8.576623555,65c5074098b851296ff0b7ed,6642343a79c2d4133b535f37,,,,,,,,,,,,,,,,,,,,,,,,,,,,,546.3248,1,audio/Narrative7Situation7.wav,551.3793,,551.3793,568.7684,"[[85.3,898],[79.1,1042],[79.1,1182],[79.1,1326],[79.1,1467],[79.1,1608],[79.1,1750],[79.1,1893],[79.1,2034],[79.1,2176],[75,2320],[70.9,2463],[70.9,2607],[70.9,2749],[70.9,2890],[75,3036],[83.3,3179],[83.3,3321],[83.3,3464],[83.3,3606],[83.3,3748],[83.3,3892],[83.3,4040],[83.3,4181],[83.3,4323],[83.3,4465],[83.3,4607],[83.3,4748],[83.3,4890],[83.3,5033],[83.3,5175],[83.3,5317],[83.3,5471],[83.3,5610],[83.3,5750],[83.3,5893],[83.3,6035],[83.3,6177],[83.3,6319],[83.3,6463],[83.3,6605],[83.3,6746],[83.3,6893],[83.3,7044],[83.3,7186],[83.3,7328],[83.3,7471],[83.3,7626],[83.3,7769],[83.3,7918],[83.3,8060],[83.3,8203],[83.3,8344],[83.3,8489],[83.3,8630],[83.3,8773],[83.3,8915],[83.3,9057],[83.3,9199],[83.3,9342],[83.3,9483],[83.3,9625],[83.3,9766],[83.3,9909],[83.3,10053],[79.1,10196],[77.3,10346],[77.3,10489],[77.3,10630],[77.3,10773],[77.3,10915],[77.3,11060],[77.3,11201],[77.3,11343],[81.4,11492],[89.4,11644],[89.4,11786],[89.4,11930],[89.4,12071],[89.4,12214],[89.4,12354],[89.4,12494],[89.4,12642],[89.4,12781],[89.4,12923],[89.4,13085],[89.4,13229],[89.4,13370],[89.4,13514],[89.4,13658],[89.4,13798],[89.4,13953],[89.4,14095],[89.4,14236],[89.4,14378],[89.4,14520],[88.6,14665],[80,14817],[80,14960],[80,15103],[80,15248],[80,15389],[80,15533],[84.1,15675],[92.2,15818],[92.2,15961],[92.2,16108],[92.2,16250],[92.2,16391],[92.2,16532],[92.2,16677],[92.2,16820],[92.2,16963],[92.2,17105],[92.2,17247],[92.2,17388]]",1,0,568.7684,570.955,96.25001272,1.278,"[{""rating"":96.25001271565755,""responseTime"":1.27800000000002}]",space,1.2211,0.0002,570.955,Definitely yes,100,570.9572,,,[],,0,16,16,16,1,audio/Narrative8Situation7.wav,audio/Narrative7Situation7.wav,audio/Narrative6Situation7.wav,audio/Narrative5Situation7.wav,3,5,5,4,,,,,,,,,,,,,,,,,,,,,,,,,,,,,,,,,,,,,,,
,,,,,,63fcf26a814570a76bcf2237,2024-05-13_11h42.16.020,group3.1-3.2-social-tom,2023.2.2,Win32,8.576623555,65c5074098b851296ff0b7ed,6642343a79c2d4133b535f37,,,,,,,,,,,,,,,,,,,,,,,,,,,,,570.9574,1,audio/Narrative7Situation8.wav,573.0625,,573.0625,583.4399,"[[95.5,990],[85,1133],[85,1277],[85,1435],[85,1608],[85,1769],[85,1912],[85,2054],[85,2197],[85,2339],[85,2480],[85,2623],[85,2765],[85,2907],[85,3048],[85,3194],[85,3455],[85,3597],[85,3738],[85,3882],[85,4023],[85,4168],[85,4311],[85,4454],[85,4596],[85,4739],[85,4881],[85,5021],[85,5169],[85,5312],[85,5454],[85,5596],[85,5738],[85,5879],[85,6021],[85,6163],[85,6306],[85,6448],[85,6591],[85,6734],[85,6876],[85,7017],[85,7159],[85,7304],[85,7444],[85,7588],[85,7729],[85,7872],[85,8013],[85,8156],[85,8309],[85,8451],[85,8593],[85,8735],[85,8878],[85,9020],[85,9161],[85,9327],[85,9469],[85,9612],[85,9755],[85,9897],[85,10039],[85,10182],[85,10377]]",1,0,583.44,586.3386,89.375,1.3552,"[{""rating"":89.375,""responseTime"":1.3552000000001954}]",space,2.0042,,586.3387,Not at all,0,586.3407,,,[],,0,17,17,17,1,audio/Narrative8Situation8.wav,audio/Narrative7Situation8.wav,audio/Narrative6Situation8.wav,audio/Narrative5Situation8.wav,3,2,5,3,,,,,,,,,,,,,,,,,,,,,,,,,,,,,,,,,,,,,,,
,,,,,,63fcf26a814570a76bcf2237,2024-05-13_11h42.16.020,group3.1-3.2-social-tom,2023.2.2,Win32,8.576623555,65c5074098b851296ff0b7ed,6642343a79c2d4133b535f37,,,,,,,,,,,,,,,,,,,,,,,,,,,,,586.3409,1,audio/Narrative7Situation9.wav,588.4652,,588.4652,597.4025,"[[92.7,1127],[85.7,1269],[85.7,1411],[85.7,1552],[85.7,1696],[85.7,1859],[85.7,2002],[85.7,2143],[85.7,2286],[85.7,2433],[85.7,2574],[85.7,2717],[85.7,2859],[85.7,3001],[85.7,3144],[85.7,3288],[85.7,3429],[85.7,3570],[85.7,3712],[85.7,3856],[85.7,3998],[85.7,4146],[85.7,4290],[85.7,4459],[85.7,4608],[85.7,4773],[85.7,4916],[85.7,5065],[85.7,5207],[85.7,5350],[85.7,5493],[85.7,5635],[85.7,5777],[85.7,5920],[85.7,6062],[85.7,6207],[85.7,6349],[85.7,6496],[85.7,6638],[85.7,6780],[85.7,6922],[85.7,7063],[85.7,7207],[85.7,7347],[85.7,7489],[85.7,7631],[85.7,7772],[85.7,7914],[85.7,8056],[85.7,8200],[85.7,8341],[85.7,8485],[85.7,8628],[85.7,8768],[85.7,8937]]",1,0,597.4026,601.8078,91.875,2.7307,"[{""rating"":91.875,""responseTime"":2.730699999999729}]",space,3.4785,0.0002,601.8078,Definitely yes,100,601.81,,,[],,0,18,18,18,1,audio/Narrative8Situation9.wav,audio/Narrative7Situation9.wav,audio/Narrative6Situation9.wav,audio/Narrative5Situation9.wav,3,2,4,3,,,,,,,,,,,,,,,,,,,,,,,,,,,,,,,,,,,,,,,
,,,,,,63fcf26a814570a76bcf2237,2024-05-13_11h42.16.020,group3.1-3.2-social-tom,2023.2.2,Win32,8.576623555,65c5074098b851296ff0b7ed,6642343a79c2d4133b535f37,,,,,,,,,,,,,,,,,,,,,,,,,,,605.1059,607.6302,607.6379,2,audio/Narrative13Situation2.wav,607.6379,,607.638,637.7494,"[[80.9,1436],[80.9,1578],[80.9,1720],[80.9,1862],[80.9,2010],[80.9,2151],[80.9,2294],[80,2437],[67.6,2599],[67.6,2743],[67.6,2884],[67.6,3027],[63.3,3169],[51.3,3312],[51.3,3454],[51.3,3598],[51.3,3804],[48.1,3947],[41.5,4089],[41.5,4229],[41.5,4376],[41.5,4519],[41.5,4661],[41.5,4801],[41.5,4944],[41.5,5085],[41.5,5227],[41.5,5369],[37.8,5513],[29.8,5660],[29.8,5800],[29.8,5944],[29.8,6086],[29.8,6228],[29.8,6370],[29.8,6514],[29.8,6664],[29.8,6807],[32.9,6953],[41.1,7097],[41.1,7240],[41.1,7390],[40.4,7532],[28.6,7678],[28.6,7822],[32.9,7966],[45.1,8109],[57.3,8251],[65.9,8395],[65.9,8538],[65.9,8683],[70.1,8826],[79.4,8968],[79.4,9109],[79.4,9250],[79.4,9393],[79.4,9540],[80.1,9683],[86.8,9825],[86.8,9966],[86.8,10108],[86.8,10251],[86.8,10395],[86.8,10539],[86.8,10727],[86.8,10865],[86.8,11008],[86.8,11150],[86.8,11292],[86.8,11433],[86.8,11574],[86.8,11718],[86.8,11865],[86.8,12006],[86.8,12148],[86.8,12289],[86.8,12430],[86.8,12573],[86.8,12715],[86.8,12857],[86.8,12998],[86.8,13141],[86.8,13281],[86.8,13424],[86.8,13571],[86.8,13715],[86.8,13857],[86.8,14000],[86.8,14141],[86.8,14282],[86.8,14423],[86.8,14566],[86.8,14716],[87.7,14858],[95.4,15009],[95.4,15151],[95.4,15297],[95.4,15439],[95.4,15582],[95.4,15723],[95.4,15863],[92,16007],[83.2,16151],[83.2,16293],[83.2,16435],[83.2,16580],[83.2,16723],[83.2,16865],[83.2,17006],[83.2,17148],[83.2,17289],[83.2,17430],[83.2,17572],[83.2,17762],[83.2,17904],[83.2,18045],[83.2,18186],[83.2,18327],[83.2,18468],[83.2,18622],[83.2,18764],[83.2,18906],[83.2,19048],[83.2,19191],[83.2,19332],[83.2,19474],[83.2,19635],[83.2,19782],[83.2,19924],[83.2,20067],[83.2,20209],[83.2,20354],[83.2,20496],[83.2,20638],[83.2,20787],[83.2,20928],[83.2,21069],[83.2,21208],[83.2,21351],[83.2,21494],[87.2,21641],[97.7,21883],[97.7,22024],[97.7,22167],[97.7,22309],[97.1,22452],[89.4,22595],[89.4,22742],[89.4,22884],[89.4,23026],[89.4,23169],[84.8,23313],[77,23455],[77,23597],[76,23744],[64.8,23888],[64.8,24031],[64.8,24172],[64.8,24314],[64.8,24458],[64.8,24600],[55.9,24756],[55.9,24898],[55.9,25041],[55.9,25183],[55.9,25327],[55.9,25467],[55.9,25610],[55.9,25754],[55.9,25896],[55.9,26039],[55.9,26181],[55.9,26321],[55.9,26474],[55.9,26617],[55.9,26809],[55.9,26950],[55.9,27092],[55.9,27236],[55.9,27378],[55,27521],[43.8,27671],[43.8,27813],[43.8,27957],[43.8,28098],[43.8,28241],[43.8,28382],[46.9,28525],[54.6,28684],[54.6,28825],[54.6,28975],[54.6,29117],[54.6,29258],[54.6,29400],[54.6,29542],[54.6,29685],[54.6,29826],[54.6,29968],[54.6,30111]]",1,0,637.7495,637.7513,,,[],,,,637.7513,Not at all,0,637.7533,,,[],,0,0,0,0,1,audio/Narrative13Situation2.wav,audio/Narrative13Situation2.wav,audio/Narrative13Situation2.wav,audio/Narrative13Situation2.wav,2,2,2,2,,,,,601.8107,605.1057,space,2.5712,,,,,,,,,,,,,,,,,,,,,,,,,,,,,,,
,,,,,,63fcf26a814570a76bcf2237,2024-05-13_11h42.16.020,group3.1-3.2-social-tom,2023.2.2,Win32,8.576623555,65c5074098b851296ff0b7ed,6642343a79c2d4133b535f37,,,,,,,,,,,,,,,,,,,,,,,,,,,,,637.7535,2,audio/Narrative6Situation1.wav,639.8687,,639.8688,666.7798,"[[73.8,1126],[73.8,1266],[73.8,1409],[73.8,1550],[73.8,1693],[69.5,1838],[57.5,1979],[50.1,2121],[50.1,2264],[50.1,2408],[50.1,2593],[50.1,2739],[50.1,2881],[50.1,3024],[50.1,3167],[50.1,3309],[50.1,3470],[50.1,3611],[50.1,3760],[50.1,3902],[50.1,4044],[50.1,4185],[50.1,4328],[50.1,4471],[50.1,4623],[50.1,4779],[50.1,4921],[50.1,5063],[50.1,5207],[50.7,5350],[62.4,5495],[70.8,5640],[70.8,5783],[70.8,5926],[70.8,6073],[78.2,6218],[78.2,6361],[78.2,6503],[78.2,6645],[78.2,6788],[78.2,6931],[78.2,7073],[78.2,7214],[78.2,7358],[78.2,7500],[78.2,7641],[78.2,7783],[78.2,7923],[78.2,8065],[78.2,8206],[78.2,8347],[78.2,8488],[78.2,8629],[78.2,8773],[78.2,8915],[78.2,9059],[81.9,9205],[89.1,9346],[89.1,9489],[89.1,9631],[89.1,9774],[89.1,9932],[89.1,10075],[89.1,10216],[85.1,10360],[70.8,10539],[70.8,10716],[70.8,10869],[70.8,11011],[66.9,11153],[58.8,11297],[58.8,11448],[58.8,11602],[56.3,11746],[50,11890],[50,12032],[50,12183],[45,12355],[36.6,12499],[36.6,12640],[36.6,12788],[36.6,12930],[32.5,13072],[24.7,13217],[24.7,13360],[24.7,13503],[21.9,13646],[21.9,13790],[22.6,13933],[34.8,14077],[36.7,14220],[36.7,14363],[36.7,14506],[32.6,14650],[25.5,14795],[25.5,14939],[26.4,15082],[39.7,15230],[51.7,15374],[60.4,15518],[60.4,15657],[60.4,15800],[59.7,15942],[49.6,16083],[49.6,16226],[49.6,16371],[49.6,16512],[49.6,16655],[49.6,16798],[42.6,16942],[42.6,17084],[42.6,17226],[42.6,17368],[42.6,17549],[42.6,17692],[42.6,17834],[42.6,17977],[43.3,18121],[51,18271],[51,18416],[40.2,18557],[28.5,18700],[21.1,18843],[21.1,18985],[21.1,19128],[21.1,19269],[21.1,19412],[21.1,19553],[21.1,19696],[21.1,19838],[21.1,19980],[21.1,20121],[21.1,20263],[21.1,20409],[21.1,20551],[21.1,20692],[21.1,20835],[21.1,20976],[21.1,21121],[21.1,21264],[21.1,21408],[21.1,21554],[21.1,21695],[21.1,21838],[21.1,21980],[21.1,22121],[21.1,22263],[21.1,22409],[21.1,22553],[24.3,22696],[32.4,22848],[32.4,22990],[32.4,23132],[32.4,23274],[32.4,23417],[32.4,23559],[32.4,23701],[32.4,23855],[36.7,23999],[51.7,24182],[54.2,24326],[54.2,24483],[57.4,24627],[65.5,24770],[65.5,24913],[65.5,25062],[65.5,25204],[68.8,25347],[76.7,25493],[76.7,25634],[76.7,25777],[76.7,25918],[76.7,26060],[76.7,26201],[76.7,26342],[76.7,26484],[76.7,26626],[76.7,26769],[76.7,26910]]",1,0,666.7799,669.504,87.29166667,1.3619,"[{""rating"":87.29166666666667,""responseTime"":1.3618999999999915}]",space,1.8266,,669.5041,Partially,50,669.5068,,,[],,0,1,1,1,1,audio/Narrative7Situation1.wav,audio/Narrative8Situation1.wav,audio/Narrative5Situation1.wav,audio/Narrative6Situation1.wav,2,5,5,2,,,,,,,,,,,,,,,,,,,,,,,,,,,,,,,,,,,,,,,
,,,,,,63fcf26a814570a76bcf2237,2024-05-13_11h42.16.020,group3.1-3.2-social-tom,2023.2.2,Win32,8.576623555,65c5074098b851296ff0b7ed,6642343a79c2d4133b535f37,,,,,,,,,,,,,,,,,,,,,,,,,,,,,669.507,2,audio/Narrative6Situation2.wav,672.6168,,672.6169,701.4061,"[[83.8,869],[70.3,1011],[62.4,1154],[62.4,1294],[62.4,1438],[62.4,1580],[62.4,1721],[62.4,1862],[62.4,2004],[62.4,2147],[58.4,2293],[52,2436],[52,2579],[52,2723],[52,2865],[47.7,3008],[39.9,3151],[39.9,3293],[39.9,3435],[39.9,3577],[39.9,3722],[39.9,3864],[39.9,4006],[39.9,4152],[39.9,4298],[39.9,4439],[39.9,4583],[43.2,4725],[54.9,4869],[54.9,5013],[54.9,5155],[59.1,5298],[66.7,5442],[66.7,5587],[66.7,5751],[66.7,5903],[70.2,6047],[70.2,6191],[70.2,6334],[70.2,6477],[74.5,6619],[82.3,6762],[82.3,6904],[82.3,7043],[82.3,7186],[82.3,7330],[82.3,7472],[82.3,7616],[82.3,7759],[82.3,7900],[82.3,8041],[82.3,8184],[82.3,8331],[82.3,8473],[82.3,8616],[82.3,8757],[82.3,8899],[82.3,9041],[82.3,9183],[82.3,9326],[82.3,9468],[82.3,9610],[82.3,9753],[79.1,9896],[71.6,10039],[71.6,10180],[71.6,10327],[60.2,10471],[52.3,10616],[52.3,10758],[52.3,10901],[52.3,11044],[52.3,11185],[64.1,11329],[64.1,11472],[64.1,11615],[53,11757],[53,11901],[53,12043],[53,12185],[53,12329],[53,12472],[56.4,12616],[64.8,12785],[64.8,12932],[64.8,13075],[64.8,13216],[65.5,13359],[75.9,13502],[75.9,13645],[75.9,13788],[75.9,13929],[75.9,14072],[75.9,14214],[75.9,14355],[75.9,14499],[75.9,14648],[75.9,14790],[75.9,14950],[75.9,15093],[75.9,15235],[75.9,15378],[75.9,15521],[79.9,15667],[87.1,15809],[87.1,15951],[87.1,16094],[87.1,16235],[87.1,16379],[87.1,16522],[87.1,16686],[87.1,16899],[87.1,17045],[87.1,17187],[87.1,17330],[87.1,17474],[87.1,17619],[87.1,17786],[75,17935],[75,18078],[75,18220],[75,18363],[75,18508],[75,18652],[75,18795],[75,18936],[75,19078],[75,19220],[75,19361],[75,19504],[75,19649],[75,19805],[75,19959],[75,20100],[75,20240],[75,20383],[75,20524],[75,20668],[75,20864],[75,21026],[75,21167],[75,21308],[75,21450],[75,21593],[75,21738],[75,21879],[75,22021],[75,22163],[75,22306],[66.3,22448],[66.3,22599],[66.3,22744],[66.3,22885],[66.3,23028],[67,23170],[79.2,23313],[86.6,23457],[86.6,23596],[86.6,23773],[86.6,23939],[86.6,24080],[87.3,24223],[87.3,24365],[87.3,24506],[87.3,24649],[87.3,24791],[94.3,24935],[94.3,25076],[94.3,25219],[94.3,25359],[94.3,25501],[94.3,25644],[94.3,25791],[94.3,25931],[94.3,26072],[94.3,26213],[94.3,26356],[94.3,26497],[94.3,26640],[94.3,26793],[94.3,26936],[94.3,27078],[94.3,27219],[94.3,27361],[94.3,27503],[94.3,27645],[94.3,27787],[94.3,27928],[94.3,28071],[94.3,28212],[94.3,28354],[94.3,28495],[94.3,28638],[94.3,28788]]",1,0,701.4063,703.2169,94.27083333,0.8955,"[{""rating"":94.27083333333333,""responseTime"":0.89549999999997}]",space,0.9176,,703.2169,Partially,50,703.2184,,,[],,0,2,2,2,1,audio/Narrative7Situation2.wav,audio/Narrative8Situation2.wav,audio/Narrative5Situation2.wav,audio/Narrative6Situation2.wav,3,3,3,3,,,,,,,,,,,,,,,,,,,,,,,,,,,,,,,,,,,,,,,
,,,,,,63fcf26a814570a76bcf2237,2024-05-13_11h42.16.020,group3.1-3.2-social-tom,2023.2.2,Win32,8.576623555,65c5074098b851296ff0b7ed,6642343a79c2d4133b535f37,,,,,,,,,,,,,,,,,,,,,,,,,,,,,703.2185,2,audio/Narrative6Situation3.wav,708.2907,,708.2908,721.2622,"[[83.8,992],[76.5,1135],[76.5,1277],[76.5,1419],[76.5,1561],[76.5,1704],[75.7,1848],[62.2,2008],[62.2,2207],[62.2,2346],[62.2,2489],[62.2,2631],[62.2,2773],[62.2,2914],[62.2,3059],[62.2,3201],[62.2,3343],[62.2,3484],[62.2,3628],[62.2,3767],[62.2,3912],[62.2,4055],[65.5,4197],[65.5,4340],[65.5,4482],[61.5,4625],[50.3,4769],[43.1,4914],[43.1,5056],[43.1,5199],[43.1,5340],[43.1,5481],[43.1,5625],[43.1,5769],[43.1,5912],[43.1,6054],[43.1,6197],[43.1,6339],[39.9,6482],[32.5,6625],[32.5,6769],[32.5,6910],[32.5,7052],[36.9,7195],[49.1,7337],[61.3,7480],[72.6,7623],[74.4,7771],[74.4,7912],[74.4,8054],[74.4,8198],[85.7,8342],[87.5,8485],[87.5,8629],[87.5,8772],[87.5,8914],[87.5,9093],[87.5,9257],[87.5,9399],[87.5,9542],[87.5,9685],[87.5,9826],[87.5,9969],[87.5,10112],[87.5,10254],[87.5,10396],[87.5,10539],[78.8,10682],[78.8,10830],[78.8,10971],[78.8,11113],[78.8,11256],[78.8,11398],[78.8,11539],[78.8,11682],[78.8,11825],[78.8,11968],[78.8,12111],[78,12255],[65.6,12399],[58.4,12542],[58.4,12685],[59.3,12827],[72,12971]]",1,0,721.2624,724.0344,67.60416667,1.2059,"[{""rating"":67.60416666666667,""responseTime"":1.205899999999815}]",space,1.8773,0.0002,724.0345,Not at all,0,724.037,,,[],,0,3,3,3,1,audio/Narrative7Situation3.wav,audio/Narrative8Situation3.wav,audio/Narrative5Situation3.wav,audio/Narrative6Situation3.wav,8,4,3,5,,,,,,,,,,,,,,,,,,,,,,,,,,,,,,,,,,,,,,,
,,,,,,63fcf26a814570a76bcf2237,2024-05-13_11h42.16.020,group3.1-3.2-social-tom,2023.2.2,Win32,8.576623555,65c5074098b851296ff0b7ed,6642343a79c2d4133b535f37,,,,,,,,,,,,,,,,,,,,,,,,,,,,,724.0372,2,audio/Narrative6Situation4.wav,726.0896,,726.0897,739.0712,"[[64.5,848],[56.8,991],[56.8,1133],[56.8,1280],[56.8,1421],[56.8,1563],[56.8,1705],[56.8,1847],[56.8,1989],[53.3,2131],[52.8,2276],[52.8,2418],[52.8,2564],[52.8,2707],[52.8,2850],[52.8,2991],[52.8,3134],[55.5,3278],[63.6,3423],[63.6,3567],[63.6,3710],[63.6,3852],[63.6,3993],[63.6,4135],[63.6,4281],[63.6,4426],[63.6,4569],[63.6,4713],[63.6,4854],[63.6,4995],[63.6,5137],[63.6,5316],[63.6,5465],[63.6,5608],[63.6,5750],[63.6,5891],[63.6,6033],[63.6,6176],[63.6,6320],[63.6,6464],[64.4,6607],[75.9,6757],[75.9,6901],[75.9,7042],[75.9,7185],[75.9,7328],[75.9,7473],[75.9,7615],[75.9,7758],[75.1,7901],[62.9,8044],[54.1,8189],[54.1,8331],[54.1,8478],[54.1,8620],[50,8764],[41.4,8907],[41.4,9049],[41.4,9192],[41.4,9336],[41.4,9479],[41.4,9621],[41.4,9762],[41.4,9903],[41.4,10045],[41.4,10189],[41.4,10331],[41.4,10472],[41.4,10613],[41.4,10754],[41.4,10896],[41.4,11038],[42,11182],[52.4,11324],[52.4,11466],[52.4,11611],[56.4,11754],[64.3,11898],[64.3,12041],[64.3,12189],[69.7,12388],[77.3,12556],[77.3,12698],[77.3,12840],[77.3,12981]]",1,0,739.0713,741.3421,89.16666667,1.2082,"[{""rating"":89.16666666666666,""responseTime"":1.2082000000001472}]",space,1.3739,,741.3422,Partially,50,753.1915,50.3125,9.2865,"[{""rating"":55.416673024495445,""responseTime"":4.85630000000026},{""rating"":50.31250000000001,""responseTime"":9.286500000000046}]",space,0,4,4,4,1,audio/Narrative7Situation4.wav,audio/Narrative8Situation4.wav,audio/Narrative5Situation4.wav,audio/Narrative6Situation4.wav,3,3,1,2,,,10.9574,,,,,,,,,,,,,,,,,,,,,,,,,,,,,,,,,,,,
,,,,,,63fcf26a814570a76bcf2237,2024-05-13_11h42.16.020,group3.1-3.2-social-tom,2023.2.2,Win32,8.576623555,65c5074098b851296ff0b7ed,6642343a79c2d4133b535f37,,,,,,,,,,,,,,,,,,,,,,,,,,,,,753.1918,2,audio/Narrative6Situation5.wav,755.2071,,755.2072,763.6414,"[[53.5,1350],[53.5,1491],[53.5,1635],[53.5,1778],[53.5,1918],[53.5,2062],[53.5,2204],[53.5,2348],[57.5,2492],[64.4,2637],[64.4,2780],[64.4,2920],[64.4,3065],[64.4,3210],[64.4,3353],[68.5,3497],[76.8,3639],[76.8,3781],[76.8,3924],[76.8,4068],[76.8,4212],[76.8,4354],[76.8,4496],[76.8,4637],[76.8,4796],[76.8,4938],[78.4,5088],[86.5,5233],[86.5,5375],[86.5,5517],[86.5,5660],[86.5,5803],[86.5,5945],[86.5,6089],[86.5,6232],[86.5,6375],[84.4,6517],[84.4,6660],[84.4,6803],[84.4,6944],[84.4,7086],[84.4,7227],[84.4,7372],[74.4,7515],[74.4,7657],[74.4,7804],[74.4,7949],[74.4,8118],[74.4,8290],[82.4,8433]]",1,0,763.6415,766.0673,70.52083333,1.6641,"[{""rating"":78.64583333333333,""responseTime"":1.057399999999916},{""rating"":70.52083333333333,""responseTime"":1.6641000000001895}]",space,1.5282,,766.0673,Partially,50,766.0687,,,[],,0,5,5,5,1,audio/Narrative7Situation5.wav,audio/Narrative8Situation5.wav,audio/Narrative5Situation5.wav,audio/Narrative6Situation5.wav,5,2,5,2,,,,,,,,,,,,,,,,,,,,,,,,,,,,,,,,,,,,,,,
,,,,,,63fcf26a814570a76bcf2237,2024-05-13_11h42.16.020,group3.1-3.2-social-tom,2023.2.2,Win32,8.576623555,65c5074098b851296ff0b7ed,6642343a79c2d4133b535f37,,,,,,,,,,,,,,,,,,,,,,,,,,,,,766.069,2,audio/Narrative6Situation6.wav,768.1549,,768.155,779.6317,"[[63.9,2428],[63.9,2571],[63.9,2712],[63.9,2854],[63.9,2996],[63.9,3137],[67,3282],[75.4,3424],[75.4,3566],[75.4,3707],[75.4,3850],[79.7,3994],[87.3,4138],[87.3,4281],[87.3,4423],[87.3,4564],[87.3,4707],[87.3,4849],[87.3,4990],[87.3,5132],[87.3,5276],[87.3,5416],[87.3,5558],[87.3,5700],[87.3,5846],[87.3,5989],[87.3,6130],[87.3,6272],[87.3,6413],[87.3,6555],[87.3,6696],[87.3,6838],[87.3,6980],[87.3,7130],[87.3,7271],[87.3,7413],[87.3,7556],[87.3,7698],[87.3,7838],[87.3,7981],[87.3,8123],[87.3,8265],[87.3,8406],[87.3,8547],[87.3,8688],[87.3,8847],[87.3,8989],[87.3,9136],[87.3,9328],[87.3,9470],[87.3,9613],[87.3,9756],[87.3,9898],[87.3,10040],[87.3,10190],[87.3,10331],[87.3,10473],[87.3,10614],[87.3,10756],[87.3,10899],[87.3,11040],[87.3,11191],[87.3,11334],[87.3,11476]]",1,0,779.6318,782.238,95.52083333,1.084,"[{""rating"":95.52083333333333,""responseTime"":1.0839999999999463}]",space,1.7072,0.0002,782.2381,Definitely yes,100,782.2401,,,[],,0,6,6,6,1,audio/Narrative7Situation6.wav,audio/Narrative8Situation6.wav,audio/Narrative5Situation6.wav,audio/Narrative6Situation6.wav,3,2,3,2,,,,,,,,,,,,,,,,,,,,,,,,,,,,,,,,,,,,,,,
,,,,,,63fcf26a814570a76bcf2237,2024-05-13_11h42.16.020,group3.1-3.2-social-tom,2023.2.2,Win32,8.576623555,65c5074098b851296ff0b7ed,6642343a79c2d4133b535f37,,,,,,,,,,,,,,,,,,,,,,,,,,,,,782.2403,2,audio/Narrative6Situation7.wav,787.3675,,787.3676,812.5515,"[[84.4,1001],[84.4,1144],[84.4,1288],[84.4,1428],[84.4,1572],[80.1,1715],[79.2,1860],[79.2,2003],[78.2,2145],[68.5,2288],[68.5,2430],[68.5,2573],[68.5,2714],[68.5,2854],[68.5,2997],[68.5,3139],[65,3284],[65,3427],[65,3568],[65,3711],[65,3853],[65,4028],[65,4195],[65,4342],[65,4484],[65,4626],[61.6,4769],[53.1,4912],[53.1,5055],[53.1,5197],[52.2,5342],[44.5,5486],[44.5,5627],[44.5,5769],[44.5,5910],[44.5,6053],[44.5,6196],[48.8,6348],[57,6493],[57,6635],[57,6777],[57,6919],[57,7061],[57,7203],[60.9,7347],[69.1,7492],[69.1,7636],[73.2,7780],[84.7,7923],[85.4,8066],[85.4,8208],[85.4,8356],[88.4,8497],[88.4,8640],[88.4,8782],[88.4,8923],[88.4,9065],[88.4,9207],[88.4,9350],[88.4,9495],[88.4,9638],[88.4,9780],[88.4,9922],[88.4,10064],[88.4,10208],[88.4,10350],[88.4,10493],[88.4,10634],[88.4,10777],[88.4,10923],[82.7,11108],[81,11258],[81,11402],[81,11546],[77.5,11690],[77.5,11832],[77.5,11973],[77.5,12115],[77.5,12257],[77.5,12408],[77.5,12550],[77.5,12691],[77.5,12833],[77.5,12976],[88,13119],[88,13263],[88,13406],[88,13553],[88,13693],[88,13834],[88,13978],[88,14119],[88,14260],[88,14402],[88,14545],[88,14687],[88,14830],[88,14973],[88,15112],[88,15254],[88,15395],[88,15540],[88,15684],[88,15825],[88,15970],[88,16112],[88,16254],[83.8,16398],[83.8,16551],[83.8,16694],[83.8,16847],[83.8,16990],[72.5,17133],[64.7,17276],[64.7,17416],[61.4,17560],[52.7,17704],[52.7,17848],[52.7,18025],[52.7,18207],[52.7,18348],[52.7,18494],[56.3,18637],[64,18782],[64,18926],[64,19069],[64,19211],[64,19354],[64,19496],[64,19637],[64,19782],[64,19924],[64,20067],[64,20210],[64,20351],[64,20493],[67.2,20635],[73.6,20785],[73.6,20928],[73.6,21070],[73.6,21212],[72.8,21354],[65.7,21497],[65.7,21641],[65.7,21788],[65.7,21971],[58.8,22162],[51.3,22305],[51.3,22449],[51.3,22592],[51.3,22734],[46.9,22880],[39.1,23024],[39.1,23167],[39.1,23308],[39.8,23452],[51.6,23595],[58.5,23738],[58.5,23880],[58.5,24021],[58.5,24164],[58.5,24304],[58.5,24447],[58.5,24589],[62.5,24733],[68.2,24900],[68.2,25043],[68.2,25183]]",1,0,812.5516,816.8969,57.39583333,1.0588,"[{""rating"":57.395833333333336,""responseTime"":1.058799999999792}]",space,3.4506,0.0001,816.8969,Definitely yes,100,816.9052,,,[],,0,7,7,7,1,audio/Narrative7Situation7.wav,audio/Narrative8Situation7.wav,audio/Narrative5Situation7.wav,audio/Narrative6Situation7.wav,5,3,4,5,,,,,,,,,,,,,,,,,,,,,,,,,,,,,,,,,,,,,,,
,,,,,,63fcf26a814570a76bcf2237,2024-05-13_11h42.16.020,group3.1-3.2-social-tom,2023.2.2,Win32,8.576623555,65c5074098b851296ff0b7ed,6642343a79c2d4133b535f37,,,,,,,,,,,,,,,,,,,,,,,,,,,,,816.9054,2,audio/Narrative6Situation8.wav,821.9346,,821.9347,829.0867,"[[61.6,1856],[69.5,1998],[69.5,2138],[69.5,2287],[69.5,2428],[69.5,2570],[69.5,2715],[73.6,2856],[80.8,2999],[80.8,3142],[80.8,3289],[80.8,3432],[80.8,3575],[76.5,3722],[64.2,3863],[51.9,4005],[43.2,4148],[43.2,4290],[43.2,4432],[43.2,4573],[43.2,4718],[42.3,4861],[30.1,5004],[30.1,5146],[30.1,5288],[30.1,5430],[30.1,5580],[30.1,5724],[30.1,5871],[30.1,6012],[30.1,6153],[30.1,6295],[30.1,6439],[30.1,6581],[30.1,6724],[30.1,6869],[30.1,7010],[30.1,7151]]",1,0,829.0868,831.9382,16.97916667,1.2115,"[{""rating"":16.979166666666668,""responseTime"":1.211500000000001}]",space,1.9559,,831.9383,Definitely yes,100,831.9399,,,[],,0,8,8,8,1,audio/Narrative7Situation8.wav,audio/Narrative8Situation8.wav,audio/Narrative5Situation8.wav,audio/Narrative6Situation8.wav,2,3,3,5,,,,,,,,,,,,,,,,,,,,,,,,,,,,,,,,,,,,,,,
,,,,,,63fcf26a814570a76bcf2237,2024-05-13_11h42.16.020,group3.1-3.2-social-tom,2023.2.2,Win32,8.576623555,65c5074098b851296ff0b7ed,6642343a79c2d4133b535f37,,,,,,,,,,,,,,,,,,,,,,,,,,,,,831.9402,2,audio/Narrative6Situation9.wav,835.9746,,835.9746,846.2589,"[[18.5,850],[27.3,992],[27.3,1137],[27.3,1278],[27.3,1473],[27.3,1644],[27.3,1784],[27.3,1927],[27.3,2067],[27.3,2211],[27.3,2366],[27.3,2507],[27.3,2649],[27.3,2791],[27.3,2932],[27.3,3076],[27.3,3217],[27.3,3359],[27.3,3501],[27.3,3644],[27.3,3785],[24.2,3929],[24.2,4071],[24.2,4215],[24.2,4357],[24.2,4499],[24.2,4640],[24.2,4781],[24.2,4922],[24.2,5067],[24.2,5211],[24.2,5354],[24.2,5497],[24.2,5637],[24.2,5778],[24.2,5920],[24.2,6061],[24.2,6202],[24.2,6346],[24.2,6487],[24.2,6629],[24.2,6771],[24.2,6913],[24.2,7056],[24.2,7197],[24.2,7340],[24.2,7482],[24.2,7623],[24.2,7765],[24.2,7906],[24.2,8047],[24.2,8191],[24.2,8370],[24.2,8546],[24.2,8720],[24.2,8861],[24.2,9003],[24.2,9144],[24.2,9286],[24.2,9431],[24.2,9571],[24.2,9714],[24.2,9855],[24.2,9997],[24.2,10145],[24.2,10284]]",1,0,846.2591,848.9774,24.16667302,0.8965,"[{""rating"":24.166673024495445,""responseTime"":0.89650000000006}]",space,1.8238,,848.9775,Partially,50,848.9798,,,[],,0,9,9,9,1,audio/Narrative7Situation9.wav,audio/Narrative8Situation9.wav,audio/Narrative5Situation9.wav,audio/Narrative6Situation9.wav,2,3,3,4,,,,,,,,,,,,,,,,,,,,,,,,,,,,,,,,,,,,,,,
,,,,,,63fcf26a814570a76bcf2237,2024-05-13_11h42.16.020,group3.1-3.2-social-tom,2023.2.2,Win32,8.576623555,65c5074098b851296ff0b7ed,6642343a79c2d4133b535f37,,,,,,,,,,,,,,,,,,,,,,,,,,,,,848.98,2,audio/Narrative5Situation1.wav,854.0301,,854.0302,867.6335,"[[28,1133],[35.1,1277],[35.1,1424],[35.1,1566],[35.1,1708],[35.1,1849],[35.1,1992],[35.1,2133],[35.1,2276],[35.1,2419],[38.9,2563],[45.5,2709],[45.5,2852],[45.5,2993],[45.5,3134],[45.5,3277],[42.2,3420],[34,3563],[34,3708],[34,3849],[34,3991],[34,4133],[34,4376],[34,4518],[34,4658],[34,4801],[34,4942],[34,5082],[34,5224],[34,5368],[34,5511],[34,5653],[34,5800],[34,5941],[34,6083],[34,6225],[34,6368],[34,6508],[34,6649],[34,6792],[34,6934],[34,7075],[34,7217],[34,7360],[37.2,7503],[37.2,7658],[37.2,7796],[37.2,7938],[37.2,8079],[37.2,8220],[37.2,8362],[40.1,9220],[28.8,9363],[25.4,10500],[25.4,10665],[25.4,10806],[29,10950],[37.8,11095],[37.8,11240],[46.6,11469],[55.4,11612],[55.4,11754],[55.4,11896],[54.9,12039],[45.3,12181],[38.1,12326],[38.1,12467],[38.1,12609],[38.1,12749],[38.1,12890],[38.1,13033],[38.1,13175],[35.4,13319],[35.4,13460],[35.4,13603]]",1,0,867.6336,870.5892,22.70833333,1.3698,"[{""rating"":22.708333333333336,""responseTime"":1.3698000000002821}]",space,2.0487,,870.5892,Definitely yes,100,870.5913,,,[],,0,10,10,10,1,audio/Narrative8Situation1.wav,audio/Narrative7Situation1.wav,audio/Narrative6Situation1.wav,audio/Narrative5Situation1.wav,5,2,2,5,,,,,,,,,,,,,,,,,,,,,,,,,,,,,,,,,,,,,,,
,,,,,,63fcf26a814570a76bcf2237,2024-05-13_11h42.16.020,group3.1-3.2-social-tom,2023.2.2,Win32,8.576623555,65c5074098b851296ff0b7ed,6642343a79c2d4133b535f37,,,,,,,,,,,,,,,,,,,,,,,,,,,,,870.5915,2,audio/Narrative5Situation2.wav,873.693,,873.693,903.5648,"[[32.5,936],[32.5,1079],[32.5,1221],[32.5,1364],[32.5,1506],[32.5,1652],[32.5,1793],[32.5,1934],[32.5,2075],[32.5,2217],[32.5,2358],[32.5,2500],[32.5,2659],[32.5,2800],[32.5,2943],[32.5,3084],[32.5,3226],[32.5,3373],[32.5,3511],[32.5,3657],[32.5,3798],[23.9,3942],[23.9,4084],[23.9,4226],[23.9,4368],[23.9,4510],[23.9,4653],[23.9,4796],[23.9,4938],[23.9,5080],[31.8,5225],[39,5368],[39,5510],[39,5664],[39,5805],[39,5947],[39,6089],[39,6232],[39,6375],[43.1,6519],[50.5,6662],[50.5,6805],[50.5,6947],[50.5,7089],[50.5,7230],[51.3,7374],[62.1,7515],[62.1,7670],[62.1,7812],[62.1,7954],[62.1,8096],[62.1,8239],[62.1,8381],[62.1,8523],[62.1,8665],[62.1,8810],[62.1,8951],[62.1,9093],[62.1,9235],[62.1,9378],[62.1,9532],[62.1,9698],[62.1,9863],[62.1,10007],[62.1,10147],[65,10290],[65,10431],[65,10577],[65,10718],[65,10863],[65.8,11006],[73.8,11150],[73.8,11291],[73.8,11433],[73.8,11577],[73.8,11718],[73.8,11861],[73.8,12004],[73.8,12146],[73.8,12288],[73.8,12431],[73.8,12573],[73.8,12716],[73.8,12858],[73.8,13000],[73.8,13142],[73.8,13301],[73.8,13443],[73.8,13585],[73.8,13727],[73.8,13867],[73.8,14009],[73.8,14152],[73.8,14327],[73.8,14480],[73.8,14622],[73.8,14763],[73.8,14905],[73.8,15046],[73.8,15188],[73.8,15330],[73.8,15471],[73.8,15614],[73.8,15756],[73.8,15898],[69.6,16044],[60.7,16194],[60.7,16336],[60.7,16479],[60.7,16675],[60.7,16860],[60.7,17001],[64.1,17145],[72.8,17287],[72.8,17430],[72.8,17571],[72.8,17716],[72.8,17857],[72.8,17999],[72.8,18141],[72.8,18281],[72.8,18424],[72.8,18565],[72.8,18719],[72.8,18859],[72.8,19001],[72.8,19146],[72.8,19287],[72.8,19429],[72.8,19572],[72.8,19713],[72.8,19855],[72.8,19997],[72.8,20139],[72.8,20283],[72.8,20426],[72.8,20567],[72.8,20710],[72.8,20851],[72.8,20991],[72.8,21137],[72.8,21279],[72.8,21421],[72.8,21564],[72.8,21714],[72.8,21855],[72.8,21996],[72.8,22137],[72.8,22280],[72.8,22422],[72.8,22565],[72.8,22706],[72.8,22848],[72.8,22989],[72.8,23130],[72.8,23280],[72.8,23421],[72.8,23564],[72.8,23728],[72.8,23870],[72.8,24013],[72.8,24155],[72.8,24298],[72.8,24442],[72.8,24583],[72.8,24726],[72.8,24869],[72.8,25010],[72.8,25152],[68.9,25296],[62.9,25449],[62.9,25592],[62.9,25735],[62.9,25878],[62.9,26021],[62.9,26162],[63.6,26307],[71.3,26452],[71.3,26594],[71.3,26737],[71.3,26878],[71.3,27019],[71.3,27161],[71.3,27302],[71.3,27445],[71.3,27586],[71.3,27735],[71.3,27880],[71.3,28022],[71.3,28163],[71.3,28305],[71.3,28447],[71.3,28590],[71.3,28737],[71.3,28877],[71.3,29019],[71.3,29161],[71.3,29302],[71.3,29445],[71.3,29587],[71.3,29730],[71.3,29871]]",1,0,903.5649,905.7963,90.41666667,1.3104,"[{""rating"":90.41666666666667,""responseTime"":1.3103999999999587}]",space,1.2553,,905.7963,Not at all,0,905.7984,,,[],,0,11,11,11,1,audio/Narrative8Situation2.wav,audio/Narrative7Situation2.wav,audio/Narrative6Situation2.wav,audio/Narrative5Situation2.wav,3,3,3,3,,,,,,,,,,,,,,,,,,,,,,,,,,,,,,,,,,,,,,,
,,,,,,63fcf26a814570a76bcf2237,2024-05-13_11h42.16.020,group3.1-3.2-social-tom,2023.2.2,Win32,8.576623555,65c5074098b851296ff0b7ed,6642343a79c2d4133b535f37,,,,,,,,,,,,,,,,,,,,,,,,,,,,,905.7986,2,audio/Narrative5Situation3.wav,908.8427,,908.8428,923.1267,"[[78.8,991],[78.8,1133],[78.8,1275],[76.9,1424],[69.1,1567],[69.1,1707],[69.1,1853],[69.1,1992],[69.1,2133],[69.1,2275],[69.1,2419],[69.1,2612],[65.6,2753],[65.6,2896],[65.6,3038],[65.6,3179],[65.6,3321],[65.6,3471],[69.5,3615],[80.8,3757],[88,3901],[88,4044],[88,4185],[88,4328],[88,4470],[88,4612],[88,4753],[88,4900],[88,5039],[88,5181],[88,5323],[88,5472],[88,5614],[88,5755],[88,5896],[88,6039],[88,6181],[88,6323],[88,6464],[88,6606],[88,6748],[88,6891],[88,7033],[88,7175],[88,7314],[88,7463],[88,7605],[88,7749],[88,7890],[88,8035],[88,8177],[88,8319],[88,8470],[88,8613],[88,8754],[88,8897],[88,9038],[88,9180],[88,9321],[88,9502],[88,9650],[88,9791],[88,9933],[88,10076],[88,10217],[88,10359],[88,10502],[88,10646],[88,10788],[88,10931],[88,11073],[88,11216],[88,11358],[88,11502],[88,11645],[88,11788],[88,11932],[88,12102],[88,12277],[88,12428],[88,12571],[88,12717],[88,12859],[88,12998],[88,13139],[88,13280],[88,13424],[88,13567],[88,13711],[88,13853],[88,13998],[88,14141],[88,14283]]",1,0,923.1268,926.2894,93.4375,2.5488,"[{""rating"":88.02083333333333,""responseTime"":0.8953000000002476},{""rating"":93.4375,""responseTime"":1.7060000000000173},{""rating"":93.4375,""responseTime"":2.5488000000002557}]",space,2.2668,,926.2895,Definitely yes,100,926.2916,,,[],,0,12,12,12,1,audio/Narrative8Situation3.wav,audio/Narrative7Situation3.wav,audio/Narrative6Situation3.wav,audio/Narrative5Situation3.wav,4,8,5,3,,,,,,,,,,,,,,,,,,,,,,,,,,,,,,,,,,,,,,,
,,,,,,63fcf26a814570a76bcf2237,2024-05-13_11h42.16.020,group3.1-3.2-social-tom,2023.2.2,Win32,8.576623555,65c5074098b851296ff0b7ed,6642343a79c2d4133b535f37,,,,,,,,,,,,,,,,,,,,,,,,,,,,,926.2917,2,audio/Narrative5Situation4.wav,927.3962,,927.3963,948.1395,"[[92.6,1698],[80.9,1840],[80.9,2023],[80.9,2179],[77.6,2324],[69,2467],[69,2616],[69,2760],[69,2899],[69,3042],[69,3186],[64.6,3330],[56.8,3473],[56.8,3614],[56.8,3756],[56.8,3900],[56.8,4042],[56.8,4186],[56.8,4327],[56.8,4470],[56.8,4612],[56.8,4760],[56.8,4906],[46.4,5080],[46.4,5252],[46.4,5396],[46.4,5538],[46.4,5681],[46.4,5824],[46.4,5966],[46.4,6108],[46.4,6251],[46.4,6393],[46.4,6535],[46.4,6675],[46.4,6818],[46.4,6975],[46.4,7167],[46.4,7309],[55.8,7452],[55.8,7598],[55.8,7741],[55.8,7884],[55.8,8027],[55.8,8170],[55.8,8311],[55.8,8453],[55.8,8596],[55.8,8737],[55.8,8882],[55.8,9142],[55.8,9308],[55.8,9448],[52.5,9596],[44.9,9736],[44.9,9879],[44.9,10021],[44.9,10164],[55.6,10315],[64.2,10458],[64.2,10602],[64.2,10744],[64.9,10900],[76.3,11041],[76.3,11185],[76.3,11328],[76.3,11468],[76.3,11611],[76.3,11752],[76.3,11908],[76.3,12049],[76.3,12193],[76.3,12336],[76.3,12479],[76.3,12623],[76.3,12767],[76.3,12908],[76.3,13051],[76.3,13193],[76.3,13336],[76.3,13478],[76.3,13621],[76.3,13762],[76.3,13917],[76.3,14072],[76.3,14215],[76.3,14364],[76.3,14505],[76.3,14646],[76.3,14788],[76.3,14938],[76.3,15081],[76.3,15224],[76.3,15366],[76.3,15508],[76.3,15651],[76.3,15794],[76.3,15969],[77.2,16139],[87.5,16289],[87.5,16432],[87.5,16574],[87.5,16716],[87.5,16858],[87.5,17006],[84.2,17151],[84.2,17295],[84.2,17435],[84.2,17578],[84.2,17721],[84.2,17864],[84.2,18006],[84.2,18153],[84.2,18295],[84.2,18436],[84.2,18578],[84.2,18721],[84.2,18862],[84.2,19004],[84.2,19146],[84.8,19291],[96.1,19436],[96.1,19578],[96.1,19722],[96.1,19864],[91.6,20017],[84.7,20161],[84.7,20304],[84.7,20453],[84.7,20596],[92.1,20743]]",1,0,948.1396,949.9466,92.08334605,0.8979,"[{""rating"":92.08334604899089,""responseTime"":0.897899999999936}]",space,0.9173,,949.9468,Definitely yes,100,949.9485,,,[],,0,13,13,13,1,audio/Narrative8Situation4.wav,audio/Narrative7Situation4.wav,audio/Narrative6Situation4.wav,audio/Narrative5Situation4.wav,3,3,2,1,,,,,,,,,,,,,,,,,,,,,,,,,,,,,,,,,,,,,,,
,,,,,,63fcf26a814570a76bcf2237,2024-05-13_11h42.16.020,group3.1-3.2-social-tom,2023.2.2,Win32,8.576623555,65c5074098b851296ff0b7ed,6642343a79c2d4133b535f37,,,,,,,,,,,,,,,,,,,,,,,,,,,,,949.9487,2,audio/Narrative5Situation5.wav,955.0034,,955.0035,970.779,"[[91.4,1142],[83.2,1284],[83.2,1423],[83.2,1564],[83.2,1706],[83.2,1848],[83.2,1990],[83.2,2131],[83.2,2279],[83.2,2480],[83.2,2623],[83.2,2765],[83.2,2907],[83.2,3048],[83.2,3190],[83.2,3340],[83.2,3481],[83.2,3623],[83.2,3766],[83.2,3908],[83.2,4052],[83.2,4194],[83.2,4336],[83.2,4476],[83.2,4619],[83.2,4763],[83.2,4905],[83.2,5046],[83.2,5189],[83.2,5331],[83.2,5473],[83.2,5614],[83.2,5757],[83.2,5901],[83.2,6043],[83.2,6185],[83.2,6327],[83.2,6470],[83.2,6610],[83.2,6757],[83.2,6899],[83.2,7041],[83.2,7182],[83.2,7323],[83.2,7464],[83.2,7606],[83.2,7749],[83.2,7905],[83.2,8049],[83.2,8190],[83.2,8333],[83.2,8475],[83.2,8616],[83.2,8760],[83.2,8901],[83.2,9043],[83.2,9184],[83.2,9364],[83.2,9593],[83.2,9736],[83.2,9918],[83.2,10061],[83.2,10204],[83.2,10346],[83.2,10489],[83.2,10632],[83.2,10774],[83.2,10919],[83.2,11062],[83.2,11204],[83.2,11347],[83.2,11488],[83.2,11629],[83.2,11773],[83.2,11916],[83.2,12058],[82.5,12203],[82.5,12351],[82.5,12493],[82.5,12634],[82.5,12775],[82.5,12920],[82.5,13061],[82.5,13204],[82.5,13347],[82.5,13488],[82.5,13629],[82.5,13771],[82.5,13913],[82.5,14058],[82.5,14202],[82.5,14344],[82.5,14486],[82.5,14628],[82.5,14770],[82.5,14912],[82.5,15055],[82.5,15198],[82.5,15341],[79.1,15484],[70.3,15634],[70.3,15775]]",1,0,970.7791,973.9991,51.97916667,1.2285,"[{""rating"":51.979166666666664,""responseTime"":1.2285000000000537}]",space,2.3015,,973.9993,Definitely yes,100,974.0008,,,[],,0,14,14,14,1,audio/Narrative8Situation5.wav,audio/Narrative7Situation5.wav,audio/Narrative6Situation5.wav,audio/Narrative5Situation5.wav,2,5,2,5,,,,,,,,,,,,,,,,,,,,,,,,,,,,,,,,,,,,,,,
,,,,,,63fcf26a814570a76bcf2237,2024-05-13_11h42.16.020,group3.1-3.2-social-tom,2023.2.2,Win32,8.576623555,65c5074098b851296ff0b7ed,6642343a79c2d4133b535f37,,,,,,,,,,,,,,,,,,,,,,,,,,,,,974.001,2,audio/Narrative5Situation6.wav,977.0674,,977.0675,983.1548,"[[55.3,2378],[64.1,2520],[64.1,2659],[64.1,2802],[64.1,2943],[64.1,3088],[64.1,3237],[64.1,3379],[67.5,3523],[67.5,3664],[67.5,3807],[67.5,3949],[67.5,4091],[67.5,4241],[67.5,4383],[67.5,4525],[67.5,4666],[67.5,4808],[67.5,4951],[67.5,5093],[67.5,5238],[67.5,5380],[67.5,5522],[67.5,5662],[67.5,5803],[67.5,5945],[67.5,6087]]",1,0,983.155,985.6207,67.5,0.9001,"[{""rating"":67.5,""responseTime"":0.9001000000001795}]",space,1.5745,,985.6207,Partially,50,985.6228,,,[],,0,15,15,15,1,audio/Narrative8Situation6.wav,audio/Narrative7Situation6.wav,audio/Narrative6Situation6.wav,audio/Narrative5Situation6.wav,2,3,2,3,,,,,,,,,,,,,,,,,,,,,,,,,,,,,,,,,,,,,,,
,,,,,,63fcf26a814570a76bcf2237,2024-05-13_11h42.16.020,group3.1-3.2-social-tom,2023.2.2,Win32,8.576623555,65c5074098b851296ff0b7ed,6642343a79c2d4133b535f37,,,,,,,,,,,,,,,,,,,,,,,,,,,,,985.623,2,audio/Narrative5Situation7.wav,989.6516,,989.6516,1011.1076,"[[63.3,1022],[55,1164],[55,1304],[55,1447],[55,1591],[55,1751],[55,1930],[55,2075],[55,2217],[55,2359],[55,2502],[55,2643],[55,2787],[55,2928],[55,3074],[55,3213],[55,3355],[55,3496],[55,3639],[55,3787],[55,3929],[55,4073],[55,4215],[55,4410],[55,4565],[55,4710],[55,4851],[55,4994],[55,5135],[55,5278],[55,5420],[55,5561],[55,5704],[55,5848],[55,5990],[55,6137],[55,6278],[55,6421],[55,6563],[55,6778],[55,6941],[55,7085],[55,7226],[55,7369],[55,7510],[55,7650],[55,7793],[55,7936],[55,8108],[55,8252],[55,8393],[55,8560],[55,8707],[55,8863],[55,9002],[55,9144],[55,9288],[55,9436],[55,9593],[55,9735],[55,9878],[55,10019],[55,10160],[55,10302],[55,10442],[55,10599],[55,10745],[55,10886],[55,11027],[55,11169],[55,11310],[55,11451],[55,11592],[55,11733],[55,11875],[55,12017],[55,12158],[55,12300],[55,12442],[55,12584],[55,12727],[55,12869],[55,13016],[55,13157],[55,13298],[55,13458],[55,13624],[55,13810],[55,13952],[55.6,14096],[63,14246],[63,14391],[63,14534],[63,14674],[63,14816],[63,14958],[63,15100],[58.9,15244],[50.1,15391],[50.1,15530],[50.1,15675],[50.1,15816],[50.1,15959],[50.1,16101],[50.1,16243],[50.1,16386],[50.1,16528],[50.1,16670],[40,16814],[40,16957],[40,17098],[40,17240],[40,17382],[40,17527],[40,17667],[40,17809],[40,17950],[40,18105],[40,18246],[40,18387],[40,18529],[40,18672],[40,18813],[40,18956],[40,19098],[40,19245],[40,19388],[40,19534],[40,19673],[40,19813],[40,19954],[40,20096],[40,20238],[40,20380],[40,20524],[40,20703],[40,20893],[40,21032],[40,21173],[40,21313],[40,21455]]",1,0,1011.1078,1013.716,40,1.2077,"[{""rating"":40,""responseTime"":1.207700000000159}]",space,1.7031,,1013.7161,Not at all,0,1013.7185,,,[],,0,16,16,16,1,audio/Narrative8Situation7.wav,audio/Narrative7Situation7.wav,audio/Narrative6Situation7.wav,audio/Narrative5Situation7.wav,3,5,5,4,,,,,,,,,,,,,,,,,,,,,,,,,,,,,,,,,,,,,,,
,,,,,,63fcf26a814570a76bcf2237,2024-05-13_11h42.16.020,group3.1-3.2-social-tom,2023.2.2,Win32,8.576623555,65c5074098b851296ff0b7ed,6642343a79c2d4133b535f37,,,,,,,,,,,,,,,,,,,,,,,,,,,,,1013.7186,2,audio/Narrative5Situation8.wav,1016.8028,,1016.8029,1025.9475,"[[49.7,1920],[49.7,2059],[49.7,2200],[49.7,2342],[49.7,2485],[49.7,2627],[46.7,2771],[46.7,2914],[46.7,3056],[46.7,3198],[46.7,3340],[46.7,3483],[46.7,3624],[46.7,3767],[46.7,3908],[46.7,4049],[46.7,4193],[46.7,4335],[46.7,4476],[46.7,4616],[46.7,4758],[46.7,4901],[46.7,5042],[46.7,5184],[46.7,5327],[46.7,5469],[46.7,5611],[46.7,5753],[46.7,5895],[46.7,6038],[43.4,6181],[43.4,6324],[43.4,6465],[43.4,6607],[43.4,6749],[43.4,6891],[43.4,7039],[43.4,7196],[43.4,7358],[43.4,7525],[43.4,7666],[43.4,7807],[43.4,7950],[43.4,8117],[43.4,8282],[43.4,8425],[43.4,8570],[43.4,8712],[43.4,8859],[43.4,9001],[43.4,9144]]",1,0,1025.9476,1028.8158,43.43750636,1.4998,"[{""rating"":43.437506357828774,""responseTime"":1.4997999999998228}]",space,1.9812,,1028.8159,Not at all,0,1028.8175,,,[],,0,17,17,17,1,audio/Narrative8Situation8.wav,audio/Narrative7Situation8.wav,audio/Narrative6Situation8.wav,audio/Narrative5Situation8.wav,3,2,5,3,,,,,,,,,,,,,,,,,,,,,,,,,,,,,,,,,,,,,,,
,,,,,,63fcf26a814570a76bcf2237,2024-05-13_11h42.16.020,group3.1-3.2-social-tom,2023.2.2,Win32,8.576623555,65c5074098b851296ff0b7ed,6642343a79c2d4133b535f37,,,,,,,,,,,,,,,,,,,,,,,,,,,,,1028.8177,2,audio/Narrative5Situation9.wav,1031.8376,,1031.8377,1071.7509,"[[39,1005],[39,1146],[39,1289],[39,1431],[39,1573],[39,1715],[39,1856],[39,1998],[42,2141],[49.6,2285],[49.6,2433],[49.6,2575],[49.6,2717],[49.6,2859],[49.6,3004],[49.6,3146],[49.6,3287],[49.6,3436],[49.6,3577],[49.6,3720],[49.6,3871],[49.6,4014],[49.6,4155],[49.6,4298],[49.6,4441],[49,4585],[38,4729],[38,4873],[38,5016],[42.2,5158],[54.8,5303],[62.5,5447],[62.5,5590],[62.5,5733],[62.5,5875],[62.5,6017],[62.5,6159],[62.5,6302],[62.5,6450],[62.5,6642],[62.5,6785],[62.5,6926],[62.5,7069],[62.5,7212],[62.5,7354],[66.5,7497],[74.1,7642],[74.1,7785],[74.1,7925],[74.1,8067],[74.1,8207],[74.1,8349],[74.1,8491],[74.1,8633],[74.1,8774],[70,8917],[61.8,9059],[61.8,9201],[61.8,9343],[61.8,9497],[61.8,9639],[61.8,9781],[61.8,9923],[61.8,10064],[61.8,10205],[64.9,10349],[72.8,10504],[72.8,10647],[72.8,10789],[72.8,10931],[72.8,11072],[72.8,11214],[72.8,11357],[72.8,11498],[72.8,11641],[72.8,11821],[72.8,11963],[72.8,12105],[72.8,12247],[72.8,12388],[72.8,12529],[72.8,12672],[72.8,12812],[72.8,12953],[72.8,13095],[72.8,13236],[72.8,13378],[72.8,13541],[72.8,13685],[72.8,13828],[72.8,13973],[72.8,14113],[72.8,14254],[72.8,14396],[72.8,14539],[72.8,14681],[72.8,14823],[72.8,14965],[72.8,15105],[72.8,15247],[72.8,15389],[72.8,15533],[72.8,15674],[72.8,15817],[72.8,15959],[72.8,16101],[72.8,16242],[72.8,16385],[72.8,16527],[72.8,16669],[72.8,16809],[72.8,16953],[72.8,17095],[72.8,17236],[72.8,17379],[72.8,17586],[72.8,17745],[72.8,17886],[72.8,18029],[72.8,18172],[72.8,18316],[72.8,18458],[72.8,18600],[72.8,18742],[72.8,18883],[72.8,19029],[72.8,19170],[72.8,19313],[72.8,19456],[72.8,19598],[72.8,19738],[72.8,19881],[72.8,20025],[72.8,20166],[72.8,20308],[72.8,20451],[72.8,20592],[72.8,20734],[72.8,20873],[72.8,21014],[72.8,21166],[72.8,21309],[72.8,21453],[72.8,21595],[72.8,21736],[72.8,21878],[72.8,22040],[72.8,22226],[72.8,22368],[72.8,22510],[72.8,22650],[72.8,22792],[72.8,22933],[72.8,23075],[72.8,23219],[72.8,23362],[72.8,23506],[72.8,23649],[72.8,23792],[72.8,23934],[72.8,24076],[72.8,24221],[72.8,24360],[80,24548],[80.9,24699],[80.9,24841],[80.9,24982],[80.9,25125],[80.9,25267],[80.9,25409],[80.9,25551],[80.9,25694],[80.9,25834],[80.9,25977],[80.9,26126],[80.9,26270],[80.9,26413],[80.9,26555],[80.9,26695],[80.9,26837],[80.9,26979],[80.9,27121],[80.9,27263],[80.9,27405],[80.9,27547],[80.9,27688],[80.9,27830],[80.9,27971],[80.9,28111],[80.9,28254],[80.9,28397],[80.9,28539],[80.9,28683],[80.9,28825],[80.9,28966],[80.9,29109],[80.9,29249],[80.9,29392],[80.9,29534],[80.9,29677],[80.9,29819],[80.9,29960],[80.9,30102],[80.9,30244],[80.9,30386],[80.9,30535],[80.9,30677],[80.9,30818],[80.9,30959],[80.9,31101],[80.9,31242],[80.9,31383],[80.9,31545],[80.9,31745],[80.9,31886],[80.9,32029],[80.9,32172],[80.9,32316],[80.9,32466],[80.9,32609],[80.9,32751],[80.9,32892],[80.9,33032],[80.9,33174],[80.9,33316],[80.9,33456],[80.9,33599],[80.9,33740],[80.9,33902],[80.9,34044],[80.9,34188],[80.9,34329],[80.9,34472],[80.9,34615],[80.9,34757],[80.9,34897],[80.9,35038],[80.9,35180],[80.9,35321],[80.9,35465],[80.9,35607],[80.9,35748],[80.9,35891],[80.9,36033],[80.9,36174],[80.9,36316],[80.9,36459],[80.9,36603],[80.9,36749],[80.9,36888],[80.9,37030],[80.9,37173],[80.9,37315],[80.9,37458],[80.9,37600],[80.9,37741],[80.9,37883],[80.9,38024],[80.9,38166],[80.9,38310],[80.9,38458],[80.9,38634],[80.9,38779],[80.9,38921],[80.9,39062],[80.9,39204],[80.9,39345],[80.9,39486],[80.9,39629],[80.9,39770],[80.9,39913]]",1,0,1071.7511,1073.8751,80.9375,1.0468,"[{""rating"":80.9375,""responseTime"":1.0467999999998483}]",space,1.2331,,1073.8751,Definitely yes,100,1073.8773,,,[],,0,18,18,18,1,audio/Narrative8Situation9.wav,audio/Narrative7Situation9.wav,audio/Narrative6Situation9.wav,audio/Narrative5Situation9.wav,3,2,4,3,,,,,,,,,,,,,,,,,,,,,,,,,,,,,,,,,,,,,,,
,,,,,,63fcf26a814570a76bcf2237,2024-05-13_11h42.16.020,group3.1-3.2-social-tom,2023.2.2,Win32,8.576623555,65c5074098b851296ff0b7ed,6642343a79c2d4133b535f37,,,,,,,,,,,,,,,,,,,,,,,,,,,,,,,,,,,,,,,,,,,,,,,,,,,,,,,,,,,,,,,,,,,,,,,,1073.8774,1076.522,space,1.905,,1076.5225,1090.7753,space,13.8026,0.0002,,,,,,,,,,,,,,,,,,,,,,,,,
,,,,,,63fcf26a814570a76bcf2237,2024-05-13_11h42.16.020,group3.1-3.2-social-tom,2023.2.2,Win32,8.576623555,65c5074098b851296ff0b7ed,6642343a79c2d4133b535f37,,,,,,,,,,,,,,,,,,,,,,,,,,,,,1093.3524,1,audio/Narrative7Situation9.wav,1095.4396,,,,,,,1127.8914,1130.9268,70.9375,1.5146,"[{""rating"":70.9375,""responseTime"":1.5146000000002005}]",space,2.1479,,1127.8894,Not at all,0,1127.8914,,,[],,,,,,,,,,,2,2,2,2,,,,,,,,,,,,,,,1090.7873,1093.3427,1095.4399,3,1127.8893,"[[68.8,2340],[60.2,2487],[60.2,2636],[60.2,2784],[60.2,2949],[60.2,3096],[60.2,3239],[60.2,3385],[60.2,3533],[60.2,3678],[60.2,3824],[60.2,3970],[55.8,4118],[42.8,4266],[34,4415],[34,4560],[34,4706],[34,4852],[34,5000],[34,5147],[34,5294],[34,5439],[34,5586],[34,5741],[34,5886],[34,6031],[34,6178],[34,6325],[34,6472],[34,6618],[34,6764],[34,6912],[34,7058],[34,7205],[34,7352],[34,7503],[34,7649],[34,7797],[34,7942],[34,8088],[34,8235],[34,8384],[34,8532],[34,8680],[34,8837],[34,8989],[34,9137],[34,9287],[34,9438],[34,9586],[34,9733],[34,9920],[34,10115],[34,10263],[34,10411],[34,10558],[34,10705],[34,10855],[34,11001],[34,11147],[34,11294],[34,11442],[34,11588],[34,11736],[34,11888],[34,12036],[34,12182],[34,12330],[34,12482],[34,12631],[34,12777],[34,12926],[34,13072],[34,13219],[34,13365],[34,13513],[34,13662],[34,13808],[34,14052],[34,14219],[34,14364],[34,14512],[34,14659],[34,14807],[34,14957],[34,15102],[34,15248],[34,15393],[34,15539],[34,15685],[34,15832],[34,15978],[34,16125],[34,16272],[34,16417],[34,16563],[34,16711],[34,16857],[34,17025],[34,17172],[34,17319],[34,17465],[34,17612],[34,17758],[34,17903],[34,18053],[34,18199],[34,18347],[34,18491],[34,18638],[34,18787],[34,18951],[34,19140],[34,19285],[34,19432],[34,19578],[34,19724],[34,19882],[34,20029],[34,20174],[34,20321],[34,20469],[34,20614],[34,20761],[34,20933],[34,21088],[34,21234],[34,21381],[34,21527],[34,21673],[34,21821],[34,21968],[34,22115],[34,22261],[34,22408],[34,22554],[34,22701],[34,22850],[34.8,22998],[47,23152],[54.9,23300],[54.9,23446],[54.9,23593],[54.9,23741],[54.9,23898],[54.9,24044],[54.9,24192],[54.9,24337],[54.9,24484],[54.9,24631],[54.9,24776],[54.9,24922],[54.9,25068],[54.9,25216],[54.9,25362],[54.9,25509],[54.9,25656],[54.9,25810],[54.9,25965],[54.9,26112],[59.1,26260],[60.7,26407],[60.7,26552],[60.7,26702],[63.4,26850],[63.4,26997],[63.4,27145],[63.4,27297],[63.4,27440],[63.4,27589],[63.4,27738],[63.4,27901],[63.4,28056],[63.4,28199],[63.4,28344],[63.4,28491],[63.4,28639],[63.4,28785],[63.4,28932],[63.4,29079],[63.4,29224],[63.4,29370],[63.4,29515],[63.4,29663],[63.4,29811],[63.4,29956],[63.4,30101],[63.4,30248],[63.4,30397],[63.4,30545],[63.4,30692],[63.4,30837],[63.4,30990],[63.4,31136],[63.4,31279],[63.4,31426],[63.4,31571],[63.4,31717],[63.4,31861],[63.4,32005],[63.4,32150],[66.5,32297],[66.5,32448]]",0,0,0,0,1,"Larry had recently lost his family, job and home, and was now living on his own in the park. He had most of his belongings, including some clothes, a blanket, and his mother’s special necklace. His family had been very important to him and he felt as though he did not have much going for him. One of his first days in the park he came across a family that did not have much food and looked very cold. He decided to give them some of his food and his blanket.","Larry had recently lost his family, job and home, and was now living on his own in the park. He had most of his belongings, including some clothes, a blanket, and his mother’s special necklace. His family had been very important to him and he felt as though he did not have much going for him. One of his first days in the park he came across a family that did not have much food and looked very cold. He decided to give them some of his food and his blanket.","Larry had recently lost his family, job and home, and was now living on his own in the park. He had most of his belongings, including some clothes, a blanket, and his mother’s special necklace. His family had been very important to him and he felt as though he did not have much going for him. One of his first days in the park he came across a family that did not have much food and looked very cold. He decided to give them some of his food and his blanket.","Larry had recently lost his family, job and home, and was now living on his own in the park. He had most of his belongings, including some clothes, a blanket, and his mother’s special necklace. His family had been very important to him and he felt as though he did not have much going for him. One of his first days in the park he came across a family that did not have much food and looked very cold. He decided to give them some of his food and his blanket.",,,,,,,,,,
,,,,,,63fcf26a814570a76bcf2237,2024-05-13_11h42.16.020,group3.1-3.2-social-tom,2023.2.2,Win32,8.576623555,65c5074098b851296ff0b7ed,6642343a79c2d4133b535f37,,,,,,,,,,,,,,,,,,,,,,,,,,,,,1130.9274,1,audio/Narrative7Situation9.wav,1134.6963,space,,,,,,1159.0274,1162.329,28.125,1.3409,"[{""rating"":28.125,""responseTime"":1.3408999999999196}]",space,2.4138,,1159.026,Not at all,0,1159.0274,,,[],,,,,,,,,,,6,2,3,9,3.634,0.0002,,,,,,,,,,,,,,,1134.6964,3,1159.0259,"[[66.6,2742],[57.8,2888],[57.8,3033],[57.8,3178],[57.8,3325],[57.8,3469],[54.6,3617],[54.6,3762],[54.6,3907],[54.6,4053],[54.6,4197],[54.6,4342],[54.6,4486],[54.6,4631],[54.6,4776],[54.6,4920],[54.6,5065],[54.6,5212],[54.6,5356],[54.6,5500],[54.6,5646],[54.6,5792],[54.6,5936],[54.6,6081],[54.6,6226],[54.6,6373],[54.6,6517],[54.6,6663],[54.6,6807],[54.6,6955],[54.6,7098],[54.6,7244],[54.6,7387],[54.6,7532],[54.6,7685],[54.6,7830],[54.6,7975],[54.6,8119],[54.6,8263],[54.6,8407],[54.6,8552],[54.6,8698],[54.6,8843],[54.6,8988],[54.6,9133],[54.6,9279],[54.6,9437],[54.6,9586],[54.6,9806],[54.6,9949],[54.6,10093],[54.6,10237],[51.4,10385],[43.9,10535],[43.9,10678],[43.9,10821],[43.9,10964],[43.9,11108],[43.9,11250],[43.9,11394],[43.9,11538],[43.9,11682],[43.9,11826],[43.9,11974],[43.9,12118],[43.9,12261],[43.9,12406],[43.9,12551],[43.9,12713],[43.9,12855],[43.9,13000],[43.9,13144],[43.9,13288],[39.6,13433],[30.9,13577],[30.9,13721],[30.9,13865],[30.9,14009],[30.9,14154],[30.9,14299],[30.9,14444],[30.9,14589],[30.9,14733],[30.9,14877],[30.9,15022],[30.9,15165],[30.9,15309],[30.9,15454],[30.9,15603],[30.9,15748],[30.9,15892],[30.9,16036],[30.9,16180],[30.9,16325],[30.9,16469],[30.9,16634],[30.9,16793],[30.9,16939],[30.9,17085],[30.9,17228],[30.9,17372],[30.9,17516],[30.9,17660],[30.9,17805],[30.9,17950],[30.9,18094],[30.9,18237],[30.9,18381],[30.9,18528],[30.9,18683],[30.9,18828],[30.9,18972],[30.9,19117],[30.9,19260],[30.9,19403],[30.9,19550],[30.9,19695],[30.9,19839],[30.9,19982],[30.9,20126],[30.9,20270],[30.9,20413],[30.9,20559],[30.9,20704],[30.9,20848],[30.9,20992],[30.9,21135],[30.9,21279],[30.9,21422],[30.9,21565],[30.9,21710],[30.9,21853],[30.9,21998],[30.9,22142],[30.9,22288],[27,22432],[18.5,22586],[18.5,22730],[18.5,22874],[18.5,23018],[18.5,23163],[18.5,23306],[18.5,23451],[18.5,23597],[18.5,23751],[19.4,23896],[28.1,24042],[28.1,24185],[28.1,24329]]",0,1,1,1,1,"It was just another Sunday afternoon for Lucy, she was on her way to the farmer's market to pick up some produce. When she arrived at the old train depot that housed the market, she noticed two men fighting on the steps. Before she could call for help, one of the men crumpled to his knees. The other man dropped an object that appeared to be a knife and ran off. When Lucy approached the crime scene she realized that the man who had been murdered was the Mayor and that he had a gunshot wound.","One day at work, Margaret walked up to her partner, Al, to ask him to talk to the chief of staff at the local hospital where she worked as a nurse.","Luke always thought of himself as an honest man. That's why during his evening jog around the swamp, he pondered his recent affair with the receptionist at work. Luke looked up at the sky and asked God why he was so weak and unfaithful. He thought of the impact this would have on his family and told God of his conflicted feelings toward telling his wife Marta.","Linda and Amy had been best friends since kindergarten, they even found homes on the same street in the forest on the edge of town. Their biggest fight had been over who gets the bigger slice of cake, until Amy married Dan. Linda loathed Dan, she thought he was manipulative and had a violent temper. She only put up with him because Amy loved him. ",,,,,,,,,,
,,,,,,63fcf26a814570a76bcf2237,2024-05-13_11h42.16.020,group3.1-3.2-social-tom,2023.2.2,Win32,8.576623555,65c5074098b851296ff0b7ed,6642343a79c2d4133b535f37,,,,,,,,,,,,,,,,,,,,,,,,,,,,,1162.3294,1,audio/Narrative7Situation9.wav,1167.3568,,,,,,,1194.0201,1197.9575,97.91666667,2.2382,"[{""rating"":97.91666666666667,""responseTime"":2.238199999999779}]",space,3.0571,,1194.0111,Not at all,0,1194.02,,,[],,,,,,,,,,,4,5,2,2,,,,,,,,,,,,,,,,,1167.3569,3,1194.0109,"[[32.5,2430],[41.3,2585],[41.3,2727],[41.3,2871],[41.3,3018],[41.3,3162],[41.3,3307],[41.3,3451],[41.3,3597],[41.3,3742],[41.3,3887],[41.3,4033],[41.3,4178],[41.3,4323],[41.3,4469],[41.3,4615],[41.3,4759],[41.3,4904],[41.3,5049],[41.3,5202],[41.3,5346],[41.3,5492],[41.3,5637],[41.3,5783],[41.3,5928],[41.3,6073],[41.3,6218],[41.3,6361],[41.3,6507],[41.3,6662],[41.3,6819],[41.3,6999],[41.3,7143],[41.3,7285],[41.3,7430],[41.3,7579],[41.3,7725],[41.3,7868],[41.3,8011],[41.3,8153],[41.3,8298],[41.3,8442],[41.3,8587],[41.3,8731],[41.3,8875],[41.3,9059],[41.3,9204],[41.3,9348],[41.3,9493],[41.3,9638],[41.3,9781],[41.3,9925],[41.3,10068],[41.3,10212],[41.3,10358],[41.3,10502],[41.3,10649],[41.3,10793],[41.3,10938],[41.3,11084],[41.3,11229],[41.3,11373],[41.3,11520],[41.3,11665],[41.3,11811],[41.3,11963],[41.3,12109],[41.3,12254],[41.3,12399],[41.3,12544],[41.3,12690],[41.3,12834],[41.3,12980],[41.3,13134],[41.3,13281],[41.3,13425],[41.3,13570],[41.3,13717],[41.3,13865],[41.3,14016],[41.3,14156],[41.3,14300],[44.7,14449],[53.2,14602],[53.2,14748],[53.2,14894],[53.2,15041],[53.2,15185],[56.7,15333],[65,15480],[65,15625],[65,15770],[65,15921],[65,16125],[65,16269],[65,16414],[65,16556],[65,16700],[65,16850],[65,16995],[65,17141],[65,17285],[65,17430],[65,17575],[65,17722],[65,17866],[65,18011],[65,18154],[65,18298],[65,18442],[65,18585],[65,18729],[65,18874],[65,19019],[65,19162],[65,19305],[65,19449],[65,19593],[65,19737],[65,19884],[65,20029],[65,20172],[65,20316],[65,20460],[65,20605],[65,20748],[65,20895],[65,21038],[65,21184],[65,21329],[65,21473],[65,21617],[65,21762],[65,21908],[65,22054],[65,22197],[65,22341],[65,22484],[65,22629],[65,22773],[65,22922],[65,23080],[65,23225],[65,23370],[65,23513],[65,23657],[65,23805],[65,23950],[65,24091],[65,24232],[65,24374],[65,24517],[65,24659],[65,24801],[65,24947],[65,25089],[65,25230],[65,25371],[65,25513],[65,25654],[65,25797],[65,25939],[65,26086],[65,26227],[65,26369],[65,26511],[65,26653]]",0,2,2,2,1,On the ground beside him was a pen that she had mistaken for a knife. Lucy looked for the gunman and saw a suspicious man in black with distinct pointy features darting into an alley across the street. Cops who were nearby chased the man who had fled and arrested him.,"While waiting outside the chief of staff's office, Al heard nondescript shouting and yelling, there was a loud clatter in the room and then an eerie silence. An unfamiliar employee ran hastily out of the office with a terrified look on their face.","Suddenly, Luke heard a woman call out his name and when he turned around he saw Carly, his receptionist, across the road with a gun in her hand. Carly ran to him and explained how she had followed him here to confess her love. She exclaimed if Luke didn't love her back that she would kill him and his family. Carly explained that the only way they could be together is to kill Marta.","This feeling of hate between Amy and Dan was mutual, Dan didn't like how much time his wife spent with her and thought Amy was creating distance between their marriage. That's why Dan decided to try and tarnish Linda's reputation with his wife, in hopes it would get rid of her. He came home one afternoon and exclaimed that Linda had tried to kiss him. Amy was taken aback and immediately called Linda to confront her about these accusations. When Linda arrived she denied having made a move on Dan, but discovered Dan had enlisted the help of his friend Will who said he witnessed it all happen.",,,,,,,,,,
,,,,,,63fcf26a814570a76bcf2237,2024-05-13_11h42.16.020,group3.1-3.2-social-tom,2023.2.2,Win32,8.576623555,65c5074098b851296ff0b7ed,6642343a79c2d4133b535f37,,,,,,,,,,,,,,,,,,,,,,,,,,,,,1197.9579,1,audio/Narrative7Situation9.wav,1200.0308,,,,,,,1223.161,1226.6709,85.83334605,1.499,"[{""rating"":85.83334604899089,""responseTime"":1.4990000000000236}]",space,2.6281,,1223.1516,Partially,50,1223.161,,,[],,,,,,,,,,,2,2,1,4,,,,,,,,,,,,,,,,,1200.0309,3,1223.1515,"[[86.5,1000],[78.3,1145],[78.3,1290],[78.3,1433],[78.3,1577],[78.3,1721],[78.3,1866],[78.3,2010],[78.3,2154],[78.3,2310],[78.3,2455],[78.3,2599],[78.3,2745],[78.3,2890],[78.3,3033],[78.3,3177],[78.3,3321],[78.3,3464],[78.3,3611],[78.3,3756],[78.3,3913],[78.3,4061],[78.3,4236],[78.3,4427],[78.3,4570],[78.3,4714],[78.3,4858],[78.3,5001],[78.3,5145],[78.3,5294],[78.3,5438],[78.3,5583],[78.3,5728],[78.3,5873],[78.3,6017],[78.3,6162],[78.3,6307],[78.3,6450],[78.3,6594],[78.3,6738],[78.3,6882],[78.3,7029],[78.3,7172],[78.3,7316],[78.3,7460],[78.3,7605],[78.3,7749],[78.3,7893],[78.3,8037],[67,8183],[58.2,8336],[58.2,8481],[58.2,8624],[58.2,8769],[54.3,8920],[46.5,9062],[46.5,9206],[46.5,9350],[46.5,9494],[46.5,9637],[46.5,9783],[46.5,9928],[46.5,10072],[46.5,10217],[46.5,10362],[46.5,10507],[46.5,10652],[46.5,10797],[46.5,10942],[46.5,11087],[46.5,11233],[46.5,11491],[46.5,11635],[46.5,11779],[46.5,11933],[46.5,12076],[46.5,12220],[46.5,12366],[46.5,12511],[46.5,12656],[46.5,12801],[46.5,12946],[50.3,13091],[58.6,13245],[58.6,13389],[58.6,13532],[58.6,13678],[58.6,13824],[58.6,13969],[58.6,14114],[58.6,14259],[58.6,14404],[58.6,14549],[58.6,14693],[58.6,14837],[58.6,14984],[58.6,15128],[58.6,15274],[58.6,15418],[58.6,15562],[58.6,15706],[58.6,15851],[58.6,15996],[58.6,16140],[58.6,16286],[58.6,16431],[58.6,16580],[58.6,16722],[58.6,16863],[58.6,17008],[58.6,17153],[58.6,17298],[58.6,17443],[58.6,17587],[58.6,17731],[58.6,17875],[58.6,18023],[58.6,18168],[58.6,18354],[58.6,18497],[58.6,18643],[58.6,18787],[58.6,18931],[58.6,19078],[58.6,19223],[58.6,19368],[58.6,19512],[58.6,19656],[58.6,19800],[61.9,19946],[73.2,20099],[73.2,20245],[73.2,20389],[73.2,20534],[73.2,20679],[73.2,20823],[73.2,20965],[73.2,21112],[73.2,21256],[73.2,21398],[73.2,21542],[73.2,21685],[73.2,21828],[73.2,21971],[73.2,22116],[73.2,22258],[73.2,22401],[73.2,22543],[73.2,22688],[73.2,22832],[73.2,22974],[73.2,23120]]",0,3,3,3,1,"But Lucy knew the charged man was innocent, which meant the killer was free. Lucy vowed to find out who the real murderer was and to stop him at all costs.","Al explained to the chief of staff that Margaret wanted to be excused from her absences last week. The chief of staff, Susan, revealed that she wanted to fire Margaret and never see her again. Susan and Al had been having an affair and she wanted Margaret ""out of the picture"". Al was conflicted, but agreed it would be for the best.","Luke thought of his child and felt like this was his only option. He agreed to the plan and called his wife to meet him at the swamp to watch the sunset with him. When she arrived, Marta called out for her husband, but found Carly waiting for her. She immediately drew her gun and shot her in the chest, knocking her unconscious.","Since it was their word against her own, she decided to go home and admit defeat. She knew how much it would hurt Amy to know the truth.",,,,,,,,,,
,,,,,,63fcf26a814570a76bcf2237,2024-05-13_11h42.16.020,group3.1-3.2-social-tom,2023.2.2,Win32,8.576623555,65c5074098b851296ff0b7ed,6642343a79c2d4133b535f37,,,,,,,,,,,,,,,,,,,,,,,,,,,,,1226.6713,1,audio/Narrative7Situation9.wav,1227.7811,,,,,,,1250.865,1254.467,81.5625,2.0918,"[{""rating"":81.5625,""responseTime"":2.091799999999921}]",space,2.7205,0.0001,1250.8567,Partially,50,1250.865,,,[],,,,,,,,,,,1,1,3,3,,,,,,,,,,,,,,,,,1227.7812,3,1250.8566,"[[84.3,1847],[72.8,2006],[72.8,2151],[72.8,2296],[72.8,2441],[72.8,2590],[72.8,2734],[72.8,2877],[72.8,3022],[72.8,3166],[72.8,3308],[72.8,3452],[72.8,3598],[72.8,3743],[72.8,3888],[72.8,4032],[72.8,4177],[72.8,4320],[72.8,4467],[72.8,4612],[72.8,4758],[72.8,4904],[72.8,5049],[72.8,5193],[72.8,5337],[72.8,5483],[72.8,5632],[72.8,5787],[72.8,5967],[72.8,6114],[72.8,6268],[72.8,6412],[72.8,6557],[72.8,6703],[72.8,6847],[72.8,6993],[72.8,7137],[72.8,7280],[72.8,7423],[72.8,7568],[72.8,7713],[72.8,7858],[72.8,8002],[72.8,8146],[72.8,8290],[72.8,8435],[72.8,8605],[72.8,8773],[72.8,8918],[72.8,9064],[72.8,9208],[72.8,9352],[72.8,9496],[72.8,9641],[72.8,9786],[72.8,9931],[72.8,10075],[72.8,10220],[72.8,10365],[72.8,10512],[72.8,10657],[72.8,10804],[72.8,10949],[72.8,11094],[72.8,11239],[72.8,11383],[72.8,11527],[72.8,11671],[72.8,11819],[72.8,11965],[72.8,12110],[72.8,12255],[72.8,12399],[72.8,12543],[72.8,12687],[72.8,12833],[72.8,12977],[72.8,13123],[72.8,13267],[72.8,13411],[72.8,13556],[72.8,13701],[72.8,13846],[72.8,13990],[72.8,14162],[72.8,14306],[72.8,14451],[72.8,14600],[72.8,14744],[72.8,14925],[72.8,15070],[72.8,15216],[72.8,15363],[75.9,15516],[63.3,18803],[63.3,18951],[63.3,19095],[59.6,19241],[51.6,19388],[51.6,19535],[51.6,19681],[52.3,19836],[60.8,20011],[60.8,20171],[60.8,20316],[60.8,20460],[60.8,20607],[60.8,20751],[60.8,20895],[60.8,21038],[60.8,21182],[60.8,21325],[60.8,21467],[60.8,21610],[60.8,21754],[60.8,21894],[60.8,22040],[60.8,22182],[60.8,22325],[60.8,22469],[60.8,22651],[60.8,22790],[60.8,22932],[60.8,23075]]",0,4,4,4,1,"The next day the mayors successor, Mr. Smith, a man who was very unpopular due to his strong ties to the oil companies, took office. After a long day of brainstorming about the mysterious killer, Lucy decided to attend his welcome ceremony in the city. During the mayor's speech, she noticed one of the security guards looked strangely familiar. It dawned on her that this new mayor had motive to kill and that the man in black could've been the guard working for him.","Weeks passed and nobody had seen Margaret. Coworkers and friends searched the nearby city looking for her. One day on patrol in a nearby town, a police officer heard someone crying for help in the basement of a house and went in to investigate. Margaret yelled that she was being held captive and needed help.","Luke ran to Marta, and filled with regret over his decision to go along with Carly's plan, picked her up and rushed her to the hospital. The doctors tried to help Marta by taking her into emergency surgery but failed to save her life. Once the doctor called the time of death, Luke fell to his knees and sobbed over his rash decision.","Months later Dan had taken up a mistress, he was growing bored with his marriage ever since he got rid of Linda and was only still with Amy for her family's money. In a hotel room in a nearby town, Dan and his mistress, Nicole, conspired to secretly kill Amy while still obtaining her fortune.",,,,,,,,,,
