exp_question,consent.started,consent.stopped,consentResponse.keys,consentResponse.rt,consentResponse.duration,participantID,date,expName,psychopyVersion,OS,frameRate,STUDY_ID,SESSION_ID,opening1.started,opening1.stopped,keyEndingOpening1.keys,keyEndingOpening1.rt,keyEndingOpening1.duration,volumeAdjust.started,volumeAdjust.stopped,endingAdjust.keys,endingAdjust.rt,endingAdjust.duration,opening2.started,opening2.stopped,keyEndingOpening.keys,keyEndingOpening.rt,keyEndingOpening.duration,mouse.x,mouse.y,mouse.leftButton,mouse.midButton,mouse.rightButton,mouse.time,instructionLoop.thisRepN,instructionLoop.thisTrialN,instructionLoop.thisN,instructionLoop.thisIndex,instructionLoop.ran,readyForAudio.started,readyForAudio.stopped,fixation.started,run,audio_played,fixation.stopped,endPractice.keys,audioPre.started,audioPre.stopped,continuousResponses_audio,continuousSlider.response,continuousSlider.rt,intRating.started,intRating.stopped,intQuestionSlider.response,intQuestionSlider.rt,intQuestionSlider.history,confirmResponse.keys,confirmResponse.rt,confirmResponse.duration,catchQuestion.started,catch_label,catch_value,catchQuestion.stopped,catchQuestionSlider.response,catchQuestionSlider.rt,catchQuestionSlider.history,confirmResponse_2.keys,audioRunLoop.thisRepN,audioRunLoop.thisTrialN,audioRunLoop.thisN,audioRunLoop.thisIndex,audioRunLoop.ran,conditions1_1,conditions2_1,conditions1_2,conditions2_2,dur1_1,dur2_1,dur1_2,dur2_2,endPractice.rt,endPractice.duration,confirmResponse_2.rt,confirmResponse_2.duration,runIntervalBreak.started,runIntervalBreak.stopped,endingBreakKey.keys,endingBreakKey.rt,endingBreakKey.duration,connection.started,connection.stopped,connectionEnding.keys,connectionEnding.rt,connectionEnding.duration,readyForText.started,readyForText.stopped,textPre.started,run_dup,textPre.stopped,continuousResponses_text,textRunLoop.thisRepN,textRunLoop.thisTrialN,textRunLoop.thisN,textRunLoop.thisIndex,textRunLoop.ran,text1_1,text1_2,text2_1,text2_2,runBreakText.started,runBreakText.stopped,endingBreakKey_2.keys,endingBreakKey_2.rt,endingBreakKey_2.duration,ending.started,ending.stopped,endingEnding.keys,endingEnding.rt,endingEnding.duration
tom,0.0005,8.8758,y,8.5176,,6410e0ba81f88046afa861ca,2024-02-08_16h05.23.020,group3.1-3.2-social-tom,2023.2.2,Win32,29.94011976,65c5074098b851296ff0b7ed,65c5417075e1c9f5133794a3,,,,,,,,,,,,,,,,,,,,,,,,,,,,,,,,,,,,,,,,,,,,,,,,,,,,,,,,,,,,,,,,,,,,,,,,,,,,,,,,,,,,,,,,,,,,,,,,,,,,,,,,,,
,,,,,,6410e0ba81f88046afa861ca,2024-02-08_16h05.23.020,group3.1-3.2-social-tom,2023.2.2,Win32,29.94011976,65c5074098b851296ff0b7ed,65c5417075e1c9f5133794a3,8.8762,20.932,space,11.9876,,,,,,,,,,,,,,,,,,,,,,,,,,,,,,,,,,,,,,,,,,,,,,,,,,,,,,,,,,,,,,,,,,,,,,,,,,,,,,,,,,,,,,,,,,,,,,,,,,,,,,
,,,,,,6410e0ba81f88046afa861ca,2024-02-08_16h05.23.020,group3.1-3.2-social-tom,2023.2.2,Win32,29.94011976,65c5074098b851296ff0b7ed,65c5417075e1c9f5133794a3,,,,,,20.9322,40.3651,space,19.0897,,,,,,,,,,,,,,,,,,,,,,,,,,,,,,,,,,,,,,,,,,,,,,,,,,,,,,,,,,,,,,,,,,,,,,,,,,,,,,,,,,,,,,,,,,,,,,,,,
,,,,,,6410e0ba81f88046afa861ca,2024-02-08_16h05.23.020,group3.1-3.2-social-tom,2023.2.2,Win32,29.94011976,65c5074098b851296ff0b7ed,65c5417075e1c9f5133794a3,,,,,,,,,,,40.3841,54.2484,space,13.835,,[],[],[],[],[],[],0,0,0,0,1,,,,,,,,,,,,,,,,,,,,,,,,,,,,,,,,,,,,,,,,,,,,,,,,,,,,,,,,,,,,,,,,,,,,,,,,,,,,,,,,
,,,,,,6410e0ba81f88046afa861ca,2024-02-08_16h05.23.020,group3.1-3.2-social-tom,2023.2.2,Win32,29.94011976,65c5074098b851296ff0b7ed,65c5417075e1c9f5133794a3,,,,,,,,,,,54.2602,68.281,space,13.8759,,[],[],[],[],[],[],1,0,1,0,1,,,,,,,,,,,,,,,,,,,,,,,,,,,,,,,,,,,,,,,,,,,,,,,,,,,,,,,,,,,,,,,,,,,,,,,,,,,,,,,,
,,,,,,6410e0ba81f88046afa861ca,2024-02-08_16h05.23.020,group3.1-3.2-social-tom,2023.2.2,Win32,29.94011976,65c5074098b851296ff0b7ed,65c5417075e1c9f5133794a3,,,,,,,,,,,68.2922,91.7978,p,23.4482,,[],[],[],[],[],[],2,0,2,0,1,,,,,,,,,,,,,,,,,,,,,,,,,,,,,,,,,,,,,,,,,,,,,,,,,,,,,,,,,,,,,,,,,,,,,,,,,,,,,,,,
,,,,,,6410e0ba81f88046afa861ca,2024-02-08_16h05.23.020,group3.1-3.2-social-tom,2023.2.2,Win32,29.94011976,65c5074098b851296ff0b7ed,65c5417075e1c9f5133794a3,,,,,,,,,,,91.8094,119.2656,space,27.4099,,[],[],[],[],[],[],3,0,3,0,1,,,,,,,,,,,,,,,,,,,,,,,,,,,,,,,,,,,,,,,,,,,,,,,,,,,,,,,,,,,,,,,,,,,,,,,,,,,,,,,,
,,,,,,6410e0ba81f88046afa861ca,2024-02-08_16h05.23.020,group3.1-3.2-social-tom,2023.2.2,Win32,29.94011976,65c5074098b851296ff0b7ed,65c5417075e1c9f5133794a3,,,,,,,,,,,119.2778,163.2001,space,43.8741,,[],[],[],[],[],[],4,0,4,0,1,,,,,,,,,,,,,,,,,,,,,,,,,,,,,,,,,,,,,,,,,,,,,,,,,,,,,,,,,,,,,,,,,,,,,,,,,,,,,,,,
,,,,,,6410e0ba81f88046afa861ca,2024-02-08_16h05.23.020,group3.1-3.2-social-tom,2023.2.2,Win32,29.94011976,65c5074098b851296ff0b7ed,65c5417075e1c9f5133794a3,,,,,,,,,,,163.2114,188.201,space,24.9615,,[],[],[],[],[],[],5,0,5,0,1,,,,,,,,,,,,,,,,,,,,,,,,,,,,,,,,,,,,,,,,,,,,,,,,,,,,,,,,,,,,,,,,,,,,,,,,,,,,,,,,
,,,,,,6410e0ba81f88046afa861ca,2024-02-08_16h05.23.020,group3.1-3.2-social-tom,2023.2.2,Win32,29.94011976,65c5074098b851296ff0b7ed,65c5417075e1c9f5133794a3,,,,,,,,,,,188.2123,213.4345,space,25.2015,,[],[],[],[],[],[],6,0,6,0,1,,,,,,,,,,,,,,,,,,,,,,,,,,,,,,,,,,,,,,,,,,,,,,,,,,,,,,,,,,,,,,,,,,,,,,,,,,,,,,,,
,,,,,,6410e0ba81f88046afa861ca,2024-02-08_16h05.23.020,group3.1-3.2-social-tom,2023.2.2,Win32,29.94011976,65c5074098b851296ff0b7ed,65c5417075e1c9f5133794a3,,,,,,,,,,,,,,,,,,,,,,,,,,,213.4484,216.0184,216.0466,1,audio/Narrative13Situation2.wav,218.0518,,218.0521,247.803,"[[999,1],[999,82],[999,115],[999,148],[999,181],[999,215],[999,248],[999,281],[999,315],[999,348],[999,381],[999,415],[999,448],[999,481],[999,515],[999,548],[999,582],[999,615],[999,648],[999,682],[999,715],[999,748],[999,781],[999,815],[999,848],[999,881],[999,916],[999,948],[999,983],[999,1015],[999,1049],[999,1082],[999,1115],[999,1148],[999,1182],[999,1215],[999,1249],[999,1282],[999,1315],[999,1348],[999,1382],[999,1416],[999,1449],[999,1482],[999,1515],[999,1549],[999,1582],[999,1616],[999,1649],[999,1682],[999,1716],[53.2,1750],[53.4,1785],[53.4,1817],[53.4,1849],[53.4,1882],[53.4,1916],[53.4,1948],[53.3,1982],[53.2,2016],[52.9,2051],[52.5,2082],[52.3,2116],[52,2150],[51.9,2182],[51.8,2215],[51.8,2249],[51.8,2282],[51.8,2315],[51.8,2349],[51.8,2383],[51.9,2416],[52.1,2449],[52.1,2482],[52.1,2516],[50.7,5483],[50.4,5516],[50.2,5550],[50.1,5583],[50.1,5617],[50.1,5649],[50.1,5682],[50.1,5715],[49.9,5750],[49.9,5783],[49.9,5816],[49.9,5849],[49.9,5882],[49.9,5915],[49.9,5949],[49.9,5983],[49.9,6015],[49.9,6049],[49.9,6082],[49.9,6116],[49.9,6148],[49.9,6182],[49.9,6215],[49.9,6249],[49.9,6282],[49.9,6316],[49.9,6349],[49.9,6383],[49.9,6415],[49.9,6448],[49.9,6482],[49.9,6515],[49.9,6549],[49.9,6583],[49.9,6616],[49.9,6649],[49.9,6682],[49.9,6715],[49.9,6749],[49.9,6782],[49.9,6815],[49.9,6850],[49.9,6883],[49.9,6916],[49.9,6949],[49.9,6982],[49.9,7015],[49.9,7049],[49.9,7082],[49.9,7116],[49.9,7149],[49.9,7183],[49.9,7216],[49.9,7249],[49.9,7282],[49.9,7315],[49.9,7349],[49.9,7382],[49.9,7416],[49.9,7449],[49.9,7483],[49.9,7516],[49.9,7549],[49.9,7582],[49.9,7616],[49.9,7649],[49.9,7683],[49.9,7716],[49.9,7749],[49.9,7782],[49.9,7815],[49.9,7849],[49.9,7882],[49.9,7915],[49.9,7949],[49.9,7982],[49.9,8016],[49.9,8049],[49.9,8082],[49.9,8117],[49.9,8149],[49.9,8182],[49.9,8216],[49.9,8249],[49.9,8282],[49.9,8315],[49.9,8349],[49.9,8382],[49.9,8416],[49.9,8450],[49.9,8483],[49.9,8516],[49.9,8549],[49.9,8582],[49.9,8615],[49.9,8649],[49.9,8682],[49.9,8716],[49.9,8749],[49.9,8782],[49.9,8816],[49.9,8849],[49.9,8882],[49.9,8915],[49.9,8949],[49.9,8982],[49.9,9015],[49.9,9049],[49.9,9083],[49.9,9115],[49.9,9149],[49.9,9182],[49.9,9217],[49.9,9249],[49.9,9282],[49.9,9316],[49.9,9349],[49.9,9382],[49.9,9415],[49.9,9450],[49.9,9482],[49.9,9515],[49.9,9548],[49.9,9582],[49.9,9616],[49.9,9649],[49.9,9682],[49.9,9715],[49.9,9749],[49.9,9783],[49.9,9816],[49.9,9849],[49.9,9882],[49.9,9915],[49.9,9949],[49.9,9982],[49.9,10015],[49.9,10049],[49.9,10082],[49.9,10116],[49.9,10150],[48.9,10184],[44.6,10216],[41.1,10249],[39.6,10283],[38.9,10316],[38.3,10349],[38.1,10383],[38.1,10415],[37.9,10449],[37.9,10482],[37.9,10516],[37.9,10550],[37.9,10583],[37.9,10616],[37.9,10649],[37.9,10683],[37.9,10715],[37.9,10749],[37.9,10782],[33.4,10816],[26.3,10850],[24.1,10882],[22.5,10916],[22,10950],[21.8,10985],[21.7,11016],[21.7,11049],[21.7,11082],[21.7,11116],[21.7,11149],[21.7,11183],[21.7,11216],[21.7,11249],[21.4,11283],[18.9,11316],[16.5,11349],[15.4,11383],[14.9,11417],[14.7,11450],[14.5,11482],[14.5,11515],[14.5,11549],[14.5,11582],[14.5,11616],[14.5,11649],[14.5,11683],[14.5,11716],[14.5,11749],[14.5,11782],[14.5,11816],[14.5,11849],[14.6,11883],[14.9,11916],[15.6,11950],[16.3,11988],[18.5,12017],[21,12050],[24.3,12085],[27.4,12116],[28.5,12149],[29.1,12182],[29.2,12215],[29.4,12249],[29.4,12282],[29.3,12315],[28.7,12350],[28.3,12383],[27.9,12416],[27.7,12449],[28,12482],[30.6,12516],[33.5,12550],[35.4,12582],[36.5,12616],[36.8,12650],[36.8,12682],[36.8,12715],[36.8,12749],[36.8,12782],[36.8,12816],[36.8,12848],[36.8,12882],[36.8,12915],[36.8,12949],[36.8,12982],[37,13015],[37,13048],[37,13082],[37,13115],[37,13149],[37,13182],[44.4,13216],[45.2,13249],[45.8,13283],[46.6,13316],[47.2,13351],[47.9,13383],[48.8,13416],[49.7,13449],[50.6,13482],[51.4,13515],[51.8,13549],[52,13582],[52.1,13615],[52.1,13648],[52.1,13682],[52.1,13715],[52.1,13749],[52.1,13782],[51.8,13815],[51.6,13849],[51.3,13883],[51,13915],[50.9,13949],[50.8,13982],[50.8,14015],[50.8,14048],[50.8,14082],[50.8,14115],[50.8,14149],[50.8,14182],[50.8,14215],[50.8,14249],[50.8,14282],[50.8,14315],[50.8,14348],[50.8,14382],[50.8,14415],[50.8,14449],[50.8,14482],[50.8,14516],[50.8,14548],[50.8,14582],[50.8,14616],[50.8,14649],[50.8,14683],[50.8,14715],[50.8,14748],[50.8,14783],[50.8,14815],[50.8,14849],[50.8,14882],[50.8,14915],[50.8,14949],[50.8,14982],[50.8,15015],[50.8,15048],[50.8,15082],[50.8,15116],[50.8,15149],[50.8,15182],[50.8,15215],[50.8,15249],[50.8,15282],[50.8,15316],[50.8,15348],[50.8,15383],[50.8,15415],[50.8,15449],[50.8,15482],[50.8,15515],[50.8,15549],[50.8,15582],[50.8,15616],[50.8,15648],[50.8,15682],[50.8,15716],[50.8,15749],[50.8,15782],[50.8,15816],[50.8,15849],[50.8,15882],[50.8,15915],[50.8,15949],[50.8,15983],[50.8,16015],[50.8,16048],[50.8,16082],[50.8,16115],[50.8,16149],[50.8,16182],[50.8,16216],[50.8,16249],[50.8,16282],[50.8,16316],[50.8,16349],[50.8,16382],[50.8,16415],[50.8,16448],[50.8,16482],[50.8,16515],[50.8,16549],[50.8,16582],[50.8,16616],[50.8,16649],[50.8,16682],[50.8,16715],[50.8,16748],[50.8,16782],[50.8,16816],[50.8,16849],[50.8,16882],[50.8,16916],[50.8,16948],[50.8,16983],[50.8,17015],[50.8,17049],[50.8,17082],[50.8,17115],[50.8,17149],[50.8,17182],[50.8,17216],[50.8,17249],[50.8,17282],[50.8,17316],[50.8,17349],[50.8,17382],[50.8,17416],[50.8,17448],[50.8,17483],[50.8,17515],[50.8,17549],[50.8,17582],[50.8,17616],[50.8,17649],[50.8,17682],[50.8,17715],[50.8,17749],[50.8,17782],[50.8,17815],[50.8,17848],[50.8,17883],[50.8,17915],[50.8,17948],[50.8,17982],[50.8,18015],[50.8,18049],[50.8,18082],[50.8,18116],[50.8,18149],[50.8,18182],[50.8,18215],[50.8,18249],[50.8,18282],[50.8,18316],[50.8,18349],[50.8,18382],[50.8,18416],[50.8,18449],[50.8,18482],[50.8,18515],[50.8,18549],[50.8,18582],[50.8,18615],[50.8,18649],[50.8,18682],[50.8,18715],[50.8,18749],[50.8,18782],[50.8,18815],[50.8,18849],[50.8,18882],[50.8,18915],[50.8,18949],[50.8,18982],[50.8,19016],[50.8,19049],[50.8,19083],[50.8,19115],[50.8,19150],[50.8,19183],[50.8,19215],[50.8,19249],[50.8,19282],[50.8,19315],[50.8,19349],[50.8,19382],[50.8,19416],[50.8,19449],[50.8,19482],[50.8,19515],[50.8,19549],[50.8,19583],[50.8,19615],[50.8,19649],[50.8,19682],[50.8,19715],[50.8,19749],[50.8,19782],[50.8,19815],[50.8,19849],[50.8,19883],[50.8,19916],[50.8,19949],[50.8,19982],[50.8,20015],[50.8,20049],[50.8,20082],[50.8,20115],[50.8,20149],[50.8,20182],[50.8,20216],[50.8,20249],[50.8,20282],[50.8,20315],[50.8,20349],[50.8,20382],[50.8,20415],[50.8,20449],[50.8,20482],[50.8,20515],[50.8,20549],[50.8,20582],[51.1,20616],[51.3,20649],[51.4,20682],[51.5,21216],[51.4,21250],[51.3,21286],[50.9,21316],[50.8,21349],[50.8,21383],[50.8,21416],[50.8,21451],[50.8,21482],[50.8,21515],[50.8,21549],[50.8,21583],[50.8,21616],[50.8,21649],[50.8,21682],[50.8,21715],[50.8,21749],[50.8,21782],[50.8,21815],[50.8,21849],[50.8,21882],[50.8,21915],[50.8,21949],[50.8,21983],[50.7,22015],[50.7,22049],[50.7,22082],[50.7,22116],[50.7,22149],[50.7,22182],[50.7,22215],[50.7,22249],[50.7,22282],[50.7,22315],[50.7,22349],[50.7,22382],[50.7,22415],[50.7,22449],[50.7,22482],[50.7,22516],[50.7,22549],[50.7,22582],[50.7,22615],[50.7,22649],[50.7,22683],[50.7,22715],[50.7,22749],[50.7,22782],[50.7,22815],[50.7,22849],[50.7,22882],[50.7,22917],[50.7,22949],[50.7,22982],[50.7,23015],[50.7,23049],[50.7,23082],[50.7,23115],[50.7,23149],[50.7,23183],[50.7,23216],[50.7,23249],[50.7,23282],[50.7,23315],[50.7,23349],[50.7,23382],[50.7,23415],[50.7,23449],[50.7,23482],[50.7,23516],[50.7,23549],[50.7,23582],[50.7,23615],[50.7,23649],[50.7,23682],[50.7,23715],[50.6,23749],[50.6,23782],[50.6,23815],[50.6,23849],[50.6,23882],[50.6,23916],[50.6,23949],[50.6,23982],[50.6,24016],[50.6,24049],[50.6,24082],[50.6,24115],[50.6,24149],[50.6,24182],[50.6,24215],[50.6,24249],[50.6,24282],[50.6,24316],[50.6,24349],[50.6,24383],[50.6,24415],[50.6,24449],[50.6,24482],[50.6,24516],[50.6,24549],[50.6,24582],[50.6,24615],[50.6,24649],[50.6,24682],[50.6,24715],[50.6,24749],[50.6,24782],[50.6,24816],[50.6,24849],[50.6,24882],[50.6,24915],[50.6,24949],[50.6,24982],[50.6,25015],[50.6,25049],[50.6,25082],[50.6,25115],[50.6,25149],[50.6,25182],[50.6,25215],[50.6,25249],[50.6,25283],[50.6,25316],[50.6,25353],[50.6,25382],[50.6,25415],[50.6,25449],[50.6,25482],[50.6,25516],[50.6,25549],[50.6,25582],[50.6,25616],[50.6,25649],[50.6,25682],[50.6,25715],[50.6,25749],[50.6,25782],[50.6,25816],[50.6,25849],[50.6,25882],[50.6,25915],[50.6,25949],[50.6,25982],[50.6,26015],[50.6,26049],[50.6,26082],[50.6,26116],[50.6,26149],[50.6,26182],[50.6,26216],[50.6,26249],[50.6,26282],[50.6,26316],[50.6,26349],[50.6,26383],[50.6,26415],[50.6,26449],[50.6,26482],[50.6,26515],[50.6,26549],[50.6,26582],[50.6,26616],[50.6,26649],[50.6,26682],[50.2,26716],[49.8,26750],[48.2,26783],[43.2,26818],[39.7,26850],[37.8,26883],[36.8,26916],[36.1,26949],[35.4,26982],[35,27016],[34.2,27049],[33.2,27083],[32.3,27116],[31.3,27150],[29.9,27183],[28.6,27216],[27.6,27249],[27,27284],[26.7,27316],[26.7,27349],[26.7,27382],[26.7,27416],[26.7,27449],[26.7,27482],[26.7,27516],[26.7,27549],[26.7,27582],[26.7,27616],[26.7,27649],[26.5,27683],[26.1,27716],[25.4,27749],[24.9,27782],[24.6,27816],[24.1,27850],[23.9,27883],[23.6,27916],[23.6,27949],[23.6,27983],[23.6,28016],[23.6,28049],[23.6,28082],[23.6,28116],[23.6,28149],[23.6,28182],[23.8,28216],[23.9,28249],[24.2,28283],[26.1,28316],[32.3,28350],[39.4,28385],[42.3,28416],[44.2,28449],[45.1,28483],[45.6,28516],[45.6,28549],[45.6,28583],[45.6,28615],[45.6,28649],[45.6,28682],[45.6,28716],[45.6,28749],[47,28783],[50.2,28816],[51.5,28849],[52,28883],[52.1,28918],[52.3,28949],[52.3,28982],[52.3,29015],[52.3,29049],[52.3,29082],[52.3,29116],[52.3,29149],[52.3,29182],[52.3,29215],[52.3,29249],[54.1,29283],[56.7,29316],[59,29349],[60.5,29383],[61.4,29416],[62.2,29450],[63,29483],[64.1,29516],[64.9,29549],[65.5,29583],[65.7,29616],[65.9,29649],[66.6,29683],[67,29717],[67.6,29750]]",1,0,247.8037,261.8865,51.14583174,11.0981,"[{""rating"":51.14583174387614,""responseTime"":11.098099999964234}]",space,13.5432,,261.8868,All the time,100,261.8926,,,[],,0,0,0,0,1,audio/Narrative13Situation2.wav,audio/Narrative13Situation2.wav,audio/Narrative13Situation2.wav,audio/Narrative13Situation2.wav,2,2,2,2,,,,,,,,,,,,,,,,,,,,,,,,,,,,,,,,,,,,,,,
,,,,,,6410e0ba81f88046afa861ca,2024-02-08_16h05.23.020,group3.1-3.2-social-tom,2023.2.2,Win32,29.94011976,65c5074098b851296ff0b7ed,65c5417075e1c9f5133794a3,,,,,,,,,,,,,,,,,,,,,,,,,,,,,261.893,1,audio/Narrative8Situation1.wav,264.3026,space,264.3027,280.2359,"[[999,1],[999,32],[999,66],[999,99],[999,133],[999,166],[999,199],[999,232],[999,265],[999,299],[999,332],[999,365],[999,399],[999,432],[999,465],[999,499],[999,532],[999,566],[999,599],[999,632],[999,666],[999,699],[999,732],[999,765],[999,799],[999,832],[999,865],[999,899],[999,932],[999,965],[999,1000],[999,1032],[999,1066],[999,1099],[999,1134],[999,1166],[999,1201],[999,1232],[999,1266],[999,1300],[999,1333],[999,1366],[999,1399],[999,1433],[999,1466],[999,1499],[999,1532],[999,1566],[999,1599],[999,1632],[999,1666],[999,1699],[999,1741],[999,1769],[999,1799],[999,1832],[999,1866],[999,1899],[999,1932],[999,1966],[999,1999],[999,2032],[999,2067],[999,2099],[999,2132],[999,2166],[999,2199],[999,2232],[999,2266],[999,2299],[999,2332],[999,2365],[999,2399],[999,2432],[999,2465],[999,2499],[999,2532],[999,2566],[999,2599],[999,2632],[999,2666],[999,2699],[999,2732],[999,2766],[999,2799],[999,2832],[999,2866],[999,2899],[999,2932],[999,2965],[999,2999],[999,3032],[999,3065],[999,3099],[999,3132],[999,3165],[999,3199],[999,3232],[999,3265],[999,3299],[999,3332],[999,3365],[999,3399],[999,3432],[999,3465],[999,3499],[999,3532],[999,3565],[999,3599],[999,3632],[999,3666],[999,3699],[999,3733],[999,3765],[999,3799],[999,3832],[999,3865],[999,3899],[999,3933],[999,3965],[999,3999],[999,4032],[999,4066],[999,4099],[999,4133],[999,4165],[999,4199],[999,4232],[999,4265],[999,4299],[999,4332],[999,4366],[999,4399],[999,4432],[999,4466],[999,4499],[999,4532],[999,4566],[999,4599],[999,4632],[999,4665],[999,4700],[999,4734],[999,4765],[999,4799],[999,4832],[999,4866],[999,4899],[999,4932],[999,4966],[999,5000],[999,5033],[999,5066],[999,5100],[30.8,5135],[30.5,5167],[30.4,5199],[30.4,5233],[30.4,5266],[30.4,5300],[30.4,5332],[30.4,5365],[30.4,5399],[30.4,5432],[30.4,5466],[29.5,5499],[26.6,5533],[23.8,5566],[21.8,5599],[20.5,5633],[19.9,5667],[19.4,5699],[18.5,5733],[18,5766],[17.5,5799],[17.2,5833],[16.6,5866],[16.3,5900],[15.9,5933],[15.8,5966],[15.8,5999],[15.8,6033],[15.8,6065],[15.8,6099],[15.8,6132],[15.8,6166],[15.8,6199],[15.8,6233],[15.8,6266],[15.8,6299],[15.8,6332],[16.4,6367],[17.2,6401],[17.7,6434],[18.2,6466],[18.4,6500],[18.4,6532],[18.5,6565],[18.5,6599],[18.5,6633],[18.5,6667],[18.5,6699],[18.5,6732],[18.5,6766],[18.5,6799],[18.5,6832],[18.5,6865],[18.5,6899],[18.5,6932],[18.5,6966],[18.5,6999],[18.5,7032],[18.5,7066],[18.5,7099],[18.5,7132],[18.5,7166],[18.5,7199],[18.5,7233],[18.5,7266],[18.5,7299],[18.5,7333],[18.5,7366],[18.5,7399],[18.5,7432],[18.5,7466],[18.5,7499],[18.5,7532],[18.5,7566],[18.5,7599],[18.5,7633],[18.5,7666],[18.5,7699],[18.5,7732],[18.5,7766],[18.5,7799],[18.5,7833],[18.5,7866],[18.5,7899],[18.5,7932],[18.5,7966],[18.5,7999],[18.5,8032],[18.5,8066],[18.5,8100],[18.5,8133],[18.5,8166],[18.5,8199],[18.5,8232],[18.5,8265],[18.5,8299],[18.5,8333],[18.5,8366],[18.5,8399],[18.5,8432],[18.5,8466],[18.5,8499],[18.5,8532],[18.5,8565],[18.5,8599],[18.5,8632],[18.5,8666],[18.5,8699],[18.5,8732],[18.5,8766],[18.5,8799],[18.5,8832],[18.5,8866],[18.5,8899],[18.5,8933],[18.5,8966],[18.5,8999],[18.5,9032],[18.5,9065],[18.5,9099],[18.5,9132],[18.5,9167],[18.5,9199],[18.5,9232],[18.5,9266],[18.5,9299],[18.5,9332],[18.5,9366],[18.5,9399],[18.5,9432],[18.5,9466],[18.5,9499],[18.5,9532],[18.5,9565],[18.5,9599],[18.5,9632],[18.5,9666],[18.5,9699],[18.5,9733],[18.5,9766],[18.5,9799],[18.5,9832],[18.5,9866],[18.5,9899],[18.5,9932],[18.5,9966],[18.5,9999],[18.5,10032],[18.5,10066],[18.5,10099],[18.5,10132],[18.5,10166],[18.5,10199],[18.5,10233],[18.5,10266],[18.5,10299],[18.5,10332],[18.5,10366],[18.5,10399],[18.5,10432],[18.5,10466],[18.5,10499],[18.5,10532],[18.5,10566],[18.5,10599],[18.5,10632],[18.5,10666],[18.5,10699],[18.5,10732],[18.5,10766],[18.5,10799],[18.5,10832],[18.5,10866],[18.5,10899],[18.5,10932],[18.5,10966],[18.5,10999],[18.5,11033],[18.5,11066],[18.5,11099],[18.5,11132],[18.5,11166],[18.5,11199],[18.5,11232],[18.5,11266],[18.5,11300],[18.5,11333],[18.5,11366],[18.5,11399],[18.5,11432],[18.5,11466],[18.5,11499],[18.5,11533],[18.5,11566],[18.5,11599],[18.5,11632],[18.5,11666],[18.5,11699],[18.5,11732],[18.5,11766],[18.5,11799],[18.5,11832],[18.5,11866],[18.5,11899],[18.5,11932],[18.5,11966],[18.5,11999],[18.5,12032],[18.5,12066],[18.5,12099],[18.5,12133],[18.5,12166],[18.5,12199],[18.5,12232],[18.5,12266],[18.5,12299],[18.5,12332],[18.5,12366],[18.5,12399],[18.5,12433],[18.5,12466],[18.5,12499],[18.5,12532],[18.5,12566],[18.5,12599],[18.5,12633],[18.5,12666],[18.5,12699],[18.5,12732],[18.5,12766],[18.5,12799],[18.5,12832],[18.5,12866],[18.5,12899],[18.5,12933],[18.5,12966],[18.5,12999],[18.5,13032],[18.5,13066],[18.5,13099],[18.5,13132],[18.5,13166],[18.5,13199],[18.5,13232],[18.5,13266],[18.5,13299],[18.5,13333],[18.5,13366],[18.5,13400],[18.5,13433],[18.5,13466],[18.5,13499],[18.5,13533],[18.5,13567],[18.5,13599],[18.5,13632],[18.5,13666],[18.5,13699],[18.5,13733],[18.5,13766],[18.5,13799],[18.5,13832],[18.5,13866],[18.5,13899],[18.5,13933],[18.5,13966],[18.5,14000],[18.5,14033],[18.5,14066],[18.5,14099],[18.5,14132],[18.5,14166],[18.5,14199],[18.5,14233],[18.5,14266],[18.5,14299],[18.5,14332],[18.5,14366],[18.5,14399],[18.5,14432],[18.5,14466],[18.5,14500],[18.5,14532],[18.5,14566],[18.5,14599],[18.5,14632],[18.5,14666],[18.5,14699],[18.5,14733],[18.5,14766],[18.5,14799],[18.5,14832],[18.5,14866],[18.5,14899],[18.5,14932],[18.5,14966],[18.5,14999],[18.5,15032],[18.5,15066],[18.5,15099],[18.5,15132],[18.5,15166],[18.5,15199],[18.5,15233],[18.6,15267],[18.8,15299],[19.1,15332],[19.5,15366],[19.8,15399],[20.2,15433],[20.6,15468],[21.5,15500],[22.6,15533],[24.4,15566],[25.7,15600],[27.3,15633],[27.9,15666],[28.6,15699],[29,15734],[29.1,15766],[29.1,15799],[29.1,15832],[29.1,15866],[29.1,15899],[29.1,15932]]",1,0,280.2362,285.8195,38.43750159,5.5486,"[{""rating"":38.4375015894572,""responseTime"":4.146800000011922},{""rating"":38.4375015894572,""responseTime"":5.548600000023839}]",space,5.0537,0.0003,285.8196,All the time,100,285.8219,,,[],,0,1,1,1,1,audio/Narrative7Situation1.wav,audio/Narrative8Situation1.wav,audio/Narrative5Situation1.wav,audio/Narrative6Situation1.wav,2,5,5,2,2.3787,,,,,,,,,,,,,,,,,,,,,,,,,,,,,,,,,,,,,,
,,,,,,6410e0ba81f88046afa861ca,2024-02-08_16h05.23.020,group3.1-3.2-social-tom,2023.2.2,Win32,29.94011976,65c5074098b851296ff0b7ed,65c5417075e1c9f5133794a3,,,,,,,,,,,,,,,,,,,,,,,,,,,,,285.8223,1,audio/Narrative8Situation2.wav,288.8362,,288.8362,298.9695,"[[38.5,4200],[38.6,4233],[38.6,4268],[38.4,4302],[38.1,4333],[37.8,4367],[37.6,4400],[37.6,4433],[37.6,4466],[37.6,4499],[37.6,4533],[37.6,4566],[37.6,4600],[37.6,4633],[37.6,4666],[37.6,4699],[37.6,4733],[37.6,4766],[37.6,4799],[37.6,4833],[37.6,4866],[37.6,4900],[37.6,4933],[37.6,4966],[37.6,4999],[37.6,5032],[37.6,5066],[37.6,5100],[37.6,5133],[37.6,5166],[37.6,5199],[37.6,5233],[37.6,5266],[37.6,5299],[37.6,5333],[37.6,5366],[37.6,5399],[37.6,5433],[37.6,5466],[37.6,5500],[37.6,5533],[37.6,5566],[37.6,5600],[37.6,5633],[37.6,5666],[37.6,5700],[37.6,5733],[37.6,5766],[37.6,5799],[37.6,5832],[37.6,5866],[37.6,5899],[37.6,5933],[37.6,5966],[37.6,5999],[37.6,6034],[37.6,6066],[37.6,6099],[37.6,6133],[37.6,6166],[37.6,6199],[37.6,6233],[37.6,6266],[37.6,6300],[37.6,6333],[37.6,6366],[37.6,6400],[37.6,6433],[37.6,6466],[37.6,6499],[37.6,6533],[37.6,6566],[37.6,6599],[37.6,6633],[37.6,6666],[37.6,6699],[37.6,6733],[37.6,6766],[37.6,6799],[37.6,6833],[37.6,6866],[37.6,6899],[37.6,6933],[37.6,6967],[37.6,6999],[37.6,7034],[37.6,7066],[37.6,7100],[37.6,7133],[37.6,7166],[37.6,7200],[37.6,7234],[37.6,7266],[37.6,7300],[37.6,7333],[37.6,7366],[37.6,7399],[37.6,7433],[37.6,7466],[37.6,7499],[37.6,7533],[37.9,7567],[38.3,7600],[38.8,7633],[38.9,7666],[39.1,7699],[39.1,7733],[39.1,7766],[39.1,7799],[39.1,7833],[39.1,7866],[39.1,7899],[39.1,7933],[39.1,7966],[39.1,7999],[39.1,8033],[39.1,8066],[39.1,8100],[39.1,8133],[39.1,8166],[39.1,8199],[39.1,8233],[39.1,8266],[39.1,8300],[39.1,8333],[39.1,8366],[39.1,8401],[39.1,8433],[39.1,8466],[39.1,8499],[39.1,8533],[39.1,8566],[39.1,8600],[39.1,8633],[39.1,8666],[39.1,8700],[39.1,8733],[39.1,8766],[39.1,8799],[39.1,8833],[39.1,8866],[39.4,8900],[39.6,8933],[40.5,8967],[41.5,9000],[42.6,9034],[43.2,9067],[43.9,9100],[44.2,9134],[44.3,9166],[44.3,9200],[44.3,9234],[44.3,9266],[44.3,9299],[44.3,9333],[44.3,9366],[44.3,9400],[44.3,9433],[44.3,9466],[44.3,9500],[44.3,9533],[44.3,9566],[44.3,9599],[44.3,9633],[44.3,9666],[44.3,9699],[44.3,9733],[44.3,9766],[44.3,9799],[44.3,9833],[44.3,9866],[44.3,9899],[44.3,9933],[44.3,9966],[44.3,10000],[44.3,10033],[44.3,10066],[44.3,10099],[44.3,10133]]",1,0,298.9697,302.2199,42.1875,1.3389,"[{""rating"":42.1875,""responseTime"":1.3389000000357782}]",space,2.7275,,302.22,Not at all,0,302.2243,,,[],,0,2,2,2,1,audio/Narrative7Situation2.wav,audio/Narrative8Situation2.wav,audio/Narrative5Situation2.wav,audio/Narrative6Situation2.wav,3,3,3,3,,,,,,,,,,,,,,,,,,,,,,,,,,,,,,,,,,,,,,,
,,,,,,6410e0ba81f88046afa861ca,2024-02-08_16h05.23.020,group3.1-3.2-social-tom,2023.2.2,Win32,29.94011976,65c5074098b851296ff0b7ed,65c5417075e1c9f5133794a3,,,,,,,,,,,,,,,,,,,,,,,,,,,,,302.2247,1,audio/Narrative8Situation3.wav,306.237,,306.2371,328.621,"[[42.6,2566],[43.4,2600],[44.6,2634],[45.7,2666],[46.7,2700],[47.2,2733],[47.7,2766],[47.9,2799],[48.2,2832],[48.4,2866],[48.6,2900],[48.9,2933],[49.2,2966],[49.5,3000],[49.8,3033],[50,3066],[50.2,3099],[50.3,3132],[50.3,3165],[50.3,3199],[50.3,3233],[50.3,3266],[50.3,3299],[50.3,3332],[50.3,3366],[50.3,3399],[50.3,3432],[50.3,3466],[50.3,3499],[50.3,3532],[50.3,3566],[50.3,3599],[50.3,3633],[50.3,3666],[50.3,3699],[50.3,3732],[50.3,3766],[50.3,3799],[50.3,3833],[50.3,3866],[50.3,3899],[50.3,3933],[50.3,3966],[50.3,3999],[50.3,4033],[50.3,4066],[50.3,4099],[50.3,4132],[50.3,4166],[50.3,4199],[50.3,4232],[50.3,4266],[50.3,4299],[50.3,4332],[50.3,4366],[50.3,4399],[50.3,4432],[50.3,4467],[50.3,4499],[50.3,4532],[50.3,4566],[50.3,4599],[50.3,4633],[50.3,4666],[50.3,4699],[50.3,4732],[50.3,4766],[50.3,4799],[50.3,4832],[50.3,4866],[50.3,4899],[50.3,4932],[50.3,4965],[50.3,4999],[50.3,5032],[50.3,5066],[50.3,5099],[50.3,5132],[50.3,5166],[50.3,5199],[50.3,5232],[50.3,5266],[50.3,5299],[50.3,5333],[50.3,5368],[50.3,5399],[50.3,5433],[50.3,5466],[50.3,5499],[50.3,5532],[50.3,5566],[50.3,5599],[50.3,5633],[50.3,5666],[50.3,5700],[50.3,5732],[50.3,5766],[50.3,5799],[50.3,5832],[50.3,5866],[50.3,5899],[50.3,5933],[50.3,5966],[50.3,6000],[50.3,6032],[50.3,6066],[50.3,6100],[50.3,6133],[50.3,6166],[50.3,6199],[50.3,6233],[50.3,6266],[50.3,6299],[50.3,6332],[50.3,6366],[50.3,6399],[50.3,6432],[50.3,6466],[50.3,6499],[50.3,6532],[50.3,6566],[50.3,6599],[50.3,6632],[50.3,6667],[50.3,6699],[50.3,6732],[50.3,6766],[50.3,6800],[50.3,6832],[50.3,6867],[50.3,6900],[50.3,6933],[50.3,6966],[50.3,7000],[50.3,7033],[50.3,7066],[50.3,7099],[50.3,7132],[50.3,7166],[50.3,7199],[50.5,7233],[50.8,7266],[51.3,7300],[51.7,7333],[52.4,7367],[53.2,7400],[54.1,7433],[55,7466],[55.7,7500],[56.9,7533],[57.7,7566],[58.3,7600],[58.9,7633],[59.6,7668],[60.1,7700],[60.4,7733],[60.7,7766],[60.9,7799],[61.3,7834],[61.5,7865],[61.5,7900],[61.5,7932],[61.5,7966],[61.5,7999],[61.5,8032],[61.5,8066],[61.5,8099],[61.5,8132],[61.5,8166],[61.5,8199],[61.5,8232],[61.5,8266],[61.5,8299],[61.5,8332],[61.5,8366],[61.5,8399],[61.5,8432],[61.5,8466],[61.5,8499],[61.5,8532],[61.5,8566],[61.5,8600],[61.5,8632],[61.5,8666],[61.5,8699],[61.5,8733],[61.5,8766],[61.5,8799],[61.5,8833],[61.5,8866],[61.5,8899],[61.5,8932],[61.5,8966],[61.5,8999],[61.5,9033],[61.5,9066],[61.5,9099],[61.5,9133],[61.5,9166],[61.5,9199],[61.5,9232],[61.5,9266],[61.5,9299],[61.5,9332],[61.5,9366],[61.5,9399],[61.5,9432],[61.5,9466],[61.5,9499],[61.5,9532],[61.5,9566],[61.5,9599],[61.5,9632],[61.5,9666],[61.5,9699],[61.5,9732],[61.5,9766],[61.5,9800],[61.5,9833],[61.5,9866],[61.5,9899],[61.5,9932],[61.5,9966],[61.5,9999],[61.5,10033],[61.5,10066],[61.5,10099],[61.5,10133],[61.5,10167],[61.5,10199],[61.5,10232],[61.5,10266],[61.5,10299],[61.5,10332],[61.5,10366],[61.5,10400],[61.5,10432],[61.5,10469],[61.5,10499],[61.5,10532],[61.5,10566],[61.5,10599],[61.5,10633],[61.5,10666],[61.5,10699],[61.5,10732],[61.5,10766],[61.5,10799],[61.5,10833],[61.5,10866],[61.5,10899],[61.5,10932],[61.5,10966],[61.5,10999],[61.5,11033],[61.5,11066],[61.5,11099],[61.5,11133],[61.5,11166],[61.5,11200],[61.5,11232],[61.5,11266],[61.5,11299],[61.5,11332],[61.5,11366],[61.5,11399],[61.5,11433],[61.5,11466],[61.5,11499],[61.5,11532],[61.5,11566],[61.5,11599],[61.5,11632],[61.5,11666],[61.5,11699],[61.5,11732],[61.5,11766],[61.5,11799],[61.5,11833],[61.5,11866],[61.5,11899],[61.5,11932],[61.5,11966],[61.5,12000],[61.5,12032],[61.5,12066],[61.5,12099],[61.5,12133],[61.5,12166],[61.5,12199],[61.5,12233],[61.5,12266],[61.5,12299],[61.5,12332],[61.5,12366],[61.5,12399],[61.5,12432],[61.5,12466],[61.5,12499],[61.5,12533],[61.5,12566],[61.5,12599],[61.5,12632],[61.5,12666],[61.5,12699],[61.5,12732],[61.5,12766],[61.5,12799],[61.5,12832],[61.5,12867],[61.5,12899],[61.5,12935],[61.5,12966],[61.5,12999],[61.5,13032],[61.5,13066],[61.5,13100],[61.5,13133],[61.5,13166],[61.5,13199],[61.5,13232],[61.5,13267],[61.5,13300],[61.5,13335],[61.5,13366],[61.5,13399],[61.5,13433],[61.5,13466],[61.5,13499],[61.5,13533],[61.5,13567],[61.5,13599],[61.5,13632],[61.5,13666],[61.5,13699],[61.5,13732],[61.5,13766],[61.5,13799],[61.5,13833],[61.5,13866],[61.5,13899],[61.5,13932],[61.5,13966],[61.5,13999],[61.5,14033],[61.5,14066],[61.5,14099],[61.5,14132],[61.5,14166],[61.5,14199],[61.5,14233],[61.5,14266],[61.5,14299],[61.5,14332],[61.5,14367],[61.5,14399],[61.5,14433],[61.5,14466],[61.5,14499],[61.5,14532],[61.5,14566],[61.5,14599],[61.5,14633],[61.5,14666],[61.5,14699],[61.5,14732],[61.5,14766],[61.5,14800],[61.5,14833],[61.5,14866],[61.5,14899],[61.5,14933],[61.5,14966],[61.5,14999],[61.5,15033],[61.5,15066],[61.5,15099],[61.5,15133],[61.5,15166],[61.5,15199],[61.5,15232],[61.5,15266],[61.5,15299],[61.5,15332],[61.5,15366],[61.5,15399],[61.5,15433],[61.5,15466],[61.5,15499],[61.5,15533],[61.5,15566],[61.5,15599],[61.5,15632],[61.5,15666],[61.5,15700],[61.5,15733],[61.5,15766],[61.5,15799],[61.5,15833],[61.5,15866],[61.5,15900],[61.5,15933],[61.5,15966],[61.5,16000],[61.5,16032],[61.5,16066],[61.5,16100],[61.5,16133],[61.5,16166],[61.5,16200],[61.5,16232],[61.5,16266],[61.5,16299],[61.5,16333],[61.5,16366],[61.5,16399],[61.5,16434],[61.5,16466],[61.5,16499],[61.5,16533],[61.5,16566],[61.5,16599],[61.5,16633],[61.5,16666],[61.5,16699],[61.5,16733],[61.5,16766],[61.5,16799],[61.5,16832],[61.5,16866],[61.5,16899],[61.5,16933],[61.5,16966],[61.5,16999],[61.5,17033],[61.5,17066],[61.5,17099],[61.5,17133],[61.5,17166],[61.5,17200],[61.5,17233],[61.5,17268],[61.5,17299],[61.5,17332],[61.5,17366],[61.5,17399],[61.5,17433],[61.5,17466],[61.5,17500],[61.5,17532],[61.5,17566],[61.5,17599],[61.5,17634],[61.5,17666],[61.5,17701],[61.5,17733],[61.5,17766],[61.5,17800],[61.5,17833],[61.5,17866],[61.5,17899],[61.5,17933],[61.5,17966],[61.5,18000],[61.5,18033],[61.5,18066],[61.5,18100],[61.5,18133],[61.5,18166],[61.5,18200],[61.5,18233],[61.5,18266],[61.5,18299],[61.5,18333],[61.5,18366],[61.5,18400],[61.5,18433],[61.5,18466],[61.5,18500],[61.5,18532],[61.5,18566],[61.5,18599],[61.5,18633],[61.5,18666],[61.5,18699],[61.5,18733],[61.5,18766],[61.5,18799],[61.5,18833],[61.5,18866],[61.5,18899],[61.5,18933],[61.5,18966],[61.5,19000],[61.5,19033],[61.5,19066],[61.5,19099],[61.5,19133],[61.5,19166],[61.5,19199],[61.5,19233],[61.5,19266],[61.5,19299],[61.5,19332],[61.5,19366],[61.5,19399],[61.5,19432],[61.5,19466],[61.5,19499],[61.5,19533],[61.5,19566],[61.5,19599],[61.5,19633],[61.5,19666],[61.5,19699],[61.5,19733],[61.5,19766],[61.5,19799],[61.5,19833],[61.5,19866],[61.5,19900],[61.5,19933],[61.5,19967],[61.5,19999],[61.5,20033],[61.5,20067],[61.5,20100],[61.5,20133],[61.5,20166],[61.5,20199],[61.5,20233],[61.5,20266],[61.5,20299],[61.5,20333],[61.5,20366],[61.5,20399],[61.5,20433],[61.5,20467],[61.5,20499],[61.5,20533],[61.5,20566],[61.5,20600],[61.5,20633],[61.5,20666],[61.5,20699],[61.5,20733],[61.5,20766],[61.5,20799],[61.5,20834],[61.5,20866],[61.5,20899],[61.5,20932],[61.5,20966],[61.5,21000],[61.5,21033],[61.5,21066],[61.5,21099],[61.5,21133],[61.5,21166],[61.5,21199],[61.5,21233],[61.5,21266],[61.5,21300],[61.5,21333],[61.5,21366],[61.5,21400],[61.5,21433],[61.5,21466],[61.5,21499],[61.5,21533],[61.5,21566],[61.5,21599],[61.5,21633],[61.5,21666],[61.5,21700],[61.5,21733],[61.5,21766],[61.5,21799],[61.5,21834],[61.5,21866],[61.5,21899],[61.5,21933],[61.5,21967],[61.5,21999],[61.6,22033],[61.6,22067],[61.6,22099],[61.6,22133],[61.6,22166],[61.6,22200],[61.6,22233],[61.6,22266],[61.6,22299],[61.6,22333],[61.6,22366]]",1,0,328.6213,330.3871,61.45833333,1.7632,"[{""rating"":61.458333333333336,""responseTime"":1.763200000047732}]",space,0.1055,,330.3872,Half the time,50,349.9877,50.41666826,7.9543,"[{""rating"":50.41666825612386,""responseTime"":7.954300000011926}]",space,0,3,3,3,1,audio/Narrative7Situation3.wav,audio/Narrative8Situation3.wav,audio/Narrative5Situation3.wav,audio/Narrative6Situation3.wav,8,4,3,5,,,19.0776,,,,,,,,,,,,,,,,,,,,,,,,,,,,,,,,,,,,
,,,,,,6410e0ba81f88046afa861ca,2024-02-08_16h05.23.020,group3.1-3.2-social-tom,2023.2.2,Win32,29.94011976,65c5074098b851296ff0b7ed,65c5417075e1c9f5133794a3,,,,,,,,,,,,,,,,,,,,,,,,,,,,,349.9998,1,audio/Narrative8Situation4.wav,353.0042,,353.0042,367.1717,"[[999,0],[999,33],[999,66],[999,99],[999,133],[999,166],[999,199],[999,233],[999,266],[999,300],[999,333],[999,366],[999,400],[999,433],[999,467],[999,500],[999,533],[999,566],[999,600],[999,633],[999,666],[999,700],[999,734],[999,766],[999,800],[999,833],[999,866],[999,900],[999,934],[999,966],[999,1000],[999,1033],[999,1066],[999,1100],[999,1133],[999,1166],[999,1200],[999,1233],[999,1266],[999,1299],[999,1333],[999,1366],[999,1399],[999,1433],[999,1466],[999,1501],[999,1534],[999,1568],[999,1600],[999,1634],[999,1667],[999,1700],[999,1733],[999,1766],[999,1800],[999,1833],[999,1866],[999,1900],[999,1933],[999,1966],[999,2000],[999,2034],[15.3,2067],[26,2101],[30.3,2134],[31.5,2167],[31.8,2200],[31.8,2233],[31.8,2266],[31.8,2299],[31.8,2333],[31.8,2367],[31.8,2400],[31.8,2433],[31.8,2466],[31.8,2500],[38.6,2533],[41.7,2567],[43.8,2602],[44.7,2635],[45.4,2667],[45.8,2700],[46.1,2734],[46.4,2767],[46.7,2800],[46.8,2833],[46.9,2869],[47.3,2901],[47.9,2934],[48.8,2967],[49.8,3000],[50.3,3033],[50.5,3067],[50.5,3100],[50.7,3133],[50.7,3166],[50.7,3200],[50.8,3233],[50.9,3267],[50.9,3301],[51,3333],[51,3366],[51,3400],[51,3433],[51,3467],[51,3500],[51,3533],[51,3566],[51,3600],[51,3633],[51,3666],[51,3700],[51,3733],[51,3766],[51,3800],[51,3833],[51,3867],[51,3900],[51,3934],[51,3967],[51,4000],[51,4033],[51,4066],[51,4100],[51,4133],[51,4167],[51,4200],[51,4233],[51,4266],[51,4299],[51,4335],[51,4367],[51,4400],[51,4433],[51,4467],[51,4500],[51,4533],[51,4566],[51,4600],[51,4634],[51,4666],[51,4702],[51,4733],[51,4766],[51,4800],[51,4833],[51,4867],[51,4900],[51,4933],[51,4967],[51,5000],[51,5033],[51,5066],[51,5100],[51,5133],[51,5167],[51,5200],[51,5233],[51,5267],[51,5299],[51,5334],[51,5367],[51,5400],[51,5434],[51,5467],[51,5500],[51,5534],[51,5567],[51,5600],[51,5633],[51,5667],[51,5700],[51,5733],[51,5766],[51,5800],[51,5834],[51,5867],[51,5900],[51,5933],[51,5966],[51,6000],[51,6033],[51,6066],[51,6100],[51,6134],[51,6167],[51,6200],[51,6233],[51,6267],[51,6300],[51,6333],[51,6366],[51,6400],[51,6433],[51,6466],[51,6500],[51,6534],[51,6567],[51,6600],[51,6633],[51,6667],[51,6700],[51,6733],[51,6766],[51,6800],[51,6834],[51,6868],[51,6900],[51,6933],[51,6967],[51,7000],[51,7033],[51,7066],[51,7100],[51,7133],[51,7167],[51,7200],[51,7234],[51,7266],[51,7300],[51,7333],[51,7366],[51,7400],[51,7434],[51,7467],[51,7500],[51,7534],[51,7567],[51,7600],[51,7633],[51,7667],[51,7700],[51,7734],[51,7766],[51,7800],[51,7833],[51,7868],[51,7900],[51,7934],[51,7967],[51,8000],[51,8033],[51,8067],[51,8102],[51,8133],[51,8167],[51,8200],[51,8233],[51,8267],[51,8301],[51,8333],[51,8367],[51,8400],[51,8434],[51,8467],[51,8500],[51,8533],[51,8566],[51,8600],[51,8633],[51,8667],[51,8700],[51,8733],[51,8766],[51,8800],[51,8833],[51,8866],[51,8900],[51,8933],[51,8967],[51,9000],[51,9035],[51,9066],[51,9100],[51,9133],[51,9166],[51,9200],[51,9233],[51,9266],[51,9300],[51,9333],[51,9366],[51,9400],[51,9433],[51,9467],[51,9500],[51,9533],[51,9566],[51,9600],[51,9633],[51,9666],[51,9700],[51,9734],[51,9767],[51,9800],[51,9834],[51,9866],[51,9900],[51,9933],[51,9967],[51,10000],[51,10033],[51,10067],[51,10100],[51,10134],[51,10166],[51,10200],[51,10233],[51,10267],[51,10300],[51,10333],[51,10367],[51,10400],[51,10433],[51,10467],[51,10500],[51,10533],[51,10567],[51,10600],[51,10634],[51,10667],[51,10700],[51,10736],[51,10767],[51,10801],[51,10833],[51,10867],[51,10900],[51,10933],[51,10967],[51,11000],[51,11033],[51,11066],[51,11100],[51,11134],[51,11167],[51,11200],[51,11233],[51,11266],[51,11300],[51,11333],[51,11367],[51,11400],[51,11434],[51,11467],[51,11500],[51,11534],[51,11567],[51,11600],[51,11633],[51,11666],[51,11700],[51,11733],[51,11766],[51,11800],[51,11834],[51,11867],[51,11900],[51,11934],[51,11968],[51,12000],[51,12033],[51,12066],[51,12100],[51,12133],[51,12167],[51,12200],[51,12234],[51,12267],[51,12300],[51,12334],[51,12367],[51,12401],[51,12433],[51,12467],[51,12500],[51,12534],[51,12567],[51,12600],[51,12633],[51,12667],[51,12700],[51,12734],[51,12767],[51,12800],[51,12833],[51,12866],[51,12900],[51,12934],[51,12967],[51,13000],[51,13034],[51,13067],[51,13100],[51,13133],[51,13167],[51,13200],[51,13234],[51,13266],[51,13301],[51,13334],[51,13367],[51,13400],[51,13434],[51,13466],[51,13500],[51,13533],[51,13567],[51,13600],[51,13635],[51,13667],[51,13700],[51,13734],[51,13767],[51,13800],[51,13834],[51,13867],[51,13900],[51,13933],[51,13967],[51,14000],[51,14033],[51,14067],[51,14100],[51,14133],[51,14167]]",1,0,367.1719,371.5216,57.91666508,3.0149,"[{""rating"":57.91666507720947,""responseTime"":3.0148999999761372}]",space,3.8017,,371.5218,Half the time,50,371.5244,,,[],,0,4,4,4,1,audio/Narrative7Situation4.wav,audio/Narrative8Situation4.wav,audio/Narrative5Situation4.wav,audio/Narrative6Situation4.wav,3,3,1,2,,,,,,,,,,,,,,,,,,,,,,,,,,,,,,,,,,,,,,,
,,,,,,6410e0ba81f88046afa861ca,2024-02-08_16h05.23.020,group3.1-3.2-social-tom,2023.2.2,Win32,29.94011976,65c5074098b851296ff0b7ed,65c5417075e1c9f5133794a3,,,,,,,,,,,,,,,,,,,,,,,,,,,,,371.5247,1,audio/Narrative8Situation5.wav,373.5387,,373.5388,381.7888,[],1,0,381.789,384.7385,61.35416826,2.0469,"[{""rating"":61.35416825612386,""responseTime"":2.0468999999761763}]",space,2.4098,,384.7387,Not at all,0,384.7425,,,[],,0,5,5,5,1,audio/Narrative7Situation5.wav,audio/Narrative8Situation5.wav,audio/Narrative5Situation5.wav,audio/Narrative6Situation5.wav,5,2,5,2,,,,,,,,,,,,,,,,,,,,,,,,,,,,,,,,,,,,,,,
,,,,,,6410e0ba81f88046afa861ca,2024-02-08_16h05.23.020,group3.1-3.2-social-tom,2023.2.2,Win32,29.94011976,65c5074098b851296ff0b7ed,65c5417075e1c9f5133794a3,,,,,,,,,,,,,,,,,,,,,,,,,,,,,384.743,1,audio/Narrative8Situation6.wav,386.7551,,386.7552,393.2387,"[[61.5,2600],[61.6,2633],[61.6,2666],[61.6,2699],[61.6,2733],[61.6,2767],[61.6,2800],[61.6,2833],[61.5,2866],[61.5,2900],[61.5,2934],[61.5,2966],[61.5,3000],[61.5,3033],[61.5,3066],[61.5,3102],[61.5,3133],[61.5,3166],[61.5,3200],[61.5,3233],[61.5,3266],[61.5,3299],[61.5,3333],[61.5,3367],[61.5,3400],[61.5,3433],[61.5,3467],[61.5,3499],[61.5,3533],[61.5,3566],[61.5,3599],[61.5,3633],[61.5,3667],[61.5,3699],[61.5,3733],[61.5,3766],[61.5,3799],[61.5,3833],[61.5,3867],[61.5,3900],[61.5,3933],[61.5,3966],[61.5,3999],[61.5,4033],[61.5,4066],[61.5,4099],[61.5,4133],[61.5,4167],[61.5,4200],[61.5,4233],[61.5,4267],[61.5,4300],[61.5,4333],[61.5,4367],[61.5,4400],[61.5,4433],[61.5,4466],[61.5,4500],[61.5,4533],[61.5,4566],[61.5,4599],[61.5,4633],[61.5,4666],[61.5,4700],[61.5,4733],[61.5,4766],[61.5,4799],[61.5,4833],[61.5,4866],[61.5,4900],[61.5,4933],[61.5,4970],[61.5,5000],[61.5,5033],[61.5,5066],[61.5,5100],[61.5,5133],[61.5,5167],[61.5,5200],[61.5,5233],[61.5,5266],[61.5,5299],[61.5,5333],[61.5,5367],[61.5,5399],[61.5,5433],[61.5,5468],[61.5,5499],[61.5,5533],[61.5,5566],[61.5,5600],[61.5,5633],[61.5,5667],[61.5,5699],[61.5,5733],[61.5,5766],[61.5,5800],[61.5,5833],[61.5,5866],[61.5,5899],[61.5,5933],[61.5,5966],[61.5,6000],[61.5,6033],[61.5,6067],[61.5,6100],[61.5,6133],[61.5,6166],[61.5,6200],[61.5,6233],[61.5,6266],[61.5,6299],[61.5,6333],[61.5,6366],[61.5,6400],[61.5,6433],[61.5,6466]]",1,0,393.239,396.4722,60.20833651,2.5687,"[{""rating"":60.20833651224772,""responseTime"":2.568699999988098}]",space,2.6883,,396.4723,Half the time,50,396.4756,,,[],,0,6,6,6,1,audio/Narrative7Situation6.wav,audio/Narrative8Situation6.wav,audio/Narrative5Situation6.wav,audio/Narrative6Situation6.wav,3,2,3,2,,,,,,,,,,,,,,,,,,,,,,,,,,,,,,,,,,,,,,,
,,,,,,6410e0ba81f88046afa861ca,2024-02-08_16h05.23.020,group3.1-3.2-social-tom,2023.2.2,Win32,29.94011976,65c5074098b851296ff0b7ed,65c5417075e1c9f5133794a3,,,,,,,,,,,,,,,,,,,,,,,,,,,,,396.4758,1,audio/Narrative8Situation7.wav,399.4889,,399.489,411.5911,"[[60.5,4335],[60.7,4366],[60.8,4401],[60.8,4433],[60.8,4466],[60.8,4500],[60.8,4533],[60.8,4566],[60.8,4599],[60.8,4633],[60.8,4666],[60.8,4699],[60.8,4733],[60.8,4766],[60.8,4799],[60.8,4833],[60.8,4866],[60.8,4899],[60.8,4933],[60.8,4966],[60.8,5000],[60.8,5033],[60.8,5066],[60.8,5099],[60.8,5133],[60.8,5166],[60.8,5199],[60.8,5232],[60.8,5266],[60.8,5299],[60.8,5333],[60.8,5366],[60.8,5399],[60.8,5432],[60.8,5466],[60.8,5499],[60.8,5533],[60.8,5566],[60.8,5599],[60.8,5633],[60.8,5666],[60.8,5699],[60.8,5732],[60.8,5766],[60.8,5800],[60.8,5836],[60.8,5866],[60.8,5899],[60.8,5933],[60.8,5966],[60.8,5999],[60.8,6033],[60.8,6066],[60.8,6099],[60.8,6133],[60.8,6166],[60.8,6199],[60.8,6233],[60.8,6266],[60.8,6299],[60.8,6333],[60.8,6366],[60.8,6399],[60.8,6433],[60.8,6466],[60.8,6500],[60.8,6533],[60.8,6567],[60.8,6599],[60.8,6633],[60.8,6666],[60.8,6699],[60.8,6733],[60.8,6766],[60.8,6799],[60.8,6833],[60.8,6867],[60.8,6900],[60.8,6933],[60.8,6966],[60.8,6999],[60.8,7033],[60.8,7066],[60.8,7100],[60.8,7133],[60.8,7166],[60.8,7200],[60.8,7233],[60.8,7266],[60.8,7299],[60.8,7333],[60.8,7367],[60.8,7400],[60.8,7433],[60.8,7466],[60.8,7499],[60.8,7533],[60.8,7566],[60.8,7599],[60.8,7633],[60.8,7666],[60.8,7700],[60.8,7734],[60.8,7767],[60.8,7799],[60.8,7833],[60.8,7866],[60.8,7899],[60.8,7934],[60.8,7966],[60.8,8000],[60.8,8033],[60.8,8066],[60.8,8099],[60.8,8133],[60.8,8166],[60.8,8200],[60.8,8233],[60.8,8266],[60.8,8299],[60.8,8333],[60.8,8366],[60.8,8399],[60.8,8433],[60.8,8466],[60.8,8499],[60.8,8533],[60.8,8566],[60.8,8599],[60.8,8633],[60.8,8666],[60.8,8699],[61.9,8733],[61.9,8766],[61.9,8800],[61.9,8833],[61.9,8866],[61.9,8900],[61.9,8933],[61.9,8966],[61.9,8999],[61.9,9033],[61.9,9066],[61.9,9100],[61.9,9135],[61.9,9166],[61.9,9199],[61.9,9233],[61.9,9267],[61.9,9300],[61.9,9333],[61.9,9366],[61.9,9399],[61.9,9433],[61.9,9466],[61.9,9500],[61.9,9533],[61.9,9566],[61.9,9599],[61.9,9633],[61.9,9666],[61.9,9699],[61.9,9733],[61.9,9766],[61.9,9799],[61.9,9833],[61.9,9866],[61.9,9899],[61.9,9933],[61.9,9966],[61.9,10000],[61.9,10033],[61.9,10066],[61.9,10100],[61.9,10133],[61.9,10166],[61.9,10200],[61.9,10233],[61.9,10266],[61.9,10299],[61.9,10333],[61.9,10366],[61.9,10399],[61.9,10433],[61.9,10466],[61.9,10500],[61.9,10533],[61.9,10566],[61.9,10600],[61.9,10634],[61.9,10666],[61.9,10699],[61.9,10733],[61.9,10766],[61.9,10800],[61.9,10833],[61.9,10866],[61.9,10900],[61.9,10933],[61.9,10966],[61.9,11000],[61.9,11033],[61.9,11066],[61.9,11100],[61.9,11133],[61.9,11166],[61.9,11200],[61.9,11233],[61.9,11266],[61.9,11299],[61.9,11333],[61.9,11366],[61.9,11399],[61.9,11433],[61.9,11466],[61.9,11500],[61.9,11533],[61.9,11568],[61.9,11600],[61.9,11634],[61.9,11666],[61.9,11700],[61.9,11733],[61.6,11766],[58.3,11801],[46.8,11836],[44.4,11867],[43.5,11900],[43.2,11933],[43.1,11966],[43.1,12001],[43.2,12034],[43.8,12067],[44.1,12101]]",1,0,411.5913,415.1558,37.5,2.2572,"[{""rating"":37.5,""responseTime"":2.2571999999880745}]",space,3.0184,,415.1559,Not at all,0,415.1594,,,[],,0,7,7,7,1,audio/Narrative7Situation7.wav,audio/Narrative8Situation7.wav,audio/Narrative5Situation7.wav,audio/Narrative6Situation7.wav,5,3,4,5,,,,,,,,,,,,,,,,,,,,,,,,,,,,,,,,,,,,,,,
,,,,,,6410e0ba81f88046afa861ca,2024-02-08_16h05.23.020,group3.1-3.2-social-tom,2023.2.2,Win32,29.94011976,65c5074098b851296ff0b7ed,65c5417075e1c9f5133794a3,,,,,,,,,,,,,,,,,,,,,,,,,,,,,415.1597,1,audio/Narrative8Situation8.wav,418.1726,,418.1727,431.0233,"[[38.2,12300],[38.9,12334],[39.6,12367],[40.6,12401],[42.4,12434],[44.4,12467],[46.1,12500],[47.3,12533],[47.9,12567],[48.2,12600],[48.4,12636],[48.6,12669],[48.8,12701],[49,12733],[49,12766],[49.2,12800],[49.3,12833]]",1,0,431.0234,433.7732,49.58333174,0.3588,"[{""rating"":49.583331743876144,""responseTime"":0.35879999995222533}]",space,2.2106,,433.7732,Not at all,0,433.7759,,,[],,0,8,8,8,1,audio/Narrative7Situation8.wav,audio/Narrative8Situation8.wav,audio/Narrative5Situation8.wav,audio/Narrative6Situation8.wav,2,3,3,5,,,,,,,,,,,,,,,,,,,,,,,,,,,,,,,,,,,,,,,
,,,,,,6410e0ba81f88046afa861ca,2024-02-08_16h05.23.020,group3.1-3.2-social-tom,2023.2.2,Win32,29.94011976,65c5074098b851296ff0b7ed,65c5417075e1c9f5133794a3,,,,,,,,,,,,,,,,,,,,,,,,,,,,,433.7762,1,audio/Narrative8Situation9.wav,436.7897,,436.7897,448.1068,"[[49.8,10167],[50.2,10200],[50.3,10233],[50.4,10267],[50.4,10300],[50.4,10336],[49.8,10368],[49,10400],[47.4,10433],[45.7,10467],[44.2,10500],[42.6,10533],[41,10567],[38.9,10601],[35.4,10634],[32.9,10667],[31.6,10701],[30.9,10733],[30.6,10767],[30.6,10801],[30.6,10833],[30.6,10867],[30.7,10900],[30.7,10933],[31.1,10967],[31.3,11000],[31.5,11033],[31.7,11067],[31.7,11100],[31.7,11134],[31.7,11166],[31.7,11200],[31.7,11233],[31.7,11266],[31.7,11302]]",1,0,448.107,451.8401,31.14583492,3.7231,"[{""rating"":31.145834922790527,""responseTime"":3.7230999999642336}]",space,1.4235,,451.8401,Not at all,0,451.8425,,,[],,0,9,9,9,1,audio/Narrative7Situation9.wav,audio/Narrative8Situation9.wav,audio/Narrative5Situation9.wav,audio/Narrative6Situation9.wav,2,3,3,4,,,,,,,,,,,,,,,,,,,,,,,,,,,,,,,,,,,,,,,
,,,,,,6410e0ba81f88046afa861ca,2024-02-08_16h05.23.020,group3.1-3.2-social-tom,2023.2.2,Win32,29.94011976,65c5074098b851296ff0b7ed,65c5417075e1c9f5133794a3,,,,,,,,,,,,,,,,,,,,,,,,,,,,,451.8428,1,audio/Narrative7Situation1.wav,453.8572,,453.8572,509.7585,"[[999,0],[999,32],[999,66],[999,99],[999,132],[999,166],[999,200],[999,232],[999,266],[999,299],[999,332],[999,366],[999,399],[999,433],[999,466],[999,499],[999,532],[999,566],[999,599],[999,632],[999,666],[999,699],[999,732],[999,766],[999,799],[999,833],[999,866],[999,899],[999,932],[999,966],[999,999],[999,1032],[999,1066],[999,1099],[999,1132],[999,1166],[999,1199],[999,1232],[999,1266],[999,1300],[999,1332],[999,1366],[999,1399],[999,1433],[999,1466],[999,1499],[999,1532],[999,1566],[999,1599],[999,1633],[999,1666],[999,1699],[999,1732],[999,1766],[999,1799],[999,1832],[999,1866],[999,1899],[999,1932],[999,1966],[999,2003],[999,2033],[999,2066],[999,2099],[999,2132],[999,2166],[999,2199],[999,2233],[999,2265],[999,2300],[999,2332],[999,2366],[999,2399],[999,2432],[999,2466],[999,2499],[999,2532],[999,2566],[999,2600],[999,2632],[999,2666],[999,2699],[999,2732],[999,2766],[999,2799],[999,2832],[999,2866],[999,2899],[999,2933],[999,2966],[999,2999],[999,3032],[999,3066],[999,3101],[999,3134],[999,3168],[999,3200],[999,3233],[999,3268],[999,3299],[999,3333],[51.6,3367],[51.6,3402],[51.5,3432],[51.4,3466],[51.1,3500],[50.6,3533],[49.3,3566],[47.6,3599],[47,3633],[46.4,3668],[46.1,3700],[46,3733],[46,3766],[46,3799],[46,3832],[46,3866],[46,3899],[46,3932],[46,3966],[46,3999],[46,4033],[46,4066],[47.8,4099],[49.6,4133],[50.9,4166],[51.6,4200],[52.1,4233],[52.4,4266],[52.6,4300],[52.6,4332],[52.6,4366],[52.6,4399],[52.6,4432],[52.6,4466],[52.6,4499],[52.6,4533],[52.6,4566],[52.6,4599],[52.6,4632],[52.6,4666],[52.4,4702],[51.8,4734],[50.5,4766],[49.3,4800],[47.5,4833],[44.2,4866],[42.2,4899],[41.2,4933],[40.2,4966],[39.8,5000],[39.7,5033],[39.7,5066],[39.7,5099],[39.7,5133],[39.7,5166],[39.7,5199],[39.7,5232],[39.7,5266],[39.7,5299],[39.7,5333],[37.8,5366],[35.1,5399],[33.6,5433],[32.9,5466],[32.4,5500],[32,5534],[31.4,5566],[30.8,5600],[30.4,5633],[30.1,5667],[30,5699],[29.9,5732],[29.9,5766],[29.9,5799],[29.9,5833],[29.9,5866],[29.9,5899],[29.9,5932],[29.9,5966],[29.9,5999],[29.9,6033],[29.9,6067],[29.9,6099],[29.9,6132],[29.9,6166],[29.9,6200],[29.9,6233],[29.9,6266],[29.9,6299],[29.9,6333],[29.9,6366],[29.9,6399],[29.9,6432],[29.9,6466],[29.9,6499],[29.9,6533],[29.9,6566],[29.9,6599],[29.9,6633],[29.9,6667],[29.9,6700],[29.9,6733],[29.9,6766],[29.9,6800],[29.9,6833],[29.9,6866],[29.9,6899],[29.9,6933],[29.9,6966],[29.9,6999],[29.9,7033],[29.9,7066],[29.9,7099],[29.9,7133],[29.9,7166],[29.9,7199],[29.9,7233],[29.9,7266],[29.9,7299],[29.9,7332],[29.9,7366],[29.9,7399],[29.9,7432],[29.9,7466],[29.9,7499],[29.9,7533],[29.9,7566],[29.9,7599],[29.9,7633],[29.9,7666],[29.9,7699],[29.9,7733],[29.9,7766],[29.9,7799],[29.9,7832],[29.9,7866],[29.9,7899],[29.9,7932],[29.9,7966],[29.9,7999],[29.9,8033],[29.9,8066],[29.9,8100],[29.9,8132],[29.9,8167],[29.9,8199],[29.9,8233],[29.9,8266],[29.9,8299],[29.9,8332],[29.9,8366],[29.9,8399],[29.9,8432],[29.9,8466],[29.9,8499],[29.9,8533],[29.9,8566],[29.9,8600],[29.9,8633],[29.9,8666],[29.9,8699],[29.9,8733],[29.9,8766],[29.9,8799],[29.9,8832],[29.9,8866],[29.9,8899],[29.9,8932],[29.9,8966],[29.9,8999],[29.9,9033],[29.9,9067],[29.9,9099],[29.9,9133],[29.9,9166],[29.9,9199],[29.9,9232],[29.9,9266],[29.9,9300],[29.9,9333],[29.9,9366],[29.9,9399],[29.9,9432],[29.9,9466],[29.9,9499],[29.9,9533],[29.9,9566],[29.9,9599],[29.9,9633],[29.9,9666],[29.9,9700],[29.9,9732],[29.9,9766],[29.9,9799],[29.9,9833],[29.9,9866],[29.9,9899],[29.9,9933],[29.9,9966],[29.9,10000],[29.9,10033],[29.9,10066],[29.9,10099],[29.9,10133],[29.9,10166],[29.9,10199],[29.9,10233],[29.9,10266],[29.9,10300],[29.9,10333],[29.9,10366],[29.9,10399],[29.9,10432],[29.9,10466],[29.9,10499],[29.9,10533],[29.9,10566],[29.9,10600],[29.9,10633],[30.2,10676],[30.2,10699],[30.4,10733],[30.5,10768],[30.7,10800],[30.7,10833],[30.7,10866],[30.7,10899],[30.7,10932],[30.7,10966],[30.7,11000],[30.7,11032],[30.7,11066],[30.7,11099],[30.7,11133],[30.7,11166],[30.7,11200],[30.7,11233],[30.7,11266],[30.7,11299],[30.7,11333],[30.7,11368],[30.7,11400],[30.7,11432],[30.7,11466],[30.7,11499],[30.7,11533],[30.7,11566],[30.7,11599],[30.7,11633],[30.7,11666],[30.7,11699],[30.7,11733],[30.7,11766],[30.7,11799],[30.7,11832],[30.7,11866],[30.7,11899],[30.7,11933],[30.7,11966],[30.7,11999],[30.7,12033],[30.7,12066],[30.7,12099],[30.7,12133],[30.7,12166],[30.7,12200],[30.7,12233],[30.7,12266],[30.7,12299],[30.7,12333],[30.7,12366],[30.7,12399],[30.7,12432],[30.7,12466],[30.7,12499],[30.7,12533],[30.7,12566],[30.7,12599],[30.7,12633],[30.7,12666],[30.7,12700],[30.7,12733],[30.9,12766],[30.9,12800],[30.9,12833],[30.9,12866],[30.9,12899],[30.9,12933],[30.9,12966],[30.9,13000],[30.9,13033],[30.9,13066],[30.9,13099],[30.9,13133],[30.9,13166],[30.9,13199],[30.9,13233],[30.9,13266],[30.9,13300],[30.9,13333],[30.9,13366],[30.9,13399],[30.9,13433],[30.9,13466],[30.9,13500],[30.9,13533],[30.9,13566],[30.9,13600],[30.9,13632],[30.9,13666],[30.9,13699],[30.9,13733],[30.9,13766],[30.9,13800],[30.9,13833],[30.9,13866],[30.9,13899],[30.9,13934],[30.9,13967],[30.9,14000],[30.9,14033],[30.9,14066],[30.9,14100],[30.9,14133],[30.9,14166],[30.9,14200],[30.9,14234],[30.9,14266],[30.9,14299],[30.9,14333],[30.9,14366],[30.9,14399],[30.9,14433],[30.9,14466],[30.9,14500],[30.9,14533],[30.9,14566],[30.9,14599],[30.9,14633],[30.9,14666],[30.9,14699],[30.9,14733],[30.9,14766],[30.9,14799],[30.9,14833],[30.9,14866],[30.9,14899],[30.9,14934],[30.9,14966],[30.9,14999],[30.9,15033],[30.9,15067],[30.9,15100],[30.9,15133],[30.9,15166],[30.9,15200],[30.9,15233],[30.9,15266],[30.9,15300],[30.9,15333],[30.9,15366],[30.9,15400],[30.9,15433],[30.9,15466],[30.9,15500],[30.9,15533],[30.9,15566],[30.9,15599],[30.9,15634],[30.9,15666],[30.9,15699],[30.9,15733],[30.9,15766],[30.9,15799],[30.9,15833],[30.9,15866],[30.9,15900],[30.9,15933],[30.9,15966],[30.9,15999],[30.9,16033],[30.9,16066],[30.9,16099],[30.9,16133],[30.9,16167],[30.9,16199],[30.9,16233],[30.9,16266],[30.9,16299],[30.9,16333],[30.9,16366],[30.9,16399],[30.9,16433],[30.9,16466],[30.9,16500],[30.9,16533],[30.9,16566],[30.9,16600],[30.9,16633],[30.9,16666],[30.9,16699],[30.9,16733],[30.9,16767],[30.9,16800],[30.9,16833],[30.9,16866],[30.9,16899],[30.9,16933],[31.1,16966],[31.5,17000],[31.7,17034],[32.1,17068],[32.6,17100],[33,17134],[33.4,17167],[33.9,17201],[34.2,17233],[34.4,17267],[34.4,17300],[34.4,17333],[34.4,17366],[34.4,17400],[34.4,17433],[34.4,17466],[34.4,17499],[34.4,17533],[34.4,17566],[34.4,17599],[34.4,17633],[34.4,17666],[34.4,17699],[34.4,17733],[34.4,17767],[34.4,17800],[34.4,17833],[34.4,17866],[34.4,17900],[34.4,17933],[34.4,17966],[34.4,17999],[34.4,18033],[34.4,18066],[34.4,18100],[34.4,18133],[34.4,18166],[34.4,18200],[34.4,18233],[34.4,18266],[34.4,18300],[34.4,18333],[34.4,18367],[34.4,18399],[34.4,18433],[34.4,18466],[34.4,18500],[34.4,18533],[34.4,18566],[34.4,18599],[34.4,18633],[34.4,18666],[34.4,18700],[34.4,18733],[34.4,18766],[34.4,18799],[34.4,18833],[34.4,18866],[34.4,18899],[34.4,18933],[34.4,18966],[34.4,19000],[34.4,19033],[34.4,19066],[34.4,19100],[34.4,19133],[34.4,19166],[34.4,19200],[34.4,19233],[34.4,19268],[34.4,19300],[34.4,19333],[34.4,19366],[34.4,19400],[34.4,19433],[34.4,19467],[34.4,19499],[34.4,19533],[34.4,19566],[34.4,19599],[34.4,19633],[34.4,19666],[34.4,19699],[34.4,19733],[34.4,19766],[34.4,19799],[34.4,19833],[34.4,19866],[34.4,19899],[34.4,19933],[34.4,19966],[34.4,20000],[34.4,20033],[34.4,20066],[34.4,20099],[34.4,20133],[34.4,20166],[34.4,20200],[34.4,20233],[34.4,20267],[34.4,20299],[34.4,20333],[34.4,20366],[34.4,20399],[34.4,20433],[34.4,20466],[34.4,20500],[34.4,20533],[34.4,20566],[34.4,20600],[34.4,20633],[34.4,20666],[34.4,20700],[34.4,20733],[34.4,20766],[34.4,20800],[34.4,20833],[34.4,20866],[34.4,20900],[34.4,20933],[34.4,20967],[34.4,21000],[34.4,21033],[34.4,21066],[34.4,21100],[34.4,21133],[34.4,21166],[34.4,21200],[34.4,21234],[34.4,21268],[34.4,21299],[34.4,21333],[34.4,21366],[34.4,21400],[34.4,21433],[34.4,21467],[34.4,21499],[34.4,21533],[34.4,21566],[34.4,21600],[34.4,21633],[34.4,21666],[34.4,21699],[34.4,21733],[34.4,21766],[34.4,21800],[34.4,21833],[34.4,21866],[34.4,21900],[34.4,21933],[34.4,21966],[34.4,21999],[34.4,22033],[34.4,22068],[34.4,22100],[34.4,22133],[34.4,22167],[34.4,22200],[34.4,22234],[34.4,22266],[34.4,22300],[34.4,22333],[34.4,22366],[34.4,22399],[34.4,22433],[34.4,22466],[34.4,22500],[34.4,22533],[34.4,22566],[34.4,22599],[34.4,22633],[34.4,22667],[34.4,22700],[34.4,22733],[34.4,22766],[34.4,22800],[34.4,22833],[34.4,22866],[34.4,22900],[34.4,22934],[34.4,22966],[34.4,22999],[34.4,23033],[34.4,23066],[34.4,23100],[34.4,23133],[34.4,23166],[34.4,23200],[34.4,23234],[34.4,23266],[34.4,23300],[34.4,23333],[34.4,23367],[34.4,23400],[34.4,23433],[34.4,23466],[34.4,23500],[34.4,23534],[34.4,23568],[34.4,23600],[34.4,23633],[34.4,23666],[34.4,23700],[34.4,23733],[34.4,23766],[34.4,23800],[34.4,23834],[34.4,23866],[34.4,23900],[34.4,23934],[34.4,23966],[34.4,24000],[34.4,24033],[34.4,24066],[34.4,24100],[34.4,24133],[34.4,24166],[34.4,24200],[34.4,24233],[34.4,24267],[34.4,24300],[34.4,24333],[34.4,24366],[34.4,24401],[34.4,24433],[34.4,24466],[34.4,24500],[34.4,24534],[34.4,24566],[34.4,24600],[34.4,24633],[34.4,24666],[34.4,24700],[34.4,24733],[34.4,24767],[34.4,24800],[34.4,24833],[34.4,24866],[34.4,24900],[34.4,24933],[34.4,24967],[34.4,25000],[34.4,25033],[34.4,25067],[34.4,25100],[34.4,25133],[34.4,25167],[34.4,25200],[34.4,25233],[34.4,25266],[34.4,25300],[34.4,25333],[34.4,25366],[34.4,25400],[34.4,25433],[34.4,25466],[34.4,25500],[34.4,25533],[34.4,25566],[34.4,25600],[34.4,25633],[34.4,25666],[34.4,25700],[34.4,25733],[34.4,25766],[34.4,25799],[34.4,25833],[34.4,25866],[34.4,25900],[34.4,25933],[34.4,25967],[34.4,26000],[34.4,26033],[34.4,26066],[34.4,26100],[34.4,26133],[34.4,26167],[34.4,26200],[34.4,26233],[34.4,26266],[34.4,26300],[34.4,26333],[34.4,26367],[34.4,26399],[34.4,26433],[34.4,26466],[34.4,26500],[34.4,26533],[34.4,26567],[34.4,26600],[34.4,26633],[34.4,26666],[34.4,26701],[34.4,26733],[34.4,26767],[34.4,26800],[34.4,26833],[34.4,26866],[34.4,26900],[34.4,26934],[34.4,26966],[34.4,27000],[34.4,27033],[34.4,27067],[34.4,27099],[34.4,27133],[34.4,27166],[34.4,27200],[34.4,27233],[34.4,27266],[34.4,27300],[34.4,27333],[34.4,27366],[34.4,27400],[34.4,27433],[34.4,27466],[34.4,27500],[34.4,27533],[34.4,27567],[34.4,27600],[34.4,27633],[34.4,27666],[34.4,27700],[34.4,27733],[34.4,27766],[34.4,27800],[34.4,27833],[34.4,27866],[34.4,27900],[34.4,27933],[34.4,27966],[34.4,28000],[34.4,28033],[34.4,28067],[34.4,28100],[34.4,28133],[34.4,28166],[34.4,28200],[34.4,28233],[34.4,28266],[34.4,28300],[34.4,28334],[34.4,28368],[34.4,28400],[34.4,28433],[34.4,28467],[34.4,28500],[34.4,28533],[34.4,28567],[34.4,28600],[34.4,28634],[34.4,28666],[34.4,28700],[34.4,28734],[34.4,28767],[34.4,28801],[34.4,28833],[34.4,28867],[34.4,28900],[34.4,28934],[34.4,28967],[34.4,29000],[34.4,29034],[34.4,29067],[34.4,29100],[34.4,29133],[34.4,29166],[34.4,29200],[34.4,29234],[34.4,29267],[34.4,29300],[34.4,29334],[34.4,29367],[34.4,29400],[34.4,29433],[34.4,29466],[34.4,29500],[34.4,29534],[34.4,29567],[34.4,29600],[34.4,29633],[34.4,29667],[34.4,29700],[34.4,29733],[34.4,29766],[34.4,29800],[34.4,29833],[34.4,29867],[34.4,29900],[34.4,29933],[34.4,29967],[34.4,30000],[34.4,30033],[34.4,30066],[34.4,30100],[34.4,30133],[34.4,30166],[34.4,30200],[34.4,30233],[34.4,30266],[34.4,30300],[34.4,30333],[34.4,30366],[34.4,30400],[34.4,30433],[34.4,30466],[34.4,30500],[34.4,30533],[34.4,30566],[34.4,30600],[34.4,30633],[34.4,30666],[34.4,30700],[34.4,30734],[34.4,30767],[34.4,30800],[34.4,30833],[34.4,30866],[34.4,30900],[34.4,30933],[34.4,30967],[34.4,31000],[34.4,31033],[34.4,31067],[34.4,31100],[34.4,31133],[34.4,31167],[34.4,31200],[34.4,31233],[34.4,31267],[34.4,31300],[34.4,31334],[34.4,31366],[34.4,31400],[34.4,31434],[34.4,31468],[34.4,31500],[34.4,31534],[34.4,31567],[34.4,31600],[34.4,31633],[34.4,31666],[34.4,31700],[34.4,31733],[34.4,31766],[34.4,31800],[34.4,31834],[34.4,31867],[34.4,31900],[34.4,31933],[34.4,31966],[34.4,32000],[34.4,32033],[34.4,32067],[34.4,32100],[34.4,32133],[34.4,32167],[34.4,32200],[34.4,32233],[34.4,32267],[34.4,32300],[34.4,32333],[34.4,32367],[34.4,32400],[34.4,32433],[34.4,32466],[34.4,32500],[34.4,32533],[34.4,32567],[34.4,32600],[34.4,32633],[34.4,32666],[34.4,32700],[34.4,32733],[34.4,32767],[34.4,32800],[34.4,32833],[34.4,32867],[34.4,32900],[34.4,32933],[34.4,32966],[34.4,33000],[34.4,33034],[34.4,33067],[34.4,33100],[34.4,33133],[34.4,33167],[34.4,33200],[34.4,33233],[34.4,33267],[34.4,33308],[34.4,33333],[34.4,33367],[34.4,33400],[34.4,33433],[34.4,33467],[34.4,33500],[34.4,33534],[34.4,33567],[34.4,33600],[34.4,33634],[34.4,33667],[34.4,33700],[34.4,33733],[34.4,33767],[34.4,33800],[34.4,33833],[34.4,33867],[34.4,33900],[34.4,33933],[34.4,33966],[34.4,34000],[34.4,34033],[34.4,34067],[34.4,34100],[34.4,34133],[34.4,34167],[34.4,34200],[34.4,34234],[34.4,34267],[34.4,34300],[34.4,34333],[34.4,34366],[34.4,34400],[34.4,34433],[34.4,34466],[34.4,34500],[34.4,34533],[34.4,34567],[34.4,34600],[34.4,34633],[34.4,34667],[34.4,34701],[34.4,34733],[34.4,34767],[34.4,34800],[34.4,34833],[34.4,34867],[34.4,34900],[34.4,34933],[34.4,34967],[34.4,35000],[34.4,35034],[34.4,35066],[34.4,35101],[34.4,35133],[34.4,35167],[34.4,35200],[34.4,35233],[34.4,35267],[34.4,35300],[34.4,35334],[34.4,35368],[34.4,35400],[34.4,35433],[34.4,35467],[34.4,35500],[34.4,35533],[34.4,35566],[34.4,35600],[34.4,35633],[34.4,35667],[34.4,35701],[34.4,35734],[34.4,35767],[34.4,35800],[34.4,35833],[34.4,35866],[34.4,35900],[34.4,35933],[34.4,35967],[34.4,36000],[34.4,36033],[34.4,36067],[34.4,36100],[34.4,36133],[34.4,36167],[34.4,36200],[34.4,36233],[34.4,36266],[34.4,36300],[34.4,36333],[34.4,36367],[34.4,36400],[34.4,36433],[34.4,36467],[34.4,36500],[34.4,36534],[34.4,36567],[34.4,36600],[34.4,36633],[34.4,36667],[34.4,36700],[34.4,36733],[34.4,36767],[34.4,36801],[34.4,36833],[34.4,36866],[34.4,36900],[34.4,36933],[34.4,36967],[34.4,37000],[34.4,37034],[34.4,37067],[34.4,37100],[34.4,37133],[34.4,37167],[34.4,37200],[34.4,37233],[34.4,37267],[34.4,37301],[34.4,37334],[34.4,37366],[34.4,37400],[34.4,37433],[34.4,37466],[34.4,37500],[34.4,37534],[34.4,37567],[34.4,37600],[34.4,37633],[34.4,37667],[34.4,37700],[34.4,37734],[34.4,37768],[34.4,37800],[34.4,37833],[34.4,37867],[34.4,37900],[34.4,37934],[34.4,37966],[34.4,38000],[34.4,38033],[34.4,38067],[34.4,38100],[34.4,38133],[34.4,38167],[34.4,38200],[34.4,38234],[34.4,38267],[34.4,38300],[34.4,38333],[34.4,38367],[34.4,38400],[34.4,38434],[34.4,38467],[34.4,38500],[34.4,38533],[34.4,38567],[34.4,38600],[34.4,38634],[34.4,38667],[34.4,38700],[34.4,38733],[34.4,38767],[34.4,38800],[34.4,38833],[34.4,38867],[34.4,38900],[34.4,38933],[34.4,38967],[34.4,39000],[34.4,39034],[34.4,39067],[34.4,39100],[34.4,39133],[34.4,39167],[34.4,39200],[34.4,39234],[34.4,39267],[34.4,39300],[34.4,39334],[34.4,39367],[34.4,39400],[34.4,39433],[34.4,39467],[34.4,39500],[34.4,39534],[34.4,39567],[34.4,39600],[34.4,39634],[34.4,39667],[34.4,39700],[34.4,39734],[34.4,39767],[34.4,39800],[34.4,39834],[34.4,39867],[34.4,39900],[34.4,39933],[34.4,39967],[34.4,40000],[34.4,40033],[34.4,40067],[34.4,40100],[34.4,40133],[34.4,40167],[34.4,40200],[34.4,40233],[34.4,40267],[34.4,40300],[34.4,40333],[34.4,40367],[34.4,40400],[34.4,40434],[34.4,40467],[34.4,40500],[34.4,40534],[34.4,40567],[34.4,40600],[34.4,40634],[34.4,40667],[34.4,40700],[34.4,40734],[34.4,40767],[34.4,40801],[34.4,40834],[34.4,40867],[34.4,40900],[34.4,40933],[34.4,40967],[34.4,41001],[34.4,41033],[34.4,41067],[34.4,41101],[34.4,41134],[34.4,41167],[34.4,41200],[34.4,41234],[34.4,41267],[34.4,41300],[34.4,41334],[34.4,41367],[34.4,41400],[34.4,41434],[34.4,41467],[34.4,41500],[34.4,41533],[34.4,41567],[34.4,41600],[34.4,41633],[34.4,41667],[34.4,41700],[34.4,41734],[34.4,41767],[34.4,41800],[34.4,41833],[34.4,41867],[34.4,41900],[34.4,41934],[34.4,41967],[34.4,42000],[34.4,42033],[34.4,42067],[34.4,42101],[34.4,42134],[34.4,42167],[34.4,42200],[34.4,42233],[34.4,42269],[34.4,42300],[34.4,42334],[34.4,42367],[34.4,42400],[34.4,42433],[34.4,42467],[34.4,42500],[34.4,42534],[34.4,42567],[34.4,42600],[34.4,42633],[34.4,42667],[34.4,42701],[34.4,42734],[34.4,42767],[34.4,42800],[34.4,42834],[34.4,42867],[34.4,42900],[34.4,42934],[34.4,42967],[34.4,43000],[34.4,43033],[34.4,43067],[34.4,43101],[34.4,43133],[34.4,43167],[34.4,43200],[34.4,43234],[34.4,43267],[34.4,43300],[34.4,43334],[34.4,43368],[34.4,43400],[34.4,43433],[34.4,43467],[34.4,43500],[34.4,43533],[34.4,43567],[34.4,43600],[34.4,43633],[34.4,43667],[34.4,43701],[34.4,43734],[34.4,43767],[34.4,43800],[34.4,43834],[34.4,43867],[34.4,43900],[34.4,43933],[34.4,43967],[34.4,44000],[34.4,44033],[34.4,44067],[34.4,44100],[34.4,44134],[34.4,44167],[34.4,44200],[34.4,44234],[34.4,44267],[34.4,44300],[34.4,44333],[34.4,44367],[34.4,44400],[34.4,44433],[34.4,44467],[34.4,44500],[34.4,44533],[34.4,44567],[34.4,44600],[34.4,44633],[34.4,44667],[34.4,44701],[34.4,44733],[34.4,44768],[34.4,44800],[34.4,44834],[34.4,44867],[34.4,44900],[34.4,44933],[34.4,44967],[34.4,45000],[34.4,45033],[34.4,45067],[34.4,45101],[34.4,45134],[34.4,45167],[34.4,45201],[34.4,45234],[34.4,45268],[34.4,45300],[34.4,45334],[34.4,45367],[34.4,45400],[34.4,45434],[34.4,45467],[35.2,45503],[35.6,45534],[36.4,45568],[36.9,45600],[37.3,45634],[37.8,45667],[38.3,45701],[38.5,45734],[39.1,45768],[39.3,45801],[39.4,45834],[39.6,45867],[40.1,45901],[40.6,45934],[41.2,45967],[41.9,46001],[42.2,46035],[42.4,46067],[42.5,46100],[42.5,46134],[42.5,46167],[42.5,46200],[42.5,46234],[42.5,46267],[42.6,46300],[42.6,46333],[42.6,46367],[42.6,46401],[42.6,46434],[42.6,46467],[42.6,46500],[42.6,46534],[42.6,46567],[42.6,46601],[42.6,46634],[42.6,46667],[42.6,46701],[42.6,46734],[42.6,46767],[42.6,46801],[42.6,46833],[42.6,46867],[42.6,46900],[42.6,46934],[43.1,46967],[44.5,47001],[45.6,47034],[46.5,47068],[47.1,47102],[47.8,47134],[48.2,47167],[48.6,47201],[49.2,47234],[49.7,47267],[50,47301],[50.4,47336],[50.7,47368],[51.1,47401],[51.5,47434],[52,47467],[52.7,47500],[53.4,47534],[54.2,47568],[55,47602],[55.8,47635],[56.5,47667],[56.8,47701],[57.3,47734],[57.9,47767],[58.3,47800],[58.6,47834],[58.9,47867],[59.1,47901],[59.2,47934],[59.2,47967],[59.2,48000],[59.2,48034],[59.3,48067],[59.3,48100],[59.4,48134],[59.8,48167],[59.9,48201],[60.2,48234],[60.2,48267],[60.2,48300],[60.2,48334],[60.2,48367],[60.2,48400],[60.2,48433],[60.2,48467],[60.2,48501],[60.2,48534],[60.2,48567],[60.2,48600],[60.2,48634],[60.2,48667],[60.2,48700],[60.2,48734],[60.2,48767],[60.2,48800],[60.2,48834],[60.2,48867],[60.2,48900],[60.2,48934],[60.2,48967],[60.2,49001],[60.2,49034],[60.2,49067],[60.2,49100],[60.2,49134],[60.2,49167],[60.2,49200],[60.2,49234],[60.2,49267],[60.2,49300],[60.2,49334],[60.2,49367],[60.2,49401],[60.2,49434],[60.2,49467],[60.2,49500],[60.2,49534],[60.2,49567],[60.2,49601],[60.2,49633],[60.2,49667],[60.2,49701],[60.2,49734],[60.2,49767],[60.2,49800],[60.2,49834],[60.2,49867],[60.2,49900],[60.2,49934],[60.2,49967],[60.2,50001],[60.2,50034],[60.2,50067],[60.2,50104],[60.2,50134],[60.2,50168],[60.2,50200],[60.2,50234],[60.2,50267],[60.2,50300],[60.2,50334],[60.2,50368],[60.2,50400],[60.2,50434],[60.2,50467],[60.2,50501],[60.2,50534],[60.2,50567],[60.2,50601],[60.2,50634],[60.2,50667],[60.2,50701],[60.2,50734],[60.2,50767],[60.2,50800],[60.2,50834],[60.2,50867],[60.2,50900],[60.2,50933],[60.2,50967],[60.2,51001],[60.2,51033],[60.2,51067],[60.2,51100],[60.2,51134],[60.2,51167],[60.2,51201],[60.2,51234],[60.2,51267],[60.2,51300],[60.2,51334],[60.2,51367],[60.2,51400],[60.2,51434],[60.2,51467],[60.2,51501],[60.2,51534],[60.2,51567],[60.2,51600],[60.2,51633],[60.2,51667],[60.2,51700],[60.2,51734],[60.2,51767],[60.2,51800],[60.2,51834],[60.2,51869],[60.2,51900],[60.2,51934],[60.2,51967],[60.2,52000],[60.2,52034],[60.2,52067],[60.2,52100],[60.2,52137],[60.2,52167],[60.2,52200],[60.2,52234],[60.2,52267],[60.2,52300],[60.2,52334],[60.2,52367],[60.2,52401],[60.2,52434],[60.2,52467],[60.2,52501],[60.2,52534],[60.2,52567],[60.2,52600],[60.2,52634],[60.2,52667],[60.2,52700],[60.2,52734],[60.2,52767],[60.2,52801],[60.2,52834],[60.2,52867],[60.2,52900],[60.2,52934],[60.2,52967],[60.2,53000],[60.2,53034],[60.2,53067],[60.2,53100],[60.2,53134],[60.2,53167],[60.2,53200],[60.2,53234],[60.2,53267],[60.2,53300],[60.2,53334],[60.2,53367],[60.2,53400],[60.2,53434],[60.2,53467],[60.2,53500],[60.2,53534],[60.2,53567],[60.2,53600],[60.2,53634],[60.2,53667],[60.2,53701],[60.2,53734],[60.2,53767],[60.2,53800],[60.2,53834],[60.2,53867],[60.2,53901],[60.2,53934],[60.2,53968],[60.2,54000],[60.2,54033],[60.2,54067],[60.2,54100],[60.2,54134],[60.2,54167],[60.2,54200],[60.2,54234],[60.2,54268],[60.2,54300],[60.2,54334],[60.2,54367],[60.2,54400],[60.2,54435],[60.2,54467],[60.2,54500],[60.2,54534],[60.2,54567],[60.2,54601],[60.2,54634],[60.2,54667],[60.2,54701],[60.2,54735],[60.2,54767],[60.2,54800],[60.2,54834],[60.2,54867],[60.2,54900],[60.2,54934],[60.2,54967],[60.2,55000],[60.2,55034],[60.2,55067],[60.2,55100],[60.2,55134],[60.2,55167],[60.2,55201],[60.2,55234],[60.2,55267],[60.2,55300],[60.2,55334],[60.2,55367],[60.2,55401],[60.2,55434],[60.2,55467],[60.2,55501],[60.2,55534],[60.2,55567],[60.2,55600],[60.2,55634],[60.2,55667],[60.2,55700],[60.2,55734],[60.2,55767],[60.2,55800],[60.2,55834],[60.2,55867],[60.2,55900]]",1,0,509.7591,512.3417,60.20833651,0.1615,"[{""rating"":60.20833651224772,""responseTime"":0.16150000000004638}]",space,2.0408,,512.3418,Half the time,50,512.3453,,,[],,0,10,10,10,1,audio/Narrative8Situation1.wav,audio/Narrative7Situation1.wav,audio/Narrative6Situation1.wav,audio/Narrative5Situation1.wav,5,2,2,5,,,,,,,,,,,,,,,,,,,,,,,,,,,,,,,,,,,,,,,
,,,,,,6410e0ba81f88046afa861ca,2024-02-08_16h05.23.020,group3.1-3.2-social-tom,2023.2.2,Win32,29.94011976,65c5074098b851296ff0b7ed,65c5417075e1c9f5133794a3,,,,,,,,,,,,,,,,,,,,,,,,,,,,,512.3456,1,audio/Narrative7Situation2.wav,515.3582,,515.3582,522.8257,"[[59.9,1967],[59.6,2000],[59.5,2033],[59.3,2066],[59.1,2100],[59.1,2135],[59.1,2166],[59.1,2199],[59.1,2233],[59.1,2267],[59.1,2300],[59.1,2333],[59.1,2367],[59.1,2400],[59.1,2433],[59.1,2466],[59.1,2500],[59.6,2533],[59.7,2566],[59.9,2600],[59.9,2635],[60,2670],[60.1,2700],[60.4,2734],[60.4,2767],[60.4,2800],[60.4,2833],[60.4,2866],[60.4,2899],[60.4,2933],[60.4,2966],[60.4,3000],[60.4,3033],[60.4,3066],[60.4,3100],[60.4,3133],[60.4,3167],[60.4,3200],[60.4,3233],[60.4,3266],[60.4,3300],[60.4,3333],[60.4,3366],[60.4,3400],[60.4,3433],[60.4,3466],[60.4,3500],[60.4,3533],[60.4,3566],[60.4,3600],[60.4,3633],[60.4,3666],[60.4,3700],[60.4,3733],[60.4,3766],[60.4,3800],[60.4,3833],[60.4,3866],[60.4,3900],[60.4,3933],[60.4,3966],[60.4,4000],[60.4,4033],[60.4,4066],[60.4,4100],[60.4,4133],[60.4,4166],[60.4,4200],[60.4,4233],[60.4,4266],[60.4,4300],[60.4,4333],[60.4,4366],[60.4,4400],[60.4,4433],[60.4,4466],[60.4,4500],[60.4,4533],[60.4,4567],[60.4,4600],[60.4,4633],[60.4,4666],[60.4,4700],[60.4,4733],[60.4,4766],[60.4,4800],[60.4,4833],[60.4,4866],[60.4,4900],[60.4,4933],[60.4,4966],[60.4,5000],[60.4,5033],[60.4,5068],[60.4,5100],[60.4,5134],[60.4,5166],[60.4,5200],[60.4,5233],[60.4,5266],[60.4,5300],[60.4,5333],[60.4,5366],[60.4,5400],[60.4,5433],[60.4,5466],[60.4,5500],[60.4,5533],[60.4,5566],[60.4,5600],[60.4,5633],[60.4,5666],[60.4,5700],[60.4,5733],[60.4,5767],[60.4,5800],[60.4,5833],[60.4,5867],[60.4,5900],[60.4,5933],[60.4,5967],[60.4,6000],[60.4,6033],[60.4,6066],[60.4,6100],[60.4,6133],[60.4,6167],[60.4,6200],[60.4,6233],[60.4,6266],[60.4,6300],[60.4,6333],[60.4,6366],[60.4,6400],[60.4,6433],[60.4,6467],[60.4,6500],[60.4,6533],[60.4,6567],[60.4,6600],[60.4,6633],[60.4,6667],[60.4,6700],[60.4,6733],[60.4,6767],[60.4,6800],[60.4,6833],[60.4,6866],[60.4,6900],[60.4,6934],[60.4,6967],[60.4,7000],[60.4,7033],[60.4,7067],[60.4,7100],[60.4,7133],[60.4,7166],[60.4,7200],[60.4,7233],[60.4,7266],[60.4,7300],[60.4,7333],[60.4,7366],[60.4,7400],[60.4,7433],[60.4,7467]]",1,0,522.8261,526.0921,50,2.4106,"[{""rating"":50,""responseTime"":2.4105999999643473}]",space,2.719,,526.0921,Not at all,0,526.0954,,,[],,0,11,11,11,1,audio/Narrative8Situation2.wav,audio/Narrative7Situation2.wav,audio/Narrative6Situation2.wav,audio/Narrative5Situation2.wav,3,3,3,3,,,,,,,,,,,,,,,,,,,,,,,,,,,,,,,,,,,,,,,
,,,,,,6410e0ba81f88046afa861ca,2024-02-08_16h05.23.020,group3.1-3.2-social-tom,2023.2.2,Win32,29.94011976,65c5074098b851296ff0b7ed,65c5417075e1c9f5133794a3,,,,,,,,,,,,,,,,,,,,,,,,,,,,,526.0957,1,audio/Narrative7Situation3.wav,534.1089,,534.109,543.3754,[],1,0,543.3755,551.5422,36.04166508,7.1177,"[{""rating"":36.04166507720947,""responseTime"":7.117699999988076}]",space,7.6332,,551.5422,Not at all,0,551.5433,,,[],,0,12,12,12,1,audio/Narrative8Situation3.wav,audio/Narrative7Situation3.wav,audio/Narrative6Situation3.wav,audio/Narrative5Situation3.wav,4,8,5,3,,,,,,,,,,,,,,,,,,,,,,,,,,,,,,,,,,,,,,,
,,,,,,6410e0ba81f88046afa861ca,2024-02-08_16h05.23.020,group3.1-3.2-social-tom,2023.2.2,Win32,29.94011976,65c5074098b851296ff0b7ed,65c5417075e1c9f5133794a3,,,,,,,,,,,,,,,,,,,,,,,,,,,,,551.5434,1,audio/Narrative7Situation4.wav,554.559,,554.559,566.2925,"[[999,0],[999,33],[999,66],[999,99],[999,133],[999,166],[999,199],[999,233],[999,266],[999,299],[999,333],[999,366],[999,399],[999,433],[999,466],[999,501],[999,533],[999,566],[999,599],[999,633],[999,666],[999,699],[999,733],[999,766],[999,799],[999,833],[999,866],[999,899],[999,933],[999,966],[999,1000],[999,1033],[999,1066],[999,1099],[999,1133],[999,1166],[999,1199],[999,1233],[999,1266],[999,1299],[999,1333],[999,1366],[999,1399],[999,1433],[999,1466],[999,1499],[999,1533],[999,1566],[999,1599],[999,1633],[999,1666],[999,1699],[999,1733],[999,1766],[999,1799],[999,1833],[999,1866],[999,1899],[999,1933],[999,1966],[999,2000],[999,2033],[999,2066],[999,2099],[999,2133],[999,2166],[999,2199],[999,2233],[999,2266],[999,2299],[999,2333],[999,2366],[999,2400],[999,2433],[999,2466],[999,2500],[999,2533],[999,2566],[999,2599],[999,2633],[999,2666],[999,2700],[999,2733],[999,2766],[999,2799],[999,2833],[999,2866],[999,2899],[999,2933],[999,2966],[999,2999],[999,3033],[999,3066],[999,3099],[999,3133],[999,3166],[999,3199],[999,3233],[999,3266],[999,3300],[999,3333],[999,3366],[999,3400],[999,3433],[999,3466],[999,3500],[999,3533],[999,3566],[999,3600],[999,3633],[999,3666],[999,3700],[999,3733],[999,3766],[999,3800],[999,3833],[999,3866],[999,3900],[999,3933],[999,3966],[999,4000],[999,4033],[999,4066],[999,4100],[999,4133],[999,4166],[999,4200],[999,4233],[999,4266],[999,4300],[999,4333],[999,4366],[999,4399],[999,4433],[999,4466],[999,4500],[999,4533],[999,4566],[999,4600],[999,4633],[999,4666],[999,4699],[999,4733],[999,4766],[999,4799],[999,4833],[999,4866],[999,4899],[999,4933],[999,4966],[999,4999],[999,5033],[999,5066],[999,5099],[999,5133],[999,5166],[999,5199],[999,5233],[999,5266],[999,5300],[999,5333],[999,5368],[999,5399],[999,5433],[999,5467],[999,5500],[999,5533],[999,5566],[999,5599],[999,5633],[999,5666],[999,5699],[999,5733],[999,5766],[999,5800],[999,5833],[999,5866],[999,5899],[999,5933],[999,5966],[999,6000],[999,6033],[999,6066],[999,6099],[999,6133],[999,6166],[999,6200],[999,6233],[999,6266],[999,6299],[999,6333],[999,6366],[999,6400],[999,6433],[999,6466],[999,6499],[999,6533],[999,6566],[999,6600],[999,6633],[999,6667],[999,6700],[999,6733],[999,6767],[999,6799],[999,6833],[999,6866],[999,6900],[999,6933],[999,6966],[999,7000],[999,7033],[999,7066],[999,7100],[999,7133],[999,7166],[999,7200],[999,7233],[999,7266],[999,7300],[999,7333],[999,7366],[999,7400],[999,7433],[999,7466],[999,7500],[999,7533],[999,7566],[999,7600],[999,7633],[999,7666],[999,7700],[999,7733],[999,7766],[999,7800],[999,7833],[999,7866],[999,7900],[999,7933],[999,7966],[999,8000],[999,8033],[999,8066],[999,8100],[999,8133],[999,8166],[999,8200],[999,8233],[999,8266],[999,8300],[999,8333],[999,8366],[999,8400],[999,8433],[999,8466],[999,8500],[999,8533],[999,8566],[999,8600],[999,8633],[999,8666],[999,8699],[999,8733],[999,8766],[999,8800],[999,8833],[999,8866],[999,8900],[999,8933],[999,8966],[999,9000],[999,9033],[999,9066],[999,9100],[999,9133],[999,9166],[999,9200],[999,9233],[999,9266],[999,9300],[999,9333],[999,9366],[999,9400],[999,9433],[999,9466],[999,9500],[999,9533],[999,9566],[999,9599],[999,9633],[999,9666],[999,9700],[999,9733],[999,9766],[999,9800],[999,9833],[999,9866],[999,9901],[999,9933],[999,9966],[999,10000],[999,10033],[999,10066],[999,10100],[999,10133],[999,10166],[999,10200],[999,10233],[999,10266],[999,10299],[999,10333],[999,10366],[999,10400],[999,10433],[999,10466],[999,10500],[999,10533],[999,10566],[999,10600],[999,10633],[999,10667],[999,10700],[999,10733],[999,10766],[999,10800],[999,10833],[999,10866],[999,10900],[999,10933],[999,10966],[999,11000],[999,11033],[999,11066],[999,11100],[999,11133],[999,11166],[999,11200],[999,11233],[999,11266],[999,11300],[999,11333],[999,11366],[999,11400],[999,11433],[999,11466],[999,11500],[999,11533],[999,11567],[999,11600],[999,11633],[999,11666],[999,11700],[999,11733]]",1,0,566.2927,571.5259,50,2.1978,"[{""rating"":50,""responseTime"":2.1978000000119664}]",space,4.6852,,571.526,Half the time,50,571.5278,,,[],,0,13,13,13,1,audio/Narrative8Situation4.wav,audio/Narrative7Situation4.wav,audio/Narrative6Situation4.wav,audio/Narrative5Situation4.wav,3,3,2,1,,,,,,,,,,,,,,,,,,,,,,,,,,,,,,,,,,,,,,,
,,,,,,6410e0ba81f88046afa861ca,2024-02-08_16h05.23.020,group3.1-3.2-social-tom,2023.2.2,Win32,29.94011976,65c5074098b851296ff0b7ed,65c5417075e1c9f5133794a3,,,,,,,,,,,,,,,,,,,,,,,,,,,,,571.528,1,audio/Narrative7Situation5.wav,576.5427,,576.5427,585.043,"[[999,5],[999,33],[999,66],[999,100],[999,133],[999,166],[999,200],[999,233],[999,266],[999,299],[999,333],[999,366],[999,399],[999,433],[999,466],[999,500],[999,533],[999,566],[999,599],[999,633],[999,666],[999,700],[999,733],[999,766],[999,799],[999,833],[999,866],[999,899],[999,933],[999,966],[999,1000],[999,1033],[999,1066],[999,1100],[999,1133],[999,1166],[999,1200],[50.6,1233],[49.9,1266],[49.8,1300],[49.7,1333],[49.6,1367],[49.6,1399],[49.4,1434],[49.3,1466],[49.3,1500],[49.3,1533],[49.3,1566],[49.3,1600],[49.3,1633],[49.3,1666],[49.4,1700],[49.5,1733],[49.9,1766],[50.4,1800],[51.3,1833],[52.1,1866],[52.6,1900],[53.3,1933],[53.9,1966],[54.2,2000],[54.6,2033],[54.9,2066],[55,2100],[55.1,2133],[55.1,2166],[55.1,2199],[55.1,2233],[55.1,2266],[55.1,2299],[55.1,2333],[55.1,2366],[55.1,2399],[55.1,2433],[55.1,2466],[55.1,2499],[55.1,2533],[55.1,2566],[55.1,2599],[55.1,2633],[55.1,2666],[55.1,2699],[55.1,2733],[55.1,2766],[55.1,2799],[55.1,2833],[55.1,2866],[55.1,2899],[55.1,2933],[55.1,2966],[55.1,3000],[55.1,3033],[55.1,3066],[55.1,3099],[55.1,3133],[55.1,3166],[55.1,3199],[55.1,3233],[55.1,3266],[55.1,3299],[55.1,3333],[55.1,3366],[55.1,3400],[55.1,3433],[55.1,3466],[55.1,3500],[55.1,3533],[55.1,3566],[55.1,3600],[55.1,3633],[55.1,3666],[55.1,3700],[55.1,3733],[55.1,3766],[55.1,3799],[55.1,3833],[55.1,3866],[55.1,3900],[55.1,3933],[55.1,3966],[55.1,4000],[55.1,4033],[55.1,4066],[55.1,4100],[55.1,4133],[55.1,4166],[55.1,4200],[55.1,4233],[55.1,4266],[55.1,4299],[55.1,4333],[55.1,4366],[55.1,4400],[55.1,4433],[55.1,4466],[55.1,4500],[55.1,4533],[55.1,4566],[55.1,4600],[55.1,4633],[55.1,4666],[55.1,4699],[55.1,4733],[55.1,4766],[55.1,4799],[55.1,4833],[55.1,4866],[55.1,4899],[55.1,4933],[55.1,4966],[55.1,5000],[55.1,5033],[55.1,5066],[55.1,5100],[55.1,5133],[55.1,5166],[55.1,5199],[55.1,5233],[55.1,5266],[55.1,5300],[55.1,5333],[55.1,5366],[55.1,5400],[55.1,5433],[55.1,5466],[55.1,5500],[55.1,5533],[55.1,5566],[55.1,5600],[55.1,5633],[55.1,5666],[55.1,5700],[55.2,5733],[55.6,5766],[55.7,5800],[55.7,5833],[55.7,5866],[55.7,5899],[55.7,5933],[55.9,5966],[56.5,6000],[57,6033],[57.3,6067],[57.6,6100],[57.8,6133],[57.8,6166],[57.8,6200],[57.8,6233],[57.8,6266],[57.8,6300],[57.8,6333],[57.8,6366],[57.8,6400],[57.8,6433],[57.8,6466],[57.8,6500],[57.8,6533],[57.8,6566],[57.8,6600],[57.8,6633],[57.8,6666],[57.8,6700],[57.8,6733],[57.8,6766],[57.8,6800],[57.8,6833],[57.8,6866],[57.8,6900],[57.8,6933],[57.8,6966],[57.8,7000],[57.8,7033],[57.8,7066],[57.8,7100],[57.8,7133],[57.8,7166],[57.8,7200],[57.8,7233],[57.8,7266],[57.8,7300],[57.8,7333],[57.8,7366],[57.8,7400],[57.8,7433],[57.8,7466],[57.8,7500],[57.8,7533],[57.8,7566],[57.8,7600],[57.8,7633],[57.8,7666],[57.8,7700],[57.8,7733],[57.8,7766],[57.8,7800],[57.8,7833],[57.8,7866],[57.8,7900],[57.8,7933],[57.8,7966],[57.8,8000],[57.8,8033],[57.8,8066],[57.8,8100],[57.8,8133],[57.8,8166],[57.8,8200],[57.8,8233],[57.8,8266],[57.8,8300],[57.8,8333],[57.8,8366],[57.8,8400],[57.8,8433],[57.8,8466],[57.8,8500]]",1,0,585.0431,589.6597,56.14583492,3.7439,"[{""rating"":56.14583492279053,""responseTime"":3.743899999976179}]",space,4.0776,,589.6597,All the time,100,589.6612,,,[],,0,14,14,14,1,audio/Narrative8Situation5.wav,audio/Narrative7Situation5.wav,audio/Narrative6Situation5.wav,audio/Narrative5Situation5.wav,2,5,2,5,,,,,,,,,,,,,,,,,,,,,,,,,,,,,,,,,,,,,,,
,,,,,,6410e0ba81f88046afa861ca,2024-02-08_16h05.23.020,group3.1-3.2-social-tom,2023.2.2,Win32,29.94011976,65c5074098b851296ff0b7ed,65c5417075e1c9f5133794a3,,,,,,,,,,,,,,,,,,,,,,,,,,,,,589.6614,1,audio/Narrative7Situation6.wav,592.6765,,592.6765,602.6608,[],1,0,602.6609,605.0435,57.29166667,1.5981,"[{""rating"":57.291666666666664,""responseTime"":1.5981000000238055}]",space,1.8335,,605.0435,Half the time,50,605.045,,,[],,0,15,15,15,1,audio/Narrative8Situation6.wav,audio/Narrative7Situation6.wav,audio/Narrative6Situation6.wav,audio/Narrative5Situation6.wav,2,3,2,3,,,,,,,,,,,,,,,,,,,,,,,,,,,,,,,,,,,,,,,
,,,,,,6410e0ba81f88046afa861ca,2024-02-08_16h05.23.020,group3.1-3.2-social-tom,2023.2.2,Win32,29.94011976,65c5074098b851296ff0b7ed,65c5417075e1c9f5133794a3,,,,,,,,,,,,,,,,,,,,,,,,,,,,,605.0452,1,audio/Narrative7Situation7.wav,610.0605,,610.0605,627.2441,"[[56.7,2000],[56,2033],[55.7,2066],[55.4,2100],[55.3,2133],[55.1,2166],[55.1,2199],[55.1,2232],[55.1,2266],[55,2299],[54.9,2333],[54.8,2366],[54.6,2400],[54.5,2432],[54.5,2466],[54.5,2499],[54.5,2533],[54.7,2566],[55.2,2599],[56.3,2633],[58,2666],[60,2699],[61.3,2733],[62.1,2766],[63.2,2799],[64.3,2833],[65.1,2866],[66,2900],[67,2933],[68,2966],[69,3000],[70.2,3033],[71.4,3066],[72.6,3100],[73.5,3133],[74.4,3166],[75.3,3200],[76.1,3233],[76.6,3267],[77.1,3300],[77.4,3333],[77.6,3366],[77.6,3399],[77.6,3433],[77.6,3466],[77.6,3499],[77.6,3533],[77.6,3566],[77.6,3599],[77.6,3633],[77.6,3666],[77.6,3699],[77.6,3733],[77.6,3766],[77.6,3799],[77.6,3833],[77.6,3866],[77.6,3899],[77.6,3933],[77.6,3966],[77.6,4000],[77.6,4033],[77.6,4066],[77.6,4099],[77.6,4133],[77.6,4166],[77.6,4199],[77.6,4233],[77.3,4266],[76.9,4300],[76.7,4334],[76.4,4366],[76.3,4400],[76.1,4433],[76.1,4466],[76.1,4499],[76.1,4533],[76.1,4566],[76.1,4600],[76.1,4633],[76.1,4666],[76.1,4699],[76.1,4733],[76.1,4766],[76.1,4799],[76.1,4833],[76.1,4866],[76.1,4899],[76.1,4933],[76.1,4966],[76.1,5000],[76.1,5033],[76.1,5066],[76.1,5099],[76.1,5133],[76.1,5166],[76.1,5200],[76.1,5233],[76.1,5266],[76.1,5299],[76.1,5333],[76.1,5366],[76.1,5399],[76.1,5433],[76.1,5466],[76.1,5499],[76.1,5533],[76.1,5566],[76.1,5599],[76.1,5633],[76.1,5666],[76.1,5699],[76.3,5733],[76.3,5766],[76.3,5799],[76.3,5833],[76.3,5866],[76.3,5899],[76.3,5932],[76.3,5966],[76.3,5999],[76.3,6033],[76.5,6066],[76.5,6100],[76.5,6133],[76.5,6168],[76.5,6200],[76.5,6233],[76.5,6266],[76.5,6299],[76.5,6333],[76.5,6366],[76.5,6399],[76.5,6433],[76.5,6466],[76.5,6499],[76.5,6533],[76.5,6566],[76.5,6599],[76.5,6633],[76.5,6666],[76.5,6699],[76.5,6733],[76.5,6767],[76.5,6800],[76.5,6833],[76.5,6866],[76.5,6900],[76.5,6933],[76.5,6966],[76.5,6999],[76.5,7033],[76.5,7066],[76.5,7100],[76.5,7133],[76.5,7166],[76.5,7200],[76.5,7233],[76.5,7266],[76.5,7299],[76.5,7333],[76.5,7366],[76.5,7399],[76.5,7433],[76.5,7466],[76.5,7500],[76.5,7533],[76.5,7566],[76.8,7600],[77.3,7633],[77.9,7666],[78.4,7700],[79,7733],[79.5,7766],[79.9,7800],[80.2,7833],[80.4,7866],[80.5,7899],[80.5,7933],[80.5,7966],[80.5,8000],[80.5,8033],[80.5,8066],[80.5,8099],[80.5,8133],[80.5,8166],[80.5,8199],[80.5,8233],[80.5,8266],[80.5,8299],[80.5,8333],[80.5,8366],[80.5,8400],[80.5,8433],[80.5,8466],[80.5,8500],[80.5,8533],[80.5,8566],[80.5,8599],[80.5,8633],[80.5,8666],[80.5,8700],[80.5,8733],[80.5,8766],[80.5,8799],[80.5,8833],[80.5,8866],[80.5,8900],[80.5,8933],[80.5,8966],[80.4,9000],[80.3,9033],[80.3,9066],[80.3,9100],[80.3,9133],[80.3,9166],[80.3,9200],[80.3,9233],[80.3,9266],[80.3,9300],[80.3,9333],[80.3,9367],[80.3,9400],[80.3,9433],[80.3,9466],[80.3,9499],[80.3,9533],[80.3,9566],[80.3,9600],[80.3,9633],[80.3,9666],[80.3,9700],[80.3,9733],[80.3,9766],[80.3,9799],[80.3,9833],[80.3,9866],[80.3,9899],[80.3,9933],[80.3,9967],[80.3,10000],[80.3,10033],[80.3,10066],[80.3,10099],[80.3,10133],[80.3,10167],[80.3,10199],[80.3,10233],[80.3,10266],[80.3,10300],[80.3,10333],[80.3,10366],[80.3,10400],[80.3,10433],[80.3,10466],[80.3,10499],[80.3,10533],[80.3,10566],[80.3,10600],[80.3,10633],[80.3,10666],[80.3,10700],[80.3,10733],[80.3,10766],[80.3,10799],[80.3,10833],[80.3,10866],[80.3,10900],[80.3,10933],[80.3,10966],[80.3,11000],[80.3,11033],[80.3,11066],[80.3,11100],[80.3,11133],[80.3,11166],[80.3,11200],[80.3,11234],[80.3,11266],[80.3,11300],[80.3,11333],[80.3,11366],[80.3,11399],[80.3,11433],[80.3,11466],[80.3,11499],[80.3,11533],[80.3,11566],[80.3,11600],[80.3,11633],[80.3,11667],[80.3,11700],[80.3,11734],[80.3,11766],[80.3,11799],[80.3,11834],[80.3,11866],[80.3,11900],[80.3,11933],[80.3,11967],[80.3,12000],[80.3,12033],[80.3,12066],[80.3,12100],[80.3,12133],[80.3,12166],[80.3,12199],[80.3,12233],[80.3,12266],[80.3,12300],[80.3,12333],[80.3,12366],[80.3,12400],[80.3,12433],[80.3,12466],[80.3,12500],[80.3,12534],[80.3,12566],[80.3,12600],[80.3,12633],[80.3,12667],[80.3,12700],[80.3,12733],[80.3,12766],[80.3,12800],[80.3,12834],[80.3,12866],[80.3,12900],[80.3,12933],[80.3,12966],[80.3,13000],[80.3,13033],[80.3,13066],[80.3,13100],[80.3,13133],[80.3,13166],[80.3,13200],[80.3,13233],[80.3,13266],[80.3,13300],[80.3,13333],[80.3,13366],[80.3,13399],[80.3,13433],[80.3,13467],[80.3,13500],[80.3,13533],[80.3,13566],[80.3,13600],[80.3,13633],[80.3,13666],[80.3,13700],[80.3,13733],[80.3,13767],[80.3,13800],[80.3,13833],[80.3,13866],[80.3,13900],[80.3,13934],[80.3,13967],[80.3,14000],[80.3,14033],[80.3,14066],[80.3,14100],[80.3,14133],[80.3,14166],[80.3,14200],[80.3,14233],[80.3,14267],[80.3,14300],[80.3,14333],[80.3,14366],[80.3,14400],[80.3,14433],[80.3,14466],[80.3,14500],[80.3,14533],[80.3,14566],[80.3,14600],[80.3,14634],[80.3,14666],[80.3,14699],[80.3,14733],[80.3,14766],[80.3,14800],[80.3,14833],[80.3,14866],[80.3,14900],[80.3,14933],[80.3,14966],[80.3,15000],[80.3,15033],[80.3,15066],[80.3,15100],[80.3,15133],[80.3,15166],[80.3,15199],[80.3,15233],[80.3,15266],[80.3,15300],[80.3,15333],[80.3,15366],[80.3,15399],[80.3,15433],[80.3,15466],[80.3,15500],[80.3,15533],[80.3,15567],[80.3,15600],[80.3,15633],[80.3,15666],[80.3,15699],[80.3,15733],[80.3,15766],[80.3,15800],[80.3,15833],[80.3,15867],[80.3,15900],[80.3,15933],[80.3,15966],[80.3,16000],[80.3,16033],[80.3,16067],[80.3,16100],[80.6,16133],[81.4,16167],[81.9,16200],[82.2,16233],[82.4,16266],[82.6,16300],[82.6,16333],[82.6,16366],[82.6,16400],[82.5,16433],[82.4,16466],[82,16500],[81.4,16533],[80.7,16567],[80.3,16600],[80.1,16633],[80.1,16667],[80.1,16700],[80.2,16733],[80.2,16766],[80.2,16800],[80.2,16833],[80.2,16866],[80.3,16900],[80.3,16933],[80.3,16966],[80.3,17000],[80.3,17033],[80.3,17067],[80.3,17100],[80.3,17133],[80.3,17167]]",1,0,627.2442,631.2608,80.31249841,2.0955,"[{""rating"":80.3124984105428,""responseTime"":2.0955000000000155}]",space,3.4719,,631.2608,Not at all,0,631.2626,,,[],,0,16,16,16,1,audio/Narrative8Situation7.wav,audio/Narrative7Situation7.wav,audio/Narrative6Situation7.wav,audio/Narrative5Situation7.wav,3,5,5,4,,,,,,,,,,,,,,,,,,,,,,,,,,,,,,,,,,,,,,,
,,,,,,6410e0ba81f88046afa861ca,2024-02-08_16h05.23.020,group3.1-3.2-social-tom,2023.2.2,Win32,29.94011976,65c5074098b851296ff0b7ed,65c5417075e1c9f5133794a3,,,,,,,,,,,,,,,,,,,,,,,,,,,,,631.2628,1,audio/Narrative7Situation8.wav,633.2777,,633.2777,643.3111,"[[80.5,666],[80.4,701],[80.1,733],[79.6,767],[79.3,799],[78.7,833],[78.4,866],[77.9,899],[77.6,933],[77.2,967],[76.8,1000],[76.7,1033],[76.7,1066],[76.7,1099],[76.5,1133],[76.5,1166],[76.5,1199],[76.5,1233],[76.5,1266],[76.5,1299],[76.5,1333],[76.5,1366],[76.5,1399],[76.5,1433],[76.5,1466],[76.5,1500],[76.5,1533],[76.5,1566],[76.5,1599],[76.5,1633],[76.5,1666],[76.5,1699],[76.5,1733],[76.5,1767],[76.5,1799],[76.5,1833],[76.5,1866],[76.5,1899],[76.5,1933],[76.5,1966],[76.5,1999],[76.5,2033],[76.5,2066],[76.5,2099],[76.5,2132],[76.5,2166],[76.5,2199],[76.5,2233],[76.5,2266],[76.5,2299],[76.5,2333],[76.5,2366],[76.5,2399],[76.5,2432],[76.5,2466],[76.5,2500],[76.5,2533],[76.5,2566],[76.5,2599],[76.5,2633],[76.5,2666],[76.5,2699],[76.5,2733],[76.5,2767],[76.5,2799],[76.5,2833],[76.5,2866],[76.5,2900],[76.5,2933],[76.5,2966],[76.5,2999],[76.5,3033],[76.5,3066],[76.5,3100],[76.5,3133],[76.5,3166],[76.6,3199],[76.6,3233],[76.6,3266],[76.6,3299],[76.6,3333],[76.6,3366],[76.6,3399],[76.6,3433],[76.6,3466],[76.6,3499],[76.6,3533],[76.6,3566],[76.6,3599],[76.6,3633],[76.6,3666],[76.6,3699],[76.6,3733],[76.6,3766],[76.6,3800],[76.6,3833],[76.6,3866],[76.6,3900],[76.6,3933],[76.6,3966],[76.6,3999],[76.6,4033],[76.6,4066],[76.6,4099],[76.6,4133],[76.6,4166],[76.6,4199],[76.6,4233],[76.6,4266],[76.6,4299],[76.6,4333],[76.6,4366],[76.6,4400],[76.6,4433],[76.6,4466],[76.6,4499],[76.6,4533],[76.8,4566],[76.8,4600],[76.8,4633],[76.8,4666],[76.8,4699],[76.8,4733],[76.8,4766],[77.2,4800],[78,4833],[79.1,4867],[80.4,4900],[81.5,4933],[82.3,4966],[82.8,5000],[82.9,5033],[83,5066],[83,5100],[81.5,5134],[76.1,5166],[72.4,5200],[70,5233],[68.9,5266],[67.9,5299],[67.3,5333],[67.1,5366],[66.9,5400],[66.8,5433],[66.8,5466],[66.8,5499],[66.8,5533],[66.8,5566],[66.8,5599],[66.8,5633],[66.8,5666],[66.9,5700],[66.9,5733],[66.9,5767],[66.9,5799],[66.9,5833],[66.9,5866],[66.9,5899],[66.9,5933],[66.9,5966],[66.9,5999],[66.9,6033],[66.9,6066],[66.9,6099],[66.9,6133],[66.9,6166],[66.9,6200],[66.9,6233],[66.9,6266],[66.9,6299],[66.9,6333],[66.9,6366],[66.9,6399],[66.9,6433],[66.9,6466],[66.9,6499],[66.9,6533],[66.9,6566],[66.9,6600],[67.4,6633],[68.3,6667],[69.2,6700],[70,6735],[70.5,6767],[71,6800],[71.3,6833],[71.4,6866],[71.4,6899],[71.4,6933],[71.4,6966],[71.4,7000],[71.4,7033],[71.4,7066],[71.4,7100],[71.4,7133],[71.4,7166],[71.4,7201],[71.4,7233],[71.4,7266],[71.9,7300],[72.1,7333],[72.4,7366],[72.6,7400],[72.9,7433],[73.1,7466],[73.3,7500],[73.6,7533],[73.9,7566],[74,7600],[74.1,7633],[74.1,7666],[74.1,7699],[74.1,7733],[74.1,7766],[74.1,7800],[74.1,7833],[74.1,7866],[74.1,7900],[74.1,7933],[74.1,7967],[74.1,8000],[74.1,8033],[74.1,8066],[74.1,8100],[74.2,8133],[74.3,8166],[74.4,8200],[74.4,8233],[74.5,8266],[74.7,8299],[74.9,8333],[74.9,8366],[74.9,8399],[74.9,8433],[74.9,8466],[74.9,8500],[74.9,8533],[74.9,8566],[74.9,8600],[74.8,8633],[74.8,8666],[74.8,8699],[74.8,8733],[74.8,8766],[74.8,8799],[74.8,8833],[74.8,8866],[74.8,8899],[74.8,8933],[74.8,8966],[74.8,9000],[74.8,9033],[74.8,9066],[74.8,9099],[74.8,9133],[74.8,9166],[74.8,9200],[74.8,9233],[74.8,9266],[74.8,9299],[74.8,9333],[74.8,9366],[74.8,9400],[74.8,9433],[74.8,9466],[74.8,9500],[74.8,9533],[74.8,9566],[74.8,9600],[74.8,9633],[74.8,9666],[74.8,9699],[74.8,9733],[74.8,9766],[74.8,9800],[74.8,9833],[74.8,9866],[74.8,9899],[74.8,9933],[74.8,9966],[74.8,10000],[74.8,10033]]",1,0,643.3113,645.2782,75.83333651,1.1492,"[{""rating"":75.83333651224773,""responseTime"":1.1491999999881273}]",space,1.4408,,645.2782,Not at all,0,645.2795,,,[],,0,17,17,17,1,audio/Narrative8Situation8.wav,audio/Narrative7Situation8.wav,audio/Narrative6Situation8.wav,audio/Narrative5Situation8.wav,3,2,5,3,,,,,,,,,,,,,,,,,,,,,,,,,,,,,,,,,,,,,,,
,,,,,,6410e0ba81f88046afa861ca,2024-02-08_16h05.23.020,group3.1-3.2-social-tom,2023.2.2,Win32,29.94011976,65c5074098b851296ff0b7ed,65c5417075e1c9f5133794a3,,,,,,,,,,,,,,,,,,,,,,,,,,,,,645.2797,1,audio/Narrative7Situation9.wav,647.2946,,647.2946,655.9285,"[[75.7,2366],[75.7,2400],[75.7,2433],[75.7,2466],[75.7,2500],[75.6,2533],[75.4,2567],[75.2,2600],[75.2,2633],[75.2,2666],[75.2,2699],[75.2,2733],[75.2,2766],[75.2,2799],[75.2,2833],[75.2,2866],[75.2,2899],[75.2,2933],[75.2,2966],[75.2,3000],[75.2,3033],[75.2,3066],[75.2,3099],[75.2,3133],[75.2,3166],[75.2,3200],[75.2,3233],[75.2,3266],[75.2,3300],[75.2,3333],[75.2,3366],[75.2,3400],[75.2,3433],[75.2,3466],[75.2,3499],[75.2,3533],[75.2,3566],[75.2,3599],[75.2,3633],[75.2,3666],[75.2,3700],[75.2,3733],[75.2,3767],[75.2,3800],[75.2,3833],[75.2,3866],[75.2,3899],[75.2,3933],[75.2,3966],[75.2,4000],[75.2,4033],[75.2,4066],[75.2,4100],[75.2,4133],[75.2,4166],[75.2,4199],[75.2,4233],[75.2,4266],[75.2,4299],[75.2,4333],[75.2,4366],[75.2,4400],[75.2,4433],[75.2,4466],[75.2,4500],[75.2,4533],[75.2,4566],[75.2,4600],[75.2,4633],[75.2,4666],[75.2,4700],[75.2,4733],[75.2,4766],[75.2,4800],[75.2,4833],[75.2,4866],[75.2,4899],[75.2,4933],[75.2,4966],[75.2,5000],[75.2,5033],[75.2,5066],[75.2,5100],[75.2,5133],[75.2,5167],[75.2,5200],[75.2,5233],[75.2,5266],[75.2,5300],[75.2,5334],[75.2,5366],[75.2,5399],[75.2,5433],[75.2,5466],[75.2,5500],[75.2,5533],[75.2,5566],[75.2,5600],[75.2,5633],[75.2,5666],[75.2,5700],[75.2,5733],[75.2,5766],[75.2,5800],[75.2,5833],[75.2,5866],[75.2,5900],[75.2,5933],[75.2,5966],[75.6,6000],[76.5,6033],[77.6,6067],[78.6,6100],[79.1,6133],[79.6,6167],[79.7,6200],[80,6233],[80.1,6266],[80.1,6300],[80.1,6334],[80.1,6366],[80.1,6399],[80.1,6433],[80.1,6466],[80.1,6500],[80.1,6533],[80.1,6566],[80.1,6600],[80.1,6633],[80.1,6667],[80.1,6700],[80.1,6733],[80.4,6767],[80.6,6800],[80.6,6833],[80.6,6866],[80.6,6899],[80.6,6933],[80.6,6966],[80.6,7000],[80.6,7033],[80.5,7067],[80.4,7100],[80.4,7133],[80.4,7166],[80.4,7200],[80.4,7233],[80.4,7266],[80.4,7300],[80.4,7333],[80.4,7366],[80.4,7399],[80.4,7433],[80.4,7466],[80.4,7500],[80.4,7533],[80.4,7566],[80.4,7600],[80.4,7633],[80.4,7666],[80.4,7700],[80.4,7733],[80.4,7766],[80.4,7800],[80.4,7833],[80.4,7866],[80.4,7900],[80.4,7933],[80.4,7966],[80.4,8000],[80.4,8033],[80.4,8066],[80.4,8100],[80.4,8133],[80.4,8166],[80.4,8200],[80.4,8233],[80.4,8266],[80.4,8300],[80.4,8333],[80.4,8366],[80.4,8400],[80.4,8433],[80.4,8466],[80.4,8500],[80.4,8533],[80.4,8566],[80.5,8600],[80.7,8633]]",1,0,655.9287,658.595,89.68750636,2.0917,"[{""rating"":89.68750635782878,""responseTime"":2.0916999999881227}]",space,2.1182,,658.5951,Not at all,0,658.5963,,,[],,0,18,18,18,1,audio/Narrative8Situation9.wav,audio/Narrative7Situation9.wav,audio/Narrative6Situation9.wav,audio/Narrative5Situation9.wav,3,2,4,3,,,,,,,,,,,,,,,,,,,,,,,,,,,,,,,,,,,,,,,
