exp_question,consent.started,consent.stopped,consentResponse.keys,consentResponse.rt,consentResponse.duration,participantID,date,expName,psychopyVersion,OS,frameRate,STUDY_ID,SESSION_ID,opening1.started,opening1.stopped,keyEndingOpening1.keys,keyEndingOpening1.rt,keyEndingOpening1.duration,volumeAdjust.started,volumeAdjust.stopped,endingAdjust.keys,endingAdjust.rt,endingAdjust.duration,opening2.started,opening2.stopped,keyEndingOpening.keys,keyEndingOpening.rt,keyEndingOpening.duration,mouse.x,mouse.y,mouse.leftButton,mouse.midButton,mouse.rightButton,mouse.time,instructionLoop.thisRepN,instructionLoop.thisTrialN,instructionLoop.thisN,instructionLoop.thisIndex,instructionLoop.ran,readyForAudio.started,readyForAudio.stopped,fixation.started,run,audio_played,fixation.stopped,endPractice.keys,audioPre.started,audioPre.stopped,continuousResponses_audio,continuousSlider.response,continuousSlider.rt,intRating.started,intRating.stopped,intQuestionSlider.response,intQuestionSlider.rt,intQuestionSlider.history,confirmResponse.keys,confirmResponse.rt,confirmResponse.duration,catchQuestion.started,catch_label,catch_value,catchQuestion.stopped,catchQuestionSlider.response,catchQuestionSlider.rt,catchQuestionSlider.history,confirmResponse_2.keys,audioRunLoop.thisRepN,audioRunLoop.thisTrialN,audioRunLoop.thisN,audioRunLoop.thisIndex,audioRunLoop.ran,conditions1_1,conditions2_1,conditions1_2,conditions2_2,dur1_1,dur2_1,dur1_2,dur2_2,endPractice.rt,endPractice.duration,confirmResponse_2.rt,confirmResponse_2.duration,runIntervalBreak.started,runIntervalBreak.stopped,endingBreakKey.keys,endingBreakKey.rt,endingBreakKey.duration,connection.started,connection.stopped,connectionEnding.keys,connectionEnding.rt,connectionEnding.duration,readyForText.started,readyForText.stopped,textPre.started,run_dup,textPre.stopped,continuousResponses_text,textRunLoop.thisRepN,textRunLoop.thisTrialN,textRunLoop.thisN,textRunLoop.thisIndex,textRunLoop.ran,text1_1,text1_2,text2_1,text2_2,runBreakText.started,runBreakText.stopped,endingBreakKey_2.keys,endingBreakKey_2.rt,endingBreakKey_2.duration,ending.started,ending.stopped,endingEnding.keys,endingEnding.rt,endingEnding.duration
social,0.0002,22.111,y,21.7891,,6424c007ad9d5e917aa16a2b,2024-02-08_12h33.50.817,group3.1-3.2-social-tom,2023.2.2,Win32,59.88023952,65c5074098b851296ff0b7ed,65c510727304e12e1ac53d6d,,,,,,,,,,,,,,,,,,,,,,,,,,,,,,,,,,,,,,,,,,,,,,,,,,,,,,,,,,,,,,,,,,,,,,,,,,,,,,,,,,,,,,,,,,,,,,,,,,,,,,,,,,
,,,,,,6424c007ad9d5e917aa16a2b,2024-02-08_12h33.50.817,group3.1-3.2-social-tom,2023.2.2,Win32,59.88023952,65c5074098b851296ff0b7ed,65c510727304e12e1ac53d6d,22.1111,27.8961,space,5.7555,,,,,,,,,,,,,,,,,,,,,,,,,,,,,,,,,,,,,,,,,,,,,,,,,,,,,,,,,,,,,,,,,,,,,,,,,,,,,,,,,,,,,,,,,,,,,,,,,,,,,,
,,,,,,6424c007ad9d5e917aa16a2b,2024-02-08_12h33.50.817,group3.1-3.2-social-tom,2023.2.2,Win32,59.88023952,65c5074098b851296ff0b7ed,65c510727304e12e1ac53d6d,,,,,,27.8962,47.0951,space,18.8816,,,,,,,,,,,,,,,,,,,,,,,,,,,,,,,,,,,,,,,,,,,,,,,,,,,,,,,,,,,,,,,,,,,,,,,,,,,,,,,,,,,,,,,,,,,,,,,,,
,,,,,,6424c007ad9d5e917aa16a2b,2024-02-08_12h33.50.817,group3.1-3.2-social-tom,2023.2.2,Win32,59.88023952,65c5074098b851296ff0b7ed,65c510727304e12e1ac53d6d,,,,,,,,,,,47.0982,57.5602,space,10.4362,,[],[],[],[],[],[],0,0,0,0,1,,,,,,,,,,,,,,,,,,,,,,,,,,,,,,,,,,,,,,,,,,,,,,,,,,,,,,,,,,,,,,,,,,,,,,,,,,,,,,,,
,,,,,,6424c007ad9d5e917aa16a2b,2024-02-08_12h33.50.817,group3.1-3.2-social-tom,2023.2.2,Win32,59.88023952,65c5074098b851296ff0b7ed,65c510727304e12e1ac53d6d,,,,,,,,,,,57.566,73.9586,space,16.3161,,[],[],[],[],[],[],1,0,1,0,1,,,,,,,,,,,,,,,,,,,,,,,,,,,,,,,,,,,,,,,,,,,,,,,,,,,,,,,,,,,,,,,,,,,,,,,,,,,,,,,,
,,,,,,6424c007ad9d5e917aa16a2b,2024-02-08_12h33.50.817,group3.1-3.2-social-tom,2023.2.2,Win32,59.88023952,65c5074098b851296ff0b7ed,65c510727304e12e1ac53d6d,,,,,,,,,,,73.9641,100.3585,space,26.3642,,[],[],[],[],[],[],2,0,2,0,1,,,,,,,,,,,,,,,,,,,,,,,,,,,,,,,,,,,,,,,,,,,,,,,,,,,,,,,,,,,,,,,,,,,,,,,,,,,,,,,,
,,,,,,6424c007ad9d5e917aa16a2b,2024-02-08_12h33.50.817,group3.1-3.2-social-tom,2023.2.2,Win32,59.88023952,65c5074098b851296ff0b7ed,65c510727304e12e1ac53d6d,,,,,,,,,,,100.3639,117.2234,space,16.8436,,[],[],[],[],[],[],3,0,3,0,1,,,,,,,,,,,,,,,,,,,,,,,,,,,,,,,,,,,,,,,,,,,,,,,,,,,,,,,,,,,,,,,,,,,,,,,,,,,,,,,,
,,,,,,6424c007ad9d5e917aa16a2b,2024-02-08_12h33.50.817,group3.1-3.2-social-tom,2023.2.2,Win32,59.88023952,65c5074098b851296ff0b7ed,65c510727304e12e1ac53d6d,,,,,,,,,,,117.2289,129.9729,space,12.7289,,[],[],[],[],[],[],4,0,4,0,1,,,,,,,,,,,,,,,,,,,,,,,,,,,,,,,,,,,,,,,,,,,,,,,,,,,,,,,,,,,,,,,,,,,,,,,,,,,,,,,,
,,,,,,6424c007ad9d5e917aa16a2b,2024-02-08_12h33.50.817,group3.1-3.2-social-tom,2023.2.2,Win32,59.88023952,65c5074098b851296ff0b7ed,65c510727304e12e1ac53d6d,,,,,,,,,,,,,,,,,,,,,,,,,,,129.9793,132.5561,132.5699,1,audio/Narrative13Situation2.wav,134.5727,,134.5728,164.3385,"[[999,0],[999,99],[999,182],[999,266],[999,349],[999,432],[999,516],[999,599],[999,682],[999,766],[999,849],[999,932],[999,1016],[999,1099],[999,1183],[999,1266],[999,1349],[42.1,1433],[44.2,2183],[46.7,2266],[48.6,2349],[49.4,2433],[49.6,2516],[49.7,2599],[49.8,2682],[49.8,2766],[49.8,2849],[49.8,2932],[49.8,3016],[49.8,3099],[49.8,3182],[49.8,3266],[49.8,3349],[49.8,3432],[49.8,3516],[49.8,3599],[49.8,3682],[49.8,3766],[49.8,3849],[49.8,3932],[49.8,4016],[49.8,4099],[49.8,4182],[49.8,4266],[49.8,4349],[49.8,4432],[49.8,4516],[49.8,4599],[49.8,4682],[49.8,4766],[49.8,4849],[49.8,4932],[49.8,5016],[49.8,5099],[49.8,5182],[49.8,5266],[49.8,5349],[49.8,5432],[49.8,5516],[49.8,5599],[49.8,5682],[49.8,5766],[49.8,5849],[49.8,5932],[49.8,6015],[49.8,6099],[49.8,6182],[49.8,6265],[49.8,6349],[49.8,6432],[49.8,6516],[49.8,6599],[49.8,6682],[49.8,6765],[49.8,6849],[49.8,6932],[49.8,7016],[49.8,7099],[49.8,7182],[49.8,7266],[49.8,7349],[49.8,7432],[49.8,7515],[49.8,7599],[49.8,7682],[49.8,7765],[49.8,7849],[49.8,7932],[49.8,8015],[49.8,8099],[49.8,8182],[49.8,8265],[49.8,8349],[49.8,8432],[49.8,8515],[49.8,8599],[49.8,8682],[49.8,8765],[49.8,8849],[49.8,8932],[87.4,9516],[89.8,9599],[90.7,9682],[90.6,9766],[90.6,9849],[91,9932],[92.4,10016],[94.1,10099],[94.3,10182],[94.6,10266],[99.4,10349],[100,10432],[100,10515],[100,10599],[100,10682],[100,10765],[100,10849],[100,10932],[100,11015],[100,11099],[100,11182],[100,11265],[100,11349],[100,11432],[100,11515],[100,11599],[100,11682],[100,11765],[100,11849],[100,11932],[100,12015],[100,12099],[100,12182],[100,12265],[100,12349],[100,12432],[100,12515],[100,12599],[100,12682],[100,12765],[100,12849],[100,12932],[100,13015],[100,13099],[100,13182],[100,13265],[100,13349],[100,13432],[100,13515],[100,13599],[100,13682],[100,13765],[100,13848],[100,13932],[100,14015],[100,14099],[100,14182],[100,14265],[100,14348],[100,14432],[100,14515],[100,14599],[100,14682],[100,14765],[100,14848],[100,14932],[100,15015],[100,15098],[100,15182],[100,15265],[100,15348],[100,15432],[100,15515],[100,15598],[100,15682],[100,15765],[100,15848],[100,15932],[100,16015],[100,16098],[100,16182],[100,16265],[100,16348],[100,16432],[100,16515],[100,16598],[100,16682],[100,16765],[100,16848],[100,16932],[100,17015],[100,17098],[100,17182],[100,17265],[100,17348],[100,17432],[100,17515],[100,17598],[100,17682],[100,17765],[100,17848],[100,17932],[100,18015],[100,18098],[100,18182],[100,18265],[100,18348],[100,18432],[100,18515],[100,18598],[100,18682],[100,18765],[100,18848],[100,18932],[100,19015],[100,19098],[100,19182],[100,19265],[100,19348],[100,19432],[100,19515],[100,19598],[100,19682],[100,19765],[100,19848],[100,19932],[100,20015],[97.4,20099],[89.6,20182],[79,20265],[73.8,20348],[70.6,20432],[68.9,20515],[68.9,20598],[68.9,20682],[68.9,20765],[70.5,20848],[71.7,20932],[71.7,21015],[71.1,21098],[70.7,21182],[69.8,21265],[69.8,21348],[69.8,21432],[69.8,21515],[69.8,21598],[69.8,21682],[71,21765],[71.3,21848],[71.3,21932],[75.3,22015],[78,22098],[84.3,22182],[85.9,22265],[89.7,22348],[93.6,22432],[97.9,22515],[99,22598],[99.2,22681],[99.2,22765],[99.2,22848],[99.2,22931],[99.2,23015],[99.2,23098],[99.2,23182],[99,23265],[97.7,23348],[90.8,23432],[79.8,23515],[75,23598],[70.6,23682],[60.1,23765],[58.3,23848],[56.7,23932],[53.8,24015],[52.2,24098],[50.6,24182],[50.2,24265],[50.2,24348],[50.2,24431],[50.2,24515],[50.2,24598],[50.2,24681],[50.2,24765],[50.2,24848],[50.2,24931],[50.2,25015],[50.2,25098],[50.2,25182],[50.2,25265],[50.2,25348],[50.2,25431],[50.2,25515],[50.2,25598],[50.2,25681],[50.2,25765],[50.2,25848],[50.2,25931],[50.2,26015],[50.2,26098],[50.2,26182],[50.2,26265],[50.2,26348],[50.2,26431],[50.2,26515],[50.2,26598],[50.2,26681],[50.2,26765],[50.2,26848],[50.2,26931],[50.2,27015],[50.2,27098],[50.2,27181],[50.2,27265],[50.2,27348],[50.2,27431],[50.2,27515],[50.2,27598],[50.2,27681],[50.2,27765],[50.2,27848],[50.2,27931],[50.2,28015],[50.2,28098],[50.2,28181],[50.2,28265],[50.2,28348],[50.2,28431],[50.2,28515],[50.2,28598],[50.2,28681],[50.2,28765],[51.4,28848],[51.8,28931],[52.1,29015],[52.4,29098],[52.5,29181],[52.5,29265],[52.7,29348],[62.9,29431],[75.6,29515],[78.2,29598],[78.6,29681],[78.6,29765]]",1,0,164.3386,171.3547,99.47916667,5.0564,"[{""rating"":99.47916666666667,""responseTime"":5.056399999976151}]",space,6.4756,,171.3549,Not at all,0,171.3575,,,[],,0,0,0,0,1,audio/Narrative13Situation2.wav,audio/Narrative13Situation2.wav,audio/Narrative13Situation2.wav,audio/Narrative13Situation2.wav,2,2,2,2,,,,,,,,,,,,,,,,,,,,,,,,,,,,,,,,,,,,,,,
,,,,,,6424c007ad9d5e917aa16a2b,2024-02-08_12h33.50.817,group3.1-3.2-social-tom,2023.2.2,Win32,59.88023952,65c5074098b851296ff0b7ed,65c510727304e12e1ac53d6d,,,,,,,,,,,,,,,,,,,,,,,,,,,,,171.3577,1,audio/Narrative7Situation1.wav,174.5043,space,174.5044,230.4021,"[[999,0],[999,82],[999,166],[999,249],[69.8,333],[62.8,416],[59.6,500],[55,583],[53,666],[51.7,749],[50.8,833],[49.6,916],[49.6,999],[49.6,1082],[49.6,1166],[49.6,1249],[49.6,1332],[49.6,1416],[49.6,1499],[49.6,1582],[49.6,1666],[49.6,1749],[49.6,1832],[49.6,1916],[49.6,1999],[49.6,2082],[49.6,2166],[49.6,2249],[49.6,2332],[49.6,2416],[49.6,2499],[49.6,2582],[49.6,2666],[49.6,2749],[49.6,2832],[49.6,2916],[49.6,2999],[49.6,3082],[49.6,3166],[49.6,3249],[49.6,3332],[49.6,3416],[49.6,3499],[49.6,3582],[49.6,3666],[49.6,3749],[49.6,3832],[49.6,3916],[49.6,3999],[49.6,4082],[49.6,4166],[49.6,4249],[49.6,4332],[49.6,4416],[49.6,4499],[49.6,4582],[49.6,4666],[49.5,4749],[49,4832],[49,4916],[49,4999],[49,5082],[49,5166],[49,5249],[48.6,5333],[48.4,5416],[47.9,5499],[47.3,5582],[46.5,5666],[46.4,5749],[46.4,5832],[46.4,5916],[46.3,5999],[46.3,6082],[46.3,6165],[46.3,6249],[46.3,6332],[46.3,6416],[46.3,6499],[46.3,6582],[46.3,6665],[46.3,6749],[46.3,6832],[46.3,6916],[46.3,6999],[46.3,7082],[46.3,7166],[46.3,7249],[46.3,7332],[46.3,7415],[46.3,7499],[46.3,7582],[46.3,7665],[46.3,7749],[46.3,7832],[46.3,7915],[46.3,7999],[46.3,8082],[46.3,8166],[46.3,8249],[46.3,8332],[46.3,8415],[46.3,8499],[46.3,8582],[46.3,8665],[46.3,8749],[46.3,8832],[46.3,8915],[46.3,8999],[46.3,9082],[46.3,9165],[46.3,9249],[46.3,9332],[46.3,9415],[46.3,9499],[46.3,9582],[46.3,9665],[46.3,9749],[46.3,9832],[46.3,9915],[46.3,9999],[46.3,10082],[46.3,10165],[46.3,10249],[46.3,10332],[46.3,10415],[46.3,10499],[46.3,10582],[46.3,10665],[46.3,10749],[46.3,10832],[46.3,10916],[46.3,10999],[46.3,11082],[46.3,11165],[46.3,11249],[46.3,11332],[46.3,11415],[46.3,11499],[46.3,11582],[46.3,11665],[46.3,11749],[46.4,11832],[46.5,11915],[47.2,11999],[50.1,12082],[55.2,12165],[60.5,12249],[64.1,12332],[67.9,12415],[74,12499],[78.5,12582],[83.9,12665],[85.8,12749],[87.2,12832],[88.5,12915],[91.5,12999],[92.6,13082],[94.5,13166],[97,13249],[98,13332],[99.7,13415],[99.8,13499],[99.8,13582],[99.8,13665],[99.8,13749],[99.8,13832],[99.8,13915],[99.8,13999],[99.8,14082],[99.6,14165],[99.4,14249],[99,14332],[97.9,14415],[96,14499],[95.4,14582],[95.4,14665],[95.4,14749],[95.4,14832],[95.4,14915],[95.4,14999],[95.2,15082],[94.7,15165],[94.3,15249],[94,15332],[93.6,15415],[93.1,15499],[93,15582],[92.8,15665],[92.7,15749],[92.6,15832],[92.6,15915],[92.6,15998],[92.6,16082],[92.6,16165],[92.6,16248],[92.6,16332],[92.6,16415],[92.6,16498],[92,16582],[91.9,16665],[91,16749],[90.2,16832],[89.8,16915],[89.5,16999],[89,17082],[88.6,17165],[88.1,17249],[87.7,17332],[87.6,17415],[87.1,17499],[85.6,17582],[83.5,17665],[81.7,17749],[80.7,17832],[79.5,17915],[78.8,17999],[78.6,18083],[78.3,18165],[76.1,18249],[74.3,18332],[72.8,18415],[70.2,18499],[68.2,18582],[67.1,18665],[66.1,18749],[65.3,18832],[64.8,18915],[64.4,18999],[64.3,19082],[64.3,19165],[64.3,19248],[64.3,19332],[64.3,19415],[64.3,19498],[64.3,19582],[64.3,19665],[64.3,19748],[64.3,19832],[64.3,19915],[64.3,19998],[70.1,20082],[79,20165],[84.2,20248],[88.8,20332],[94.2,20415],[97,20499],[97.6,20582],[98.5,20665],[99.2,20749],[99.3,20832],[99.3,20915],[99.3,20998],[99.3,21082],[99.3,21165],[99.3,21248],[99.3,21332],[99.3,21415],[99.3,21498],[99.3,21582],[99.3,21665],[99.3,21748],[99.3,21832],[99.3,21915],[99.3,21998],[99.3,22081],[99.3,22165],[99.3,22248],[99.3,22331],[99.6,22415],[100,22498],[100,22582],[100,22665],[100,22748],[100,22832],[100,22915],[100,22998],[100,23082],[100,23165],[100,23248],[100,23331],[100,23415],[100,23498],[100,23582],[100,23665],[100,23748],[100,23831],[100,23915],[100,23998],[100,24081],[100,24165],[100,24248],[100,24331],[100,24415],[100,24498],[100,24581],[100,24665],[100,24748],[100,24831],[100,24915],[100,24998],[100,25081],[100,25165],[100,25248],[100,25331],[100,25415],[100,25498],[100,25581],[100,25665],[100,25748],[100,25831],[100,25915],[100,25998],[100,26081],[100,26165],[100,26248],[100,26332],[100,26415],[99.2,26498],[98.1,26582],[97.3,26665],[96.7,26748],[96.4,26831],[96.3,26915],[96.3,26998],[99.4,27082],[100,27165],[100,27248],[100,27331],[97.1,27415],[88.4,27498],[82.5,27581],[78.1,27665],[77.3,27748],[75.5,27831],[75.2,27915],[75.1,27998],[76,28082],[85,28165],[89.1,28248],[89.2,28331],[89.5,28415],[91.8,28498],[93.4,28582],[94.2,28665],[94.9,28748],[95.8,28832],[97.2,28915],[97.2,28998],[97.2,29081],[97.7,29165],[98.4,29248],[98.6,29331],[98.6,29415],[98.8,29498],[98.9,29581],[99,29665],[99,29748],[99,29831],[99,29915],[99,29998],[99,30081],[99.2,30165],[99.3,30248],[99.3,30331],[99.3,30415],[99.3,30498],[99.3,30581],[99.3,30665],[99.3,30748],[99.3,30831],[99.3,30914],[99.3,30998],[99.3,31081],[99.3,31165],[99.3,31248],[99.3,31331],[99.4,31415],[99.6,31498],[99.6,31581],[99.7,31664],[99.7,31748],[99.7,31831],[99.7,31915],[99.7,31998],[99.7,32081],[99.7,32164],[99.7,32248],[99.7,32331],[99.7,32414],[99.7,32498],[99.7,32581],[99.7,32664],[99.7,32748],[99.7,32831],[99.7,32914],[99.7,32998],[99.7,33081],[99.7,33165],[99.6,33248],[99,33331],[98.3,33415],[98,33498],[97.9,33581],[97.9,33665],[97.9,33748],[97.9,33831],[97.9,33914],[99.1,33998],[99.8,34081],[99.9,34164],[100,34248],[100,34331],[100,34414],[100,34498],[100,34581],[100,34664],[100,34748],[100,34831],[100,34914],[100,34998],[100,35081],[100,35164],[100,35248],[100,35331],[100,35414],[100,35498],[100,35581],[100,35664],[100,35748],[100,35831],[100,35914],[100,35998],[100,36081],[100,36164],[100,36248],[100,36331],[100,36414],[100,36498],[100,36581],[100,36664],[100,36748],[100,36831],[100,36914],[100,36998],[100,37081],[100,37164],[100,37248],[100,37331],[100,37414],[100,37498],[100,37581],[100,37664],[100,37748],[100,37831],[100,37914],[100,37998],[100,38081],[100,38164],[100,38248],[100,38331],[100,38414],[100,38497],[100,38581],[100,38664],[100,38747],[100,38831],[100,38914],[100,38998],[100,39081],[100,39164],[100,39248],[99,39331],[99,39414],[99,39498],[99.5,39581],[100,39664],[100,39747],[100,39831],[100,39914],[100,39997],[100,40081],[100,40164],[100,40248],[100,40331],[100,40414],[100,40497],[100,40581],[100,40664],[100,40747],[100,40831],[100,40914],[100,40997],[100,41081],[100,41164],[100,41247],[100,41331],[100,41414],[100,41497],[100,41581],[100,41664],[100,41748],[100,41831],[99.5,41914],[99.1,41997],[99.1,42081],[99.6,42164],[100,42247],[100,42331],[100,42414],[100,42497],[100,42581],[100,42664],[100,42747],[100,42831],[100,42914],[100,42997],[100,43081],[100,43164],[100,43247],[100,43331],[100,43414],[100,43497],[100,43581],[100,43664],[100,43747],[100,43831],[100,43914],[100,43997],[100,44081],[100,44164],[100,44247],[100,44331],[100,44414],[100,44497],[100,44581],[100,44664],[100,44747],[100,44831],[100,44914],[100,44997],[100,45081],[100,45164],[100,45247],[100,45331],[100,45414],[100,45497],[100,45581],[100,45664],[100,45747],[100,45831],[100,45914],[100,45997],[100,46080],[100,46164],[100,46247],[100,46331],[100,46414],[100,46497],[100,46581],[100,46664],[100,46747],[100,46830],[100,46914],[100,46997],[100,47081],[100,47164],[100,47247],[100,47330],[100,47414],[100,47497],[100,47580],[100,47664],[100,47747],[100,47831],[100,47914],[100,47997],[100,48080],[100,48164],[100,48247],[100,48330],[100,48414],[100,48497],[100,48580],[100,48664],[100,48747],[100,48830],[100,48914],[100,48997],[100,49080],[100,49164],[100,49247],[100,49330],[100,49414],[100,49497],[100,49580],[100,49664],[100,49747],[100,49830],[100,49914],[100,49997],[100,50080],[100,50164],[100,50247],[100,50330],[100,50414],[100,50497],[100,50580],[100,50664],[100,50747],[100,50830],[100,50914],[100,50997],[100,51080],[100,51164],[100,51247],[100,51330],[100,51414],[100,51497],[100,51580],[98.8,51664],[98.8,51747],[98.8,51830],[98.8,51914],[99.3,51997],[99.6,52081],[100,52164],[100,52247],[100,52330],[100,52414],[100,52497],[100,52581],[100,52664],[100,52747],[100,52830],[100,52914],[100,52997],[100,53080],[100,53164],[100,53247],[100,53330],[100,53414],[100,53497],[100,53580],[100,53664],[100,53747],[100,53830],[100,53913],[100,53997],[100,54080],[100,54163],[100,54247],[100,54330],[100,54414],[100,54497],[100,54580],[100,54663],[100,54747],[100,54830],[100,54913],[100,54997],[100,55080],[100,55163],[100,55247],[100,55330],[100,55414],[94.6,55497],[84.8,55580],[84.8,55664],[86.5,55747],[90.2,55830]]",1,0,230.4024,234.1017,99.89583333,2.2534,"[{""rating"":99.89583333333334,""responseTime"":2.2533999999761534}]",space,3.1502,,234.1017,Not at all,0,234.1028,,,[],,0,1,1,1,1,audio/Narrative7Situation1.wav,audio/Narrative8Situation1.wav,audio/Narrative5Situation1.wav,audio/Narrative6Situation1.wav,2,5,5,2,3.1335,,,,,,,,,,,,,,,,,,,,,,,,,,,,,,,,,,,,,,
,,,,,,6424c007ad9d5e917aa16a2b,2024-02-08_12h33.50.817,group3.1-3.2-social-tom,2023.2.2,Win32,59.88023952,65c5074098b851296ff0b7ed,65c510727304e12e1ac53d6d,,,,,,,,,,,,,,,,,,,,,,,,,,,,,234.1029,1,audio/Narrative7Situation2.wav,237.1184,,237.1184,244.6015,"[[999,5],[999,83],[999,166],[999,249],[999,332],[999,416],[999,499],[999,582],[999,666],[999,749],[999,832],[999,916],[999,1000],[44.8,1083],[45.1,1166],[45.4,1249],[47.3,1333],[49.6,1416],[50.2,1499],[50.2,1582],[50.2,1666],[47.6,1749],[30.8,1833],[23.8,1916],[22.3,1999],[18.3,2083],[17.3,2166],[17.3,2249],[17.3,2332],[18.4,2416],[21.1,2499],[21.9,2583],[22.9,2666],[24.2,2749],[26.9,2833],[35.3,2916],[49.6,2999],[53.6,3083],[54,3166],[54.5,3249],[55.6,3333],[55.9,3416],[55.9,3499],[55.9,3582],[55.9,3666],[56.1,3749],[56.1,3832],[56.4,3916],[57.1,3999],[57.4,4082],[57.7,4166],[58,4249],[58,4332],[58,4416],[58,4499],[58,4582],[58,4666],[58,4749],[58,4832],[58,4916],[58,4999],[58.9,5082],[61.5,5166],[62.8,5249],[63.5,5333],[71,5416],[77.2,5499],[80.7,5582],[89,5666],[94,5749],[96.5,5832],[98.2,5916],[98.2,5999],[98.3,6082],[98.4,6166],[98.4,6249],[98.4,6332],[98.4,6416],[98.4,6499],[99,6582],[99,6666],[99,6749],[99,6832],[99,6916],[99,6999],[99,7082],[99,7166],[99,7249],[99,7332],[99,7416]]",1,0,244.6016,248.0177,99.58333333,1.7585,"[{""rating"":99.58333333333333,""responseTime"":1.758499999999998}]",space,2.8734,,248.0178,Not at all,0,248.019,,,[],,0,2,2,2,1,audio/Narrative7Situation2.wav,audio/Narrative8Situation2.wav,audio/Narrative5Situation2.wav,audio/Narrative6Situation2.wav,3,3,3,3,,,,,,,,,,,,,,,,,,,,,,,,,,,,,,,,,,,,,,,
,,,,,,6424c007ad9d5e917aa16a2b,2024-02-08_12h33.50.817,group3.1-3.2-social-tom,2023.2.2,Win32,59.88023952,65c5074098b851296ff0b7ed,65c510727304e12e1ac53d6d,,,,,,,,,,,,,,,,,,,,,,,,,,,,,248.0191,1,audio/Narrative7Situation3.wav,256.0341,,256.0341,265.3003,"[[62.1,1750],[48,1833],[41.4,1916],[26,2083],[24.7,2166],[24.7,2249],[28.3,2333],[49.8,2416],[66.6,2500],[67.5,2583],[67.9,2666],[69,2749],[69.1,2833],[67.6,2916],[62.2,2999],[55.9,3083],[50.6,3166],[45.1,3249],[40,3333],[36.7,3416],[31.4,3500],[29.3,3582],[29.3,3666],[28.8,3749],[27.3,3833],[26.6,3916],[26.4,3999],[26.3,4082],[26.3,4166],[26.3,4249],[26.3,4332],[26.1,4416],[25.8,4499],[25.4,4582],[25.3,4666],[25.3,4749],[25.3,4833],[25.3,4916],[25.3,4999],[24.1,5083],[21.7,5166],[20.7,5249],[19.5,5333],[18.1,5416],[16.5,5499],[16.1,5582],[16.1,5666],[16.1,5749],[16.1,5832],[16.1,5916],[16.1,5999],[16.1,6082],[16.1,6166],[16.1,6249],[17.4,6333],[20.4,6416],[20.7,6499],[21.9,6583],[29.4,6666],[36.8,6749],[40.9,6833],[45.7,6916],[52.2,6999],[58.1,7083],[62,7166],[63.2,7249],[63.4,7333],[64.1,7416],[64.9,7499],[66.6,7583],[66.6,7666],[66.8,7749],[67.2,7832],[67.2,7916],[67.2,7999],[67.2,8082],[68,8166],[68.2,8249],[68.2,8332],[68.2,8416],[68.2,8499],[68.2,8582],[68.2,8666],[68.2,8749],[68.2,8832],[68.2,8916],[68.2,8999],[68.2,9082],[68.6,9166],[68.6,9249]]",1,0,265.3005,272.0167,60.83333333,5.5041,"[{""rating"":60.83333333333334,""responseTime"":5.504100000023811}]",space,6.1669,,272.0167,Partially,50,272.0185,,,[],,0,3,3,3,1,audio/Narrative7Situation3.wav,audio/Narrative8Situation3.wav,audio/Narrative5Situation3.wav,audio/Narrative6Situation3.wav,8,4,3,5,,,,,,,,,,,,,,,,,,,,,,,,,,,,,,,,,,,,,,,
,,,,,,6424c007ad9d5e917aa16a2b,2024-02-08_12h33.50.817,group3.1-3.2-social-tom,2023.2.2,Win32,59.88023952,65c5074098b851296ff0b7ed,65c510727304e12e1ac53d6d,,,,,,,,,,,,,,,,,,,,,,,,,,,,,272.0186,1,audio/Narrative7Situation4.wav,275.0332,,275.0332,286.7495,"[[999,5],[999,83],[999,166],[999,249],[999,333],[999,416],[999,499],[999,583],[999,666],[999,750],[999,833],[999,916],[999,1000],[999,1083],[999,1166],[999,1250],[999,1333],[999,1416],[999,1499],[999,1583],[999,1666],[999,1749],[999,1833],[999,1916],[999,1999],[999,2083],[999,2166],[999,2249],[999,2333],[999,2416],[42.8,2500],[36.1,2583],[22.5,2666],[15.5,2750],[14.8,2833],[12,2916],[9.8,3000],[6.1,3083],[3.9,3166],[3.5,3249],[3.5,3333],[3.3,3416],[3.1,3499],[2.9,3583],[2.6,3666],[2.3,3750],[2,3833],[1.9,3916],[1.9,3999],[1.9,4083],[1.9,4166],[1.9,4249],[1.9,4333],[1.9,4416],[1.9,4499],[1.9,4583],[1.9,4666],[1.9,4749],[1.9,4833],[1.9,4916],[1.9,4999],[1.9,5083],[1.9,5166],[1.9,5249],[1.9,5333],[1.9,5416],[1.9,5499],[1.9,5583],[1.9,5666],[1.9,5749],[1.9,5833],[1.9,5916],[1.9,5999],[1.9,6083],[1.9,6166],[8.5,6249],[14.3,6333],[15.6,6416],[21.3,6499],[26.9,6583],[29.8,6666],[30.8,6749],[32.6,6833],[34.5,6916],[36.9,6999],[39.5,7083],[41.4,7166],[41.7,7249],[41.7,7333],[41.7,7416],[41.7,7499],[41.7,7583],[40.1,7666],[37.3,7749],[33.9,7833],[30.8,7916],[27.9,7999],[26,8083],[24.1,8166],[23.1,8249],[22.2,8333],[22,8416],[21.9,8499],[21.7,8583],[21.3,8666],[20.8,8750],[20.6,8832],[20.2,8916],[20.2,8999],[20.2,9082],[20.2,9166],[20.2,9249],[20.2,9332],[20.2,9416],[20.2,9499],[19.6,9583],[16.6,9666],[14.5,9749],[14.1,9832],[14.1,9916],[14.1,9999],[14.1,10082],[14.1,10166],[14.1,10249],[14.1,10332],[14.1,10416],[14.1,10499],[14.1,10582],[14.1,10666],[14.1,10749],[14.1,10832],[14.1,10916],[14.1,10999],[11,11083],[8.6,11166],[6.3,11249],[5.1,11332],[4.2,11416],[2.7,11499],[2.2,11583],[1.9,11666]]",1,0,286.7496,292.1492,0.729166667,2.2856,"[{""rating"":0.7291666666666641,""responseTime"":2.2856000000238623}]",space,4.8609,,292.1492,Not at all,0,292.156,,,[],,0,4,4,4,1,audio/Narrative7Situation4.wav,audio/Narrative8Situation4.wav,audio/Narrative5Situation4.wav,audio/Narrative6Situation4.wav,3,3,1,2,,,,,,,,,,,,,,,,,,,,,,,,,,,,,,,,,,,,,,,
,,,,,,6424c007ad9d5e917aa16a2b,2024-02-08_12h33.50.817,group3.1-3.2-social-tom,2023.2.2,Win32,59.88023952,65c5074098b851296ff0b7ed,65c510727304e12e1ac53d6d,,,,,,,,,,,,,,,,,,,,,,,,,,,,,292.1562,1,audio/Narrative7Situation5.wav,297.1657,,297.1657,305.6654,"[[24.5,1583],[15.6,1666],[6.4,1750],[5.4,1833],[5,1916],[2.5,2000],[0.4,2083],[0.3,2166],[0.3,2249],[0.3,2333],[0.3,2416],[0.3,2499],[0.3,2583],[0.3,2666],[0.3,2749],[0.3,2833],[0.3,2916],[0.3,2999],[0.3,3083],[0.3,3166],[0.3,3249],[0.3,3333],[0.3,3416],[0.3,3499],[0.3,3583],[0.3,3666],[0.3,3749],[0.3,3833],[0.3,3916],[0.3,3999],[0.3,4082],[0.3,4166],[0.3,4249],[0.3,4333],[0.3,4416],[0.3,4499],[0.3,4583],[0.3,4666],[0.3,4749],[0.3,4833],[0.3,4916],[0.3,4999],[0.3,5083],[0.3,5166],[0.3,5249],[0.3,5333],[0.3,5416],[0.3,5499],[0.3,5582],[0.3,5666],[0.3,5749],[0.3,5833],[0.3,5916],[0.3,5999],[0.3,6082],[0.3,6166],[0.3,6249],[0.3,6332],[0.3,6416],[0.3,6499],[0.3,6583],[0.3,6666],[0.3,6749],[0.3,6832],[0.3,6916],[0.3,6999],[0.3,7082],[0.3,7166],[0.3,7249],[0.3,7332],[0.3,7416],[0.3,7499],[0.3,7582],[0.3,7666],[0.3,7749],[0.3,7832],[0.3,7916],[0.3,7999],[0.3,8082],[0.3,8166],[0.3,8249],[0.3,8332],[0.3,8416],[0.3,8499]]",1,0,305.6655,309.2985,0.3125,0.4086,"[{""rating"":0.3124999999999989,""responseTime"":0.40860000002379593}]",space,3.0928,,309.2986,Definitely yes,100,309.3004,,,[],,0,5,5,5,1,audio/Narrative7Situation5.wav,audio/Narrative8Situation5.wav,audio/Narrative5Situation5.wav,audio/Narrative6Situation5.wav,5,2,5,2,,,,,,,,,,,,,,,,,,,,,,,,,,,,,,,,,,,,,,,
,,,,,,6424c007ad9d5e917aa16a2b,2024-02-08_12h33.50.817,group3.1-3.2-social-tom,2023.2.2,Win32,59.88023952,65c5074098b851296ff0b7ed,65c510727304e12e1ac53d6d,,,,,,,,,,,,,,,,,,,,,,,,,,,,,309.3006,1,audio/Narrative7Situation6.wav,312.315,,312.315,322.298,"[[0.8,2583],[1.9,2666],[2.7,2750],[3.2,2833],[3.3,2916],[3.3,2999],[3.3,3083],[5.4,3166],[15.4,3249],[24.3,3333],[27,3416],[29.2,3500],[33.4,3583],[42.2,3666],[50.5,3749],[55.2,3833],[57.1,3916],[61,4000],[66.7,4083],[71.6,4166],[74.8,4249],[77.4,4333],[79.6,4416],[81,4499],[82.7,4583],[85.7,4666],[90.7,4749],[97.1,4833],[98.8,4916],[99.6,4999],[100,5082],[100,5166],[100,5249],[100,5332],[100,5416],[100,5499],[100,5582],[100,5666],[100,5749],[100,5832],[100,5916],[100,5999],[100,6082],[100,6166],[100,6249],[100,6332],[100,6416],[100,6499],[100,6582],[100,6666],[100,6749],[100,6832],[100,6916],[100,6999],[100,7082],[100,7166],[100,7249],[100,7332],[100,7416],[100,7499],[100,7582],[100,7666],[100,7749],[100,7832],[100,7916],[100,7999],[100,8082],[100,8166],[100,8249],[100,8332],[100,8416],[100,8499],[100,8582],[100,8666],[100,8749],[100,8832],[100,8916],[99.9,8999],[99.6,9082],[99.6,9166],[99.6,9249],[99.6,9332],[99.6,9416],[99.6,9499],[99.6,9582],[99,9666],[98.9,9749],[98.9,9832],[98.9,9916]]",1,0,322.2981,325.2145,97.5,2.0594,"[{""rating"":97.5,""responseTime"":2.059399999976108}]",space,2.3725,,325.2145,Not at all,0,325.2161,,,[],,0,6,6,6,1,audio/Narrative7Situation6.wav,audio/Narrative8Situation6.wav,audio/Narrative5Situation6.wav,audio/Narrative6Situation6.wav,3,2,3,2,,,,,,,,,,,,,,,,,,,,,,,,,,,,,,,,,,,,,,,
,,,,,,6424c007ad9d5e917aa16a2b,2024-02-08_12h33.50.817,group3.1-3.2-social-tom,2023.2.2,Win32,59.88023952,65c5074098b851296ff0b7ed,65c510727304e12e1ac53d6d,,,,,,,,,,,,,,,,,,,,,,,,,,,,,325.2162,1,audio/Narrative7Situation7.wav,330.2309,,330.2309,347.4136,"[[74,583],[72.6,666],[65.6,1666],[68.6,1750],[71.1,1833],[72.4,1916],[72.4,1999],[73.8,2083],[81.7,2166],[90.8,2250],[91.4,2333],[91.4,2416],[91.4,2499],[91.4,2583],[92.2,2666],[95.3,2750],[95.9,2833],[95.9,2916],[95.9,2999],[95.9,3083],[95.9,3166],[95.9,3249],[95.9,3333],[95.9,3416],[95.9,3499],[95.9,3583],[95.9,3666],[95.9,3749],[97.6,3833],[98,3916],[98,3999],[98,4083],[98,4166],[98,4249],[98,4333],[98,4416],[98,4499],[98,4583],[98,4666],[98,4749],[98,4833],[98,4916],[98,4999],[98,5083],[98,5166],[98,5249],[98,5333],[98,5416],[98,5499],[98,5583],[98,5666],[98,5749],[98,5833],[98,5916],[98,5999],[98,6082],[98,6166],[98,6249],[98,6332],[98,6416],[98,6499],[98,6582],[98,6666],[98,6749],[98,6832],[98,6916],[98,6999],[98,7083],[98,7166],[98,7249],[98,7332],[98,7416],[98,7499],[98,7582],[98,7666],[98,7749],[98,7832],[98,7916],[98,7999],[98,8082],[98,8166],[98,8249],[98,8332],[98,8416],[98,8499],[98,8582],[98,8666],[98,8749],[98,8832],[96.5,8916],[95.3,8999],[94.9,9083],[94.7,9166],[94.2,9249],[92.5,9333],[90.8,9416],[90.7,9499],[90.7,9582],[90.7,9666],[90.7,9749],[83.6,9833],[73.8,9916],[69.1,9999],[68.5,10082],[67.9,10166],[67.1,10249],[66,10333],[65.2,10416],[64.7,10499],[64.7,10582],[64.7,10666],[64.7,10749],[64.7,10832],[64.7,10916],[64.7,10999],[64.7,11082],[64.7,11166],[64.7,11249],[64.6,11333],[64.2,11416],[64.2,11499],[63.8,11582],[63.1,11666],[62.7,11749],[62.5,11832],[62.5,11915],[62.5,11999],[62.5,12082],[61.9,12166],[60.9,12249],[60.2,12333],[59.8,12416],[59.8,12499],[59.8,12582],[59.8,12666],[59.8,12749],[59.3,12832],[57.1,12916],[56.4,12999],[55.9,13082],[55.5,13166],[55.2,13249],[55.2,13332],[55.2,13415],[55.2,13499],[55.2,13582],[55.1,13666],[54.8,13749],[54.8,13832],[54.5,13916],[54.3,13999],[53.6,14083],[53,14166],[52.6,14249],[52.3,14332],[52.2,14415],[52.2,14499],[52.2,14582],[53.5,14666],[58.8,14749],[66.7,14832],[73,14916],[77.5,14999],[81.5,15082],[87.2,15166],[90.7,15249],[93.6,15332],[96.3,15416],[97,15499],[98.1,15582],[98.9,15666],[99.4,15749],[99.5,15832],[99.5,15915],[99.5,15999],[99.5,16082],[99.5,16165],[99.5,16249],[99.5,16332],[99.5,16415],[99.5,16499],[99.5,16582],[99.5,16665],[99.5,16749],[99.5,16832],[99.5,16915],[99.5,16999],[99.5,17082],[99.5,17165]]",1,0,347.4137,349.3301,99.58333333,1.6301,"[{""rating"":99.58333333333333,""responseTime"":1.6301000000238446}]",space,1.3725,,349.3301,Not at all,0,349.3313,,,[],,0,7,7,7,1,audio/Narrative7Situation7.wav,audio/Narrative8Situation7.wav,audio/Narrative5Situation7.wav,audio/Narrative6Situation7.wav,5,3,4,5,,,,,,,,,,,,,,,,,,,,,,,,,,,,,,,,,,,,,,,
,,,,,,6424c007ad9d5e917aa16a2b,2024-02-08_12h33.50.817,group3.1-3.2-social-tom,2023.2.2,Win32,59.88023952,65c5074098b851296ff0b7ed,65c510727304e12e1ac53d6d,,,,,,,,,,,,,,,,,,,,,,,,,,,,,349.3316,1,audio/Narrative7Situation8.wav,351.3466,,351.3466,361.3629,"[[55.8,666],[43.5,833],[43,916],[44.1,1000],[45.5,1083],[47.7,1166],[48,1249],[46.4,1333],[31.4,1416],[24.4,1500],[23.6,1583],[18.8,1666],[15.9,1749],[15.9,1833],[15.9,1916],[15.9,1999],[15.9,2083],[15.9,2166],[15.9,2249],[15.9,2333],[15.9,2416],[15.9,2499],[15.9,2583],[15.9,2666],[15.9,2749],[15.9,2833],[14.8,2916],[14.8,2999],[14.8,3083],[14.8,3166],[14.2,3250],[12.2,3333],[10.9,3416],[10.8,3499],[10.8,3583],[10.7,3666],[10,3749],[9.4,3833],[8.8,3916],[8.6,3999],[8.6,4083],[8.5,4166],[6.9,4250],[1.6,4333],[1.6,4416],[1.6,4499],[1.6,4583],[1.6,4666],[1.6,4749],[1.6,4833],[1.6,4916],[1.6,4999],[1.6,5083],[1.6,5166],[1.8,5249],[22.6,5333],[40.2,5416],[44,5499],[47.9,5583],[53.6,5666],[57.8,5749],[65.8,5833],[71.9,5916],[74.9,6000],[81.5,6083],[88.1,6166],[94.8,6249],[98.1,6333],[98.5,6416],[99.3,6499],[100,6583],[100,6666],[100,6749],[100,6832],[100,6916],[100,6999],[100,7082],[100,7166],[100,7249],[100,7333],[100,7416],[100,7499],[100,7582],[100,7666],[100,7749],[100,7832],[100,7916],[100,7999],[100,8082],[100,8166],[100,8249],[100,8332],[100,8416],[100,8499],[100,8582],[100,8666],[100,8749],[100,8832],[100,8916],[100,8999],[100,9082],[100,9166],[100,9249],[99.8,9332],[99.8,9416],[99.8,9499],[99.8,9582],[99.8,9666],[99.8,9749],[99.8,9832],[99.8,9916],[99.8,9999]]",1,0,361.363,363.7962,97.39583333,2.1858,"[{""rating"":97.39583333333333,""responseTime"":2.1857999999522804}]",space,1.8854,,363.7962,Not at all,0,363.7972,,,[],,0,8,8,8,1,audio/Narrative7Situation8.wav,audio/Narrative8Situation8.wav,audio/Narrative5Situation8.wav,audio/Narrative6Situation8.wav,2,3,3,5,,,,,,,,,,,,,,,,,,,,,,,,,,,,,,,,,,,,,,,
,,,,,,6424c007ad9d5e917aa16a2b,2024-02-08_12h33.50.817,group3.1-3.2-social-tom,2023.2.2,Win32,59.88023952,65c5074098b851296ff0b7ed,65c510727304e12e1ac53d6d,,,,,,,,,,,,,,,,,,,,,,,,,,,,,363.7973,1,audio/Narrative7Situation9.wav,365.8129,,365.813,374.4457,"[[49.3,83],[49.2,166],[49.2,249],[49.2,332],[49.2,416],[49.2,499],[49.2,583],[49.2,666],[49.2,749],[49.2,832],[49.2,916],[49.2,999],[50.3,1083],[55.9,1166],[56,1249],[56,1332],[56,1416],[56,1499],[56,1582],[56,1666],[56,1749],[56,1832],[56,1916],[57.9,1999],[68.6,2083],[81.6,2166],[86.1,2249],[90.8,2333],[100,2833],[100,2916],[100,2999],[99.2,3083],[99.1,3166],[99.1,3249],[99.1,3332],[99.1,3416],[99.1,3499],[99.1,3582],[99.1,3666],[99.1,3749],[99.1,3832],[99.1,3916],[99.1,3999],[99.1,4082],[99.1,4166],[99.1,4249],[99.1,4332],[99.1,4416],[99.1,4499],[99.1,4582],[99.1,4666],[99.1,4749],[99.1,4832],[99.1,4916],[99.1,4999],[99.1,5082],[99.1,5166],[99.1,5249],[99.1,5332],[99.1,5416],[99.1,5499],[99.1,5582],[99.1,5665],[99.1,5749],[99.1,5832],[99.1,5915],[99.1,5999],[99.1,6082],[99.1,6165],[99.1,6249],[99.1,6332],[99.1,6415],[99.1,6499],[99.1,6582],[99.1,6665],[99.1,6749],[99.1,6832],[99.1,6915],[99.1,6999],[99.1,7082],[99.1,7165],[99.1,7249],[99.1,7332],[99.1,7415],[99.1,7499],[99.1,7582],[99.1,7666],[99.1,7749],[99.1,7832],[99.1,7915],[99.1,7999],[99,8082],[90.1,8166],[84.7,8249],[83.9,8332],[83.9,8415],[83,8499],[80.6,8582]]",1,0,374.4458,376.6789,98.54166667,2.0224,"[{""rating"":98.54166666666666,""responseTime"":2.0223999999761872}]",space,1.7011,,376.6789,Definitely yes,100,376.6806,,,[],,0,9,9,9,1,audio/Narrative7Situation9.wav,audio/Narrative8Situation9.wav,audio/Narrative5Situation9.wav,audio/Narrative6Situation9.wav,2,3,3,4,,,,,,,,,,,,,,,,,,,,,,,,,,,,,,,,,,,,,,,
,,,,,,6424c007ad9d5e917aa16a2b,2024-02-08_12h33.50.817,group3.1-3.2-social-tom,2023.2.2,Win32,59.88023952,65c5074098b851296ff0b7ed,65c510727304e12e1ac53d6d,,,,,,,,,,,,,,,,,,,,,,,,,,,,,376.6807,1,audio/Narrative8Situation1.wav,381.6953,,381.6954,397.628,"[[64.3,3916],[63.4,3999],[62.1,4083],[61.9,4166],[61.6,4249],[55.3,4333],[44.4,4416],[31.3,4499],[23.1,4583],[18.9,4666],[12.3,4749],[4.2,4833],[1.6,9666],[4.7,9749],[8.2,9833],[14.4,9916],[20.9,9999],[27.3,10082],[35.2,10166],[42.2,10249],[47.8,10332],[51.3,10416],[55.3,10499],[61.5,10583],[67.7,10666],[70.6,10749],[73.1,10833],[78.5,10916],[89.2,10999],[94.6,11082],[95.8,11166],[97.1,11249],[98,11332],[99.4,11416],[99.9,11499],[99.9,11582],[99.9,11665],[99.9,11749],[99.9,11832],[99.9,11915],[99.9,11999],[99.9,12082],[99.9,12166],[99.9,12249],[99.9,12332],[99.9,12415],[99.9,12499],[99.9,12582],[99.9,12665],[99.9,12749],[99.9,12832],[99.9,12915],[99.9,12999],[99.9,13082],[99.9,13165],[99.9,13249],[99.9,13332],[99.9,13415],[99.9,13499],[99.9,13582],[99.9,13665],[99.9,13749],[99.9,13832],[99.9,13915],[99.9,13999],[99.9,14082],[99.9,14165],[99.9,14249],[99.9,14332],[99.9,14415],[99.9,14499],[99.9,14582],[99.9,14665],[99.9,14749],[99.9,14832],[99.9,14915],[99.9,14999],[99.9,15082],[99.9,15165],[99.9,15249],[98.4,15332],[96.6,15416],[94.7,15499],[94.5,15582],[94.4,15665],[94.4,15749],[94.2,15832],[94,15915]]",1,0,397.6281,402.2945,98.85416667,3.2725,"[{""rating"":95.72916666666667,""responseTime"":1.1858000000715379},{""rating"":98.85416666666667,""responseTime"":3.2725000000000364}]",space,4.1248,,402.2945,Not at all,0,402.2961,,,[],,0,10,10,10,1,audio/Narrative8Situation1.wav,audio/Narrative7Situation1.wav,audio/Narrative6Situation1.wav,audio/Narrative5Situation1.wav,5,2,2,5,,,,,,,,,,,,,,,,,,,,,,,,,,,,,,,,,,,,,,,
,,,,,,6424c007ad9d5e917aa16a2b,2024-02-08_12h33.50.817,group3.1-3.2-social-tom,2023.2.2,Win32,59.88023952,65c5074098b851296ff0b7ed,65c510727304e12e1ac53d6d,,,,,,,,,,,,,,,,,,,,,,,,,,,,,402.2962,1,audio/Narrative8Situation2.wav,405.311,,405.3111,415.4439,"[[999,0],[999,83],[999,166],[999,249],[999,333],[999,416],[999,499],[999,583],[999,666],[999,749],[999,833],[999,916],[999,999],[999,1083],[999,1166],[999,1250],[999,1333],[999,1416],[999,1500]]",1,0,415.4441,418.2105,0.3125,2.4026,"[{""rating"":0.3124999999999989,""responseTime"":2.402600000023881}]",space,2.221,,418.2105,Partially,50,418.2121,,,[],,0,11,11,11,1,audio/Narrative8Situation2.wav,audio/Narrative7Situation2.wav,audio/Narrative6Situation2.wav,audio/Narrative5Situation2.wav,3,3,3,3,,,,,,,,,,,,,,,,,,,,,,,,,,,,,,,,,,,,,,,
,,,,,,6424c007ad9d5e917aa16a2b,2024-02-08_12h33.50.817,group3.1-3.2-social-tom,2023.2.2,Win32,59.88023952,65c5074098b851296ff0b7ed,65c510727304e12e1ac53d6d,,,,,,,,,,,,,,,,,,,,,,,,,,,,,418.2122,1,audio/Narrative8Situation3.wav,422.2269,,422.227,444.6093,"[[7.6,9499],[18.5,9583],[22.1,9666],[29.3,9749],[84.7,10166],[84.9,10249],[85,10333],[85,10416],[85,10499],[85,10582],[85,10666],[83.2,10749],[82.3,10832],[81.6,10916],[80.8,10999],[80,11082],[79.4,11166],[79.1,11249],[78.3,11332],[77.6,11416],[76.9,11499],[76.6,11583],[76.6,11665],[76.6,11749],[76.7,11832],[76.8,11915],[77.1,11999],[77.3,12082],[77.5,12165],[77.5,12249],[77.5,12332],[77.5,12415],[77.5,12499],[77.5,12582],[77.5,12665],[77.5,12749],[77.5,12832],[77.5,12915],[77.5,12999],[77.5,13082],[77.5,13165],[77.5,13249],[77.5,13332],[78.3,13416],[79.4,13499],[81,13582],[82.3,13666],[82.7,13749],[82.7,13832],[82.7,13915],[82.7,13999],[82.7,14082],[82.7,14165],[82.7,14249],[82.7,14332],[82.7,14415],[81.4,14499],[80.5,14582],[80.1,14665],[80,14749],[80,14832],[80,14915],[80,14999],[79.5,15082],[78.5,15166],[77.2,15249],[76.4,15332],[76,15415],[75.9,15499],[75.9,15582],[75.9,15665],[75.9,15749],[75.9,15832],[75.9,15915],[75.9,15999],[75.9,16082],[75.9,16165],[75.9,16249],[75.9,16332],[75.9,16415],[75.9,16499],[75.9,16582],[75.9,16665],[75.9,16749],[75.9,16832],[75.9,16915],[75.9,16999],[75.9,17082],[75.9,17165],[75.9,17249],[75.9,17332],[75.9,17415],[75.9,17499],[75.9,17582],[75.9,17665],[75.9,17749],[75.9,17832],[75.9,17915],[75.9,17999],[75.9,18082],[75.9,18165],[75.9,18249],[75.9,18332],[75.9,18415],[75.9,18499],[75.9,18582],[75.9,18665],[75.9,18749],[75.9,18832],[75.9,18915],[75.9,18999],[75.9,19082],[75.9,19165],[75.9,19249],[75.9,19332],[75.9,19415],[75.9,19499],[75.9,19582],[75.9,19665],[77,19749],[79,19832],[80.5,19915],[80.9,19999],[80.9,20082],[81.1,20165],[82.3,20249],[83.9,20332],[84.1,20415],[84.1,20498],[84.1,20582],[84.1,20665],[84.1,20749],[84.1,20832],[84.3,20915],[84.4,20999],[84.4,21082],[84.4,21165],[84.4,21248],[84.4,21332],[84.4,21415],[84.4,21498],[84.4,21582],[84.4,21665],[84.4,21748],[84.4,21832],[84.4,21915],[84.4,21998],[84.4,22082],[84.4,22165],[84.4,22248],[84.4,22332]]",1,0,444.6095,446.7094,83.4375,1.348,"[{""rating"":83.4375,""responseTime"":1.3480000000000132}]",space,1.5542,,446.7095,Partially,50,446.7108,,,[],,0,12,12,12,1,audio/Narrative8Situation3.wav,audio/Narrative7Situation3.wav,audio/Narrative6Situation3.wav,audio/Narrative5Situation3.wav,4,8,5,3,,,,,,,,,,,,,,,,,,,,,,,,,,,,,,,,,,,,,,,
,,,,,,6424c007ad9d5e917aa16a2b,2024-02-08_12h33.50.817,group3.1-3.2-social-tom,2023.2.2,Win32,59.88023952,65c5074098b851296ff0b7ed,65c510727304e12e1ac53d6d,,,,,,,,,,,,,,,,,,,,,,,,,,,,,446.711,1,audio/Narrative8Situation4.wav,449.7257,,449.7257,463.8919,"[[62,416],[53.4,500],[52.2,583],[50.6,666],[50,750],[49.9,833],[49.8,916],[49.8,1000],[49.8,1083],[49.8,1166],[49.8,1249],[44.6,1333],[31.8,1416],[20.8,1500],[14.7,1583],[11.6,1666],[7.6,1750],[2.9,1833],[2.6,4583],[5.2,4666],[9.9,4750],[18.8,4833],[28.5,4916],[37.7,4999],[44.1,5083],[48.6,5166],[51.3,5250],[52.6,5333],[53.6,5416],[55.1,5500],[55.6,5583],[57.6,5666],[60.1,5749],[63.9,5833],[65.8,5916],[68.4,6000],[70.9,6083],[72.4,6166],[73.9,6249],[75.2,6333],[75.6,6416],[76,6499],[77.1,6583],[78.6,6666],[80,6749],[82.5,6833],[85.3,6916],[89,6999],[92,7083],[94.7,7166],[97.5,7249],[98.2,7333],[98.9,7416],[99.5,7499],[99.5,7583],[99.5,7666],[99.5,7749],[99.5,7832],[99.5,7916],[100,7999],[100,8083],[100,8166],[100,8249],[100,8333],[100,8416],[100,8499],[100,8582],[100,8666],[100,8749],[100,8832],[100,8916],[100,8999],[100,9082],[100,9166],[100,9249],[100,9333],[100,9416],[100,9499],[100,9583],[100,9666],[100,9749],[100,9833],[100,9916],[100,9999],[100,10082],[100,10166],[100,10249],[100,10332],[100,10416],[100,10499],[100,10582],[100,10666],[100,10749],[100,10832],[100,10916],[100,10999],[100,11082],[100,11166],[100,11249],[100,11332],[100,11416],[100,11499],[100,11582],[100,11666],[100,11749],[100,11832],[100,11916],[100,11999],[100,12082],[100,12166],[100,12249],[100,12332],[100,12416],[100,12499],[100,12582],[100,12666],[100,12749],[100,12832],[100,12916],[100,12999],[100,13082],[100,13166],[100,13249],[100,13332],[100,13415],[100,13499],[100,13582],[100,13665],[100,13749],[100,13832],[100,13916],[100,13999],[100,14082],[100,14166]]",1,0,463.892,465.7251,99.375,1.4748,"[{""rating"":99.375,""responseTime"":1.4747999999523245}]",space,1.2835,,465.7251,Definitely yes,100,465.7265,,,[],,0,13,13,13,1,audio/Narrative8Situation4.wav,audio/Narrative7Situation4.wav,audio/Narrative6Situation4.wav,audio/Narrative5Situation4.wav,3,3,2,1,,,,,,,,,,,,,,,,,,,,,,,,,,,,,,,,,,,,,,,
,,,,,,6424c007ad9d5e917aa16a2b,2024-02-08_12h33.50.817,group3.1-3.2-social-tom,2023.2.2,Win32,59.88023952,65c5074098b851296ff0b7ed,65c510727304e12e1ac53d6d,,,,,,,,,,,,,,,,,,,,,,,,,,,,,465.7267,1,audio/Narrative8Situation5.wav,467.7416,,467.7417,475.9913,"[[90.4,750],[81.8,833],[80,916],[77.4,1000],[72.7,1083],[69.4,1166],[68.9,1249],[68.9,1333],[68.9,1416],[68.9,1499],[68.9,1583],[75.1,1666],[81.6,1750],[83.8,1833],[84.4,1916],[84.5,1999],[84.7,2083],[84.7,2166],[84.7,2249],[84.7,2333],[84.7,2416],[84.7,2499],[84.7,2583],[84.7,2666],[84.7,2749],[84.7,2833],[84.7,2916],[84.7,2999],[84.7,3083],[84.7,3166],[84.7,3249],[85.9,3333],[87.9,3416],[89.9,3500],[93.3,3583],[94.7,3666],[97,3749],[97.5,3833],[97.8,3916],[98.2,3999],[98.3,4083],[98.5,4166],[98.5,4249],[98.5,4333],[98.5,4416],[98.5,4499],[98.5,4583],[98.5,4666],[98.5,4749],[98.5,4833],[98.5,4916],[98.5,4999],[98.5,5083],[98.5,5166],[98.5,5249],[98.5,5333],[98.5,5416],[98.5,5499],[98.5,5583],[98.5,5666],[98.5,5749],[98.5,5833],[98.5,5916],[98.5,5999],[98.5,6083],[98.5,6166],[98.5,6249],[98.5,6333],[98.5,6416],[98.5,6499],[98.5,6583],[98.5,6666],[98.5,6749],[98.5,6832],[98.5,6916],[98.5,6999],[98.5,7082],[98.5,7166],[98.5,7249],[98.5,7333],[98.5,7416],[98.5,7499],[98.5,7582],[98.5,7666],[98.5,7749],[98.5,7832],[98.5,7916],[98.5,7999],[98.5,8082],[98.5,8166],[98.5,8249]]",1,0,475.9915,478.6245,99.27083333,2.0873,"[{""rating"":99.27083333333333,""responseTime"":2.087299999952336}]",space,2.0906,,478.6246,Partially,50,478.6262,,,[],,0,14,14,14,1,audio/Narrative8Situation5.wav,audio/Narrative7Situation5.wav,audio/Narrative6Situation5.wav,audio/Narrative5Situation5.wav,2,5,2,5,,,,,,,,,,,,,,,,,,,,,,,,,,,,,,,,,,,,,,,
,,,,,,6424c007ad9d5e917aa16a2b,2024-02-08_12h33.50.817,group3.1-3.2-social-tom,2023.2.2,Win32,59.88023952,65c5074098b851296ff0b7ed,65c510727304e12e1ac53d6d,,,,,,,,,,,,,,,,,,,,,,,,,,,,,478.6263,1,audio/Narrative8Situation6.wav,480.6411,,480.6412,487.1242,[],1,0,487.1243,491.0407,1.979166667,3.3589,"[{""rating"":1.9791666666666652,""responseTime"":3.358900000095389}]",space,3.372,,491.0407,Not at all,0,491.0423,,,[],,0,15,15,15,1,audio/Narrative8Situation6.wav,audio/Narrative7Situation6.wav,audio/Narrative6Situation6.wav,audio/Narrative5Situation6.wav,2,3,2,3,,,,,,,,,,,,,,,,,,,,,,,,,,,,,,,,,,,,,,,
,,,,,,6424c007ad9d5e917aa16a2b,2024-02-08_12h33.50.817,group3.1-3.2-social-tom,2023.2.2,Win32,59.88023952,65c5074098b851296ff0b7ed,65c510727304e12e1ac53d6d,,,,,,,,,,,,,,,,,,,,,,,,,,,,,491.0425,1,audio/Narrative8Situation7.wav,494.0572,,494.0572,506.1402,"[[3.9,833],[4.7,916],[5.6,1000],[5.7,1083],[5.7,1166],[5.6,1250],[5.2,1333],[5.2,1416],[5.2,1499],[5.2,1583],[5.2,1666],[5.2,1749],[5.2,1833],[5.2,1916],[5.2,1999],[5.2,2083],[5.2,2166],[5.2,2249],[5.2,2333],[5.2,2416],[5.2,2499],[5.2,2583],[5.2,2666],[5.2,2749],[5.2,2833],[5.2,2916],[5.2,3000],[5.2,3083],[9.8,3166],[11.5,3249],[11.5,3333],[11.5,3416],[11.5,3499],[11.5,3583],[11.5,3666],[11.5,3749],[11.5,3833],[11.5,3916],[11.5,3999],[11.5,4083],[11.5,4166],[11.5,4249],[11.5,4333],[11.5,4416],[11.5,4499],[11.5,4583],[11.5,4666],[11.5,4749],[11.5,4833],[11.5,4916],[11.5,4999],[16.4,5083],[25.8,5166],[26.1,5249],[26.1,5333],[26.1,5416],[26.1,5499],[26.1,5583],[25.5,5666],[21,5749],[13.9,5833],[9.9,5916],[7.8,5999],[6,6083],[5.6,6166],[5.6,6249],[5.6,6333],[5.5,6416],[2.9,6499],[1.5,6583],[1.4,6666],[1.4,6749],[1.4,6833],[1.4,6916],[1.4,6999],[1.4,7082],[1.4,7166],[1.4,7249],[1.4,7332],[1.4,7416],[1.4,7499],[1.4,7582],[1.4,7666],[1.4,7749],[1.4,7833],[1.4,7916],[1.4,7999],[1.4,8082],[1.4,8166],[1.4,8249],[1.4,8333],[1.4,8416],[1.4,8499],[1.4,8582],[1.4,8666],[1.4,8749],[1.4,8832],[1.4,8916],[1.4,8999],[1.4,9082],[1.4,9166],[1.4,9249],[1.4,9332],[1.4,9416],[1.4,9499],[1.4,9582],[1.4,9666],[1.4,9749],[1.4,9832],[1.4,9916],[1.4,9999],[1.4,10082],[1.4,10166],[1.4,10249],[1.4,10332],[1.4,10416],[1.4,10499],[1.4,10583],[1.4,10666],[1.4,10749],[1.4,10832],[1.4,10916],[1.4,10999],[1.4,11082],[1.4,11166],[1.4,11249],[1.4,11332],[1.4,11416],[1.4,11499],[1.4,11583],[1.4,11666],[1.4,11749],[1.4,11832],[1.4,11916],[1.4,11999],[1.4,12082]]",1,0,506.1402,508.5233,2.8125,1.9912,"[{""rating"":2.812500000000001,""responseTime"":1.9912000000476837}]",space,1.8477,,508.5233,Partially,50,508.5248,,,[],,0,16,16,16,1,audio/Narrative8Situation7.wav,audio/Narrative7Situation7.wav,audio/Narrative6Situation7.wav,audio/Narrative5Situation7.wav,3,5,5,4,,,,,,,,,,,,,,,,,,,,,,,,,,,,,,,,,,,,,,,
,,,,,,6424c007ad9d5e917aa16a2b,2024-02-08_12h33.50.817,group3.1-3.2-social-tom,2023.2.2,Win32,59.88023952,65c5074098b851296ff0b7ed,65c510727304e12e1ac53d6d,,,,,,,,,,,,,,,,,,,,,,,,,,,,,508.525,1,audio/Narrative8Situation8.wav,511.5399,,511.5399,524.406,"[[3.2,750],[3.6,833],[3.6,916],[3.6,999],[2.1,1083],[0.1,7749],[0.1,7832],[0.1,7916],[0.1,7999],[0.1,8082],[0.1,8166],[0.1,8249],[0.1,8332],[0.1,8416],[0.1,8499],[0.1,8582],[0.1,8666],[0.1,8749],[0.3,8832],[0.3,8916],[0.3,8999],[0.3,9082],[0.3,9166],[0.3,9249],[0.3,9332],[0.4,9416],[0.5,9499],[0.5,9582],[0.5,9666],[0.5,9749],[0.5,9832],[0.5,9916],[0.5,9999],[0.5,10082],[0.5,10166],[0.5,10249],[0.5,10332],[0.5,10416],[0.5,10499],[0.5,10582],[0.5,10666],[0.5,10749],[0.5,10832],[0.5,10916],[0.5,10999],[0.5,11082],[0.5,11166],[0.5,11249],[0.5,11332],[0.5,11416],[0.5,11499],[0.5,11582],[0.5,11666],[0.5,11749],[0.5,11832],[0.5,11916],[0.5,11999],[0.5,12082],[0.5,12166],[0.5,12249],[0.5,12332],[0.5,12416],[0.5,12499],[0.5,12582],[0.5,12666],[0.5,12749],[0.5,12832]]",1,0,524.4061,526.9061,1.979166667,1.519,"[{""rating"":1.9791666666666652,""responseTime"":1.5190000000000055}]",space,1.9513,,526.9062,Not at all,0,526.9077,,,[],,0,17,17,17,1,audio/Narrative8Situation8.wav,audio/Narrative7Situation8.wav,audio/Narrative6Situation8.wav,audio/Narrative5Situation8.wav,3,2,5,3,,,,,,,,,,,,,,,,,,,,,,,,,,,,,,,,,,,,,,,
,,,,,,6424c007ad9d5e917aa16a2b,2024-02-08_12h33.50.817,group3.1-3.2-social-tom,2023.2.2,Win32,59.88023952,65c5074098b851296ff0b7ed,65c510727304e12e1ac53d6d,,,,,,,,,,,,,,,,,,,,,,,,,,,,,526.9079,1,audio/Narrative8Situation9.wav,529.9223,,529.9223,541.2553,"[[3.4,10166],[5.7,10249],[7.3,10333],[7.7,10416],[6.1,10499],[2.1,10583],[1.1,10666],[0.9,10749],[0.9,10832],[0.9,10916],[0.9,11001],[0.9,11082],[0.9,11166],[0.9,11249],[0.9,11332]]",1,0,541.2553,543.7218,1.354166667,1.1615,"[{""rating"":1.3541666666666674,""responseTime"":1.1615000000000464}]",space,1.9277,,543.7218,Not at all,0,563.5543,0,11.5694,"[{""rating"":0,""responseTime"":11.569399999976213}]",space,0,18,18,18,1,audio/Narrative8Situation9.wav,audio/Narrative7Situation9.wav,audio/Narrative6Situation9.wav,audio/Narrative5Situation9.wav,3,2,4,3,,,19.2924,,,,,,,,,,,,,,,,,,,,,,,,,,,,,,,,,,,,
,,,,,,6424c007ad9d5e917aa16a2b,2024-02-08_12h33.50.817,group3.1-3.2-social-tom,2023.2.2,Win32,59.88023952,65c5074098b851296ff0b7ed,65c510727304e12e1ac53d6d,,,,,,,,,,,,,,,,,,,,,,,,,,,602.6368,605.2191,605.232,2,audio/Narrative13Situation2.wav,605.2321,,605.2321,634.9865,"[[999,0],[999,70],[999,155],[999,238],[999,320],[999,404],[999,486],[999,570],[999,653],[999,738],[999,820],[999,903],[999,988],[999,1070],[999,1153],[999,1236],[999,1320],[999,1403],[999,1488],[999,1571],[999,1655],[999,1736],[999,1820],[999,1904],[999,1988],[23.2,2072],[22,2154],[22.6,2238],[24.8,2322],[25.1,2403],[9.5,2488],[6.7,8071],[28.6,8155],[33.2,8238],[39.8,8322],[51.9,8405],[70.5,8488],[84.6,8572],[90.6,8655],[94.4,8738],[95.8,8822],[96.8,8905],[97.8,8988],[98.3,9069],[98.3,9154],[98.9,9238],[99.5,9322],[99.7,9403],[99.7,9488],[99.7,9571],[99.7,9653],[99.7,9738],[99.7,9819],[99.7,9904],[99.9,9988],[100,10070],[100,10154],[100,10237],[100,10319],[100,10403],[100,10487],[100,10569],[100,10653],[100,10736],[100,10821],[100,10903],[100,10986],[100,11071],[100,11153],[100,11237],[100,11321],[100,11404],[100,11486],[100,11569],[100,11654],[100,11736],[100,11819],[100,11904],[100,11986],[100,12071],[100,12154],[100,12238],[100,12321],[100,12403],[100,12486],[100,12570],[100,12653],[100,12736],[100,12819],[100,12904],[100,12986],[100,13069],[100,13154],[100,13236],[100,13321],[100,13403],[100,13486],[100,13570],[100,13653],[100,13737],[100,13819],[100,13904],[100,13986],[100,14071],[100,14153],[100,14236],[100,14319],[100,14404],[100,14486],[100,14571],[100,14653],[100,14736],[100,14819],[100,14903],[100,14986],[100,15071],[100,15152],[100,15236],[100,15319],[100,15402],[100,15486],[100,15569],[100,15653],[100,15736],[100,15819],[100,15904],[100,15987],[100,16069],[100,16154],[100,16238],[100,16321],[100,16404],[100,16487],[100,16570],[100,16653],[100,16737],[100,16821],[100,16904],[100,16986],[100,17069],[100,17152],[100,17236],[100,17319],[100,17404],[100,17486],[100,17569],[100,17654],[100,17736],[100,17819],[100,17902],[100,17986],[100,18071],[100,18152],[100,18236],[100,18319],[100,18404],[100,18486],[100,18570],[100,18652],[100,18737],[100,18821],[100,18902],[100,18986],[100,19069],[100,19154],[100,19236],[100,19321],[100,19402],[100,19486],[100,19569],[100,19652],[100,19736],[100,19821],[100,19902],[100,19987],[100,20069],[100,20152],[100,20236],[100,20321],[100,20404],[100,20487],[100,20569],[100,20654],[100,20736],[100,20821],[100,20902],[100,20986],[100,21070],[100,21152],[100,21236],[100,21319],[100,21402],[100,21485],[100,21571],[100,21652],[100,21735],[100,21819],[99.4,21903],[99.1,21988],[97.7,22071],[95.5,22154],[93.4,22238],[90.1,22321],[87.9,22404],[85.2,22488],[82.2,22571],[80.4,22654],[78.9,22738],[76.7,22821],[75.2,22904],[72.4,22988],[70.9,23071],[69.6,23154],[69.2,23237],[68.9,23321],[68.9,23402],[68.9,23485],[68.9,23570],[68.9,23652],[68.9,23735],[68.1,23821],[68,23903],[68,23986],[68,24070],[68,24152],[68,24236],[68,24319],[68,24402],[68,24485],[68,24571],[68,24652],[68.3,24738],[68.6,24819],[71.3,24904],[75.3,24988],[77.6,25071],[78,25154],[78.4,25237],[78.4,25319],[78.4,25404],[78.4,25487],[78.4,25569],[78.4,25652],[78.4,25736],[80.4,25821],[83.5,25904],[85.7,25988],[88.3,26071],[90.4,26154],[95.8,26987],[95.3,27071],[95,27154],[94.9,27235],[94.9,27321],[94.9,27402],[95.1,27487],[95.9,27571],[96.3,27654],[96.7,27737],[96.7,27819],[96.7,27902],[96.7,27985],[97.4,28071],[97.4,28153],[97.4,28237],[97.5,28320],[97.9,28403],[98.2,28487],[98.3,28569],[98.3,28654],[98.3,28737],[98.5,28821],[98.5,28902],[98.5,28985],[98.5,29069],[98.5,29152],[98.5,29235],[98.5,29319],[95.5,29404],[94.4,29485],[94.4,29569],[94.4,29652],[95.2,29737]]",1,0,634.9866,634.9876,,,[],,,,634.9876,Definitely yes,100,634.9886,,,[],,0,0,0,0,1,audio/Narrative13Situation2.wav,audio/Narrative13Situation2.wav,audio/Narrative13Situation2.wav,audio/Narrative13Situation2.wav,2,2,2,2,,,,,563.5603,602.6365,space,38.5565,,,,,,,,,,,,,,,,,,,,,,,,,,,,,,,
,,,,,,6424c007ad9d5e917aa16a2b,2024-02-08_12h33.50.817,group3.1-3.2-social-tom,2023.2.2,Win32,59.88023952,65c5074098b851296ff0b7ed,65c510727304e12e1ac53d6d,,,,,,,,,,,,,,,,,,,,,,,,,,,,,634.9888,2,audio/Narrative5Situation1.wav,640.0011,,640.0011,653.3005,"[[999,5],[999,83],[999,166],[999,249],[999,333],[999,416],[999,500],[999,583],[999,667],[999,749],[999,833],[999,918],[999,1001],[999,1085],[999,1168],[999,1252],[999,1333],[999,1418],[999,1499],[999,1585],[999,1668],[999,1751],[999,1834],[57.3,1918],[53.5,2001],[51.3,2085],[50.9,2166],[49.6,2251],[47.4,2337],[47.1,2417],[47.1,2500],[47.4,2583],[47.4,2667],[43.4,2751],[28.4,2834],[15.3,2918],[10.6,3001],[10.1,3085],[4.4,3168],[2.3,3251],[1.7,3335],[0.9,3418],[0.7,3501],[0.7,3582],[1.4,3668],[1.4,3751],[1.4,3833],[1.4,3916],[1.4,4001],[1.4,4082],[1.4,4167],[1.4,4249],[1.4,4334],[1.4,4416],[1.4,4501],[1.4,4582],[1.4,4666],[1.4,4749],[1.4,4833],[1.4,4916],[1.4,4999],[1.4,5082],[1.4,5166],[1.4,5249],[1.4,5332],[1.4,5418],[1.4,5500],[1.4,5584],[1.4,5666],[1.4,5749],[1.4,5834],[1.4,5916],[1.4,6000],[1.4,6084],[1.4,6166],[1.4,6251],[1.4,6332],[1.4,6416],[1.4,6499],[1.4,6582],[1.4,6666],[1.4,6749],[1.4,6834],[1.4,6916],[1.4,6999],[1.4,7082],[1.4,7166],[1.4,7251],[1.4,7332],[1.4,7416],[1.4,7499],[1.4,7582],[1.4,7666],[1.4,7749],[1.4,7832],[1.4,7916],[1.4,7999],[1.4,8082],[1.4,8166],[1.4,8249],[1.4,8332],[1.4,8416],[1.4,8499],[1.4,8582],[1.4,8667],[1.4,8749],[1.4,8834],[1.4,8918],[1.4,8999],[1.4,9082],[1.4,9166],[1.4,9249],[1.4,9333],[1.4,9416],[1.4,9499],[1.4,9582],[1.4,9666],[1.4,9749],[1.4,9834],[1.4,9917],[1.4,9999],[1.4,10082],[1.4,10167],[1.4,10249],[1.4,10332],[1.4,10416],[1.4,10500],[1.4,10582],[1.4,10666],[1.4,10749],[1.4,10834],[1.4,10916],[1.4,10999],[1.4,11084],[1.4,11165],[1.4,11249],[1.4,11332],[1.4,11416],[1.4,11499],[1.4,11584],[1.4,11667],[1.4,11749],[2.8,11840],[6,11917],[6.3,11999],[6.3,12082],[6.3,12166],[6.3,12250],[6.3,12332],[6.3,12416],[6.3,12499],[6.3,12584],[6.3,12665],[6.3,12749],[6.3,12834],[6.3,12917],[3.5,13001],[1.3,13082],[1,13165],[1,13249]]",1,0,653.3007,655.9836,6.041666667,2.0782,"[{""rating"":6.041666666666668,""responseTime"":2.078200000047673}]",space,2.1197,,655.9837,Partially,50,655.9853,,,[],,0,1,1,1,1,audio/Narrative7Situation1.wav,audio/Narrative8Situation1.wav,audio/Narrative5Situation1.wav,audio/Narrative6Situation1.wav,2,5,5,2,,,,,,,,,,,,,,,,,,,,,,,,,,,,,,,,,,,,,,,
,,,,,,6424c007ad9d5e917aa16a2b,2024-02-08_12h33.50.817,group3.1-3.2-social-tom,2023.2.2,Win32,59.88023952,65c5074098b851296ff0b7ed,65c510727304e12e1ac53d6d,,,,,,,,,,,,,,,,,,,,,,,,,,,,,655.9855,2,audio/Narrative5Situation2.wav,659.0001,,659.0002,688.4507,"[[999,0],[999,84],[999,166],[999,249],[7.1,334],[7.1,418],[6.4,501],[4.6,585],[3,668],[2.7,751],[2.3,833],[1.8,918],[1.5,1001],[1.4,1083],[1.4,1166],[1.4,1249],[1.4,1333],[1.4,1417],[1.4,1500],[1.4,1583],[1.4,1666],[1.4,1749],[1.4,1833],[1.4,1918],[1.4,2000],[1.4,2083],[1.4,2166],[1.4,2249],[1.4,2334],[1.4,2417],[1.4,2499],[1.4,2584],[1.4,2666],[1.4,2751],[1.4,2834],[1.4,2918],[1.4,2999],[1.4,3083],[1.4,3166],[1.4,3250],[1.4,3334],[1.4,3416],[1.4,3501],[1.4,3584],[1.4,3667],[1.4,3749],[1.4,3833],[1.4,3918],[1.4,4001],[1.4,4083],[1.4,4166],[1.4,4249],[1.4,4334],[1.4,4416],[1.4,4501],[1.4,4582],[1.4,4667],[1.4,4749],[1.4,4833],[1.4,4918],[1.4,4999],[1.4,5082],[0.8,5167],[0.6,5251],[1.1,12418],[3.3,12501],[3.8,12582],[3.8,12667],[3.8,12749],[3.8,12832],[0.8,12918],[1.4,13501],[1.7,13582],[1.7,13667],[1.7,13749],[1.5,13833],[0.8,13917],[0.5,14000],[0.4,14082],[0.4,14165],[0.4,14250],[0.4,14334],[0.4,14417],[0.4,14500],[0.4,14584],[0.4,14665],[0.4,14749],[0.4,14832],[0.4,14917],[0.4,14999],[0.4,15082],[0.4,15165],[0.4,15250],[0.4,15334],[0.4,15415],[0.4,15499],[0.4,15584],[0.4,15666],[0.4,15751],[0.4,15834],[0.4,15915],[0.4,16000],[0.4,16082],[0.4,16165],[0.4,16250],[0.4,16332],[0.4,16417],[0.4,16499],[0.4,16582],[0.4,16665],[0.4,16749],[0.4,16832],[0.4,16915],[0.4,16999],[0.4,17083],[0.4,17165],[0.4,17250],[0.4,17332],[0.4,17417],[0.4,17500],[0.4,17582],[0.4,17665],[0.4,17750],[0.4,17832],[0.4,17916],[0.4,17999],[0.4,18082],[0.4,18167],[0.4,18250],[0.4,18332],[0.4,18415],[0.4,18499],[0.4,18582],[0.4,18665],[0.4,18749],[0.4,18832],[0.4,18917],[0.4,18999],[0.4,19084],[0.4,19165],[0.4,19249],[0.4,19332],[0.4,19417],[0.4,19499],[0.4,19582],[0.4,19667],[0.4,19749],[0.4,19834],[0.4,19915],[0.4,19999],[0.4,20082],[0.4,20166],[0.4,20249],[0.4,20332],[0.4,20415],[0.4,20499],[0.4,20582],[0.4,20665],[0.4,20749],[0.4,20833],[0.4,20915],[0.4,20999],[0.4,21084],[0.4,21167],[0.4,21249],[0.4,21332],[0.4,21415],[0.4,21499],[0.4,21583],[0.4,21667],[0.4,21750],[0.4,21833],[0.4,21915],[0.4,21999],[0.4,22082],[0.4,22166],[0.4,22250],[0.4,22333],[0.4,22415],[0.4,22500],[0.4,22582],[0.4,22665],[0.4,22749],[0.4,22833],[0.4,22915],[0.4,22998],[0.4,23083],[0.4,23165],[0.4,23248],[0.4,23332],[0.4,23415],[0.4,23498],[0.4,23583],[0.4,23666],[0.4,23749],[0.4,23832],[0.4,23915],[0.4,23998],[0.4,24082],[0.4,24167],[0.4,24250],[0.4,24332],[0.4,24415],[0.4,24498],[0.4,24582],[0.4,24665],[0.4,24748],[0.4,24832],[0.4,24916],[0.4,24998],[0.4,25083],[0.4,25166],[0.4,25248],[0.4,25333],[0.4,25416],[0.4,25498],[0.4,25582],[0.4,25667],[0.4,25748],[0.4,25832],[0.4,25915],[0.4,25998],[0.4,26082],[0.4,26167],[0.4,26250],[0.4,26332],[0.4,26416],[0.4,26500],[0.4,26582],[0.4,26665],[0.4,26748],[0.4,26832],[0.4,26915],[0.4,26998],[0.4,27081],[0.4,27165],[0.4,27248],[0.4,27331],[0.4,27416],[0.4,27498],[0.4,27581],[0.4,27666],[0.4,27748],[0.4,27831],[0.4,27915],[0.4,27999],[0.4,28083],[0.4,28165],[0.4,28250],[0.4,28331],[0.4,28416],[0.4,28500],[0.4,28581],[0.4,28665],[0.4,28748],[0.4,28832],[0.4,28915],[0.4,28998],[0.4,29081],[0.4,29166],[0.4,29250],[0.4,29331],[0.4,29415]]",1,0,688.4508,690.4672,0.208333333,1.4374,"[{""rating"":0.2083333333333326,""responseTime"":1.4373999999761509}]",space,1.4694,,690.4672,Definitely yes,100,690.4686,,,[],,0,2,2,2,1,audio/Narrative7Situation2.wav,audio/Narrative8Situation2.wav,audio/Narrative5Situation2.wav,audio/Narrative6Situation2.wav,3,3,3,3,,,,,,,,,,,,,,,,,,,,,,,,,,,,,,,,,,,,,,,
,,,,,,6424c007ad9d5e917aa16a2b,2024-02-08_12h33.50.817,group3.1-3.2-social-tom,2023.2.2,Win32,59.88023952,65c5074098b851296ff0b7ed,65c510727304e12e1ac53d6d,,,,,,,,,,,,,,,,,,,,,,,,,,,,,690.4688,2,audio/Narrative5Situation3.wav,693.483,,693.483,707.4148,"[[0.4,667],[0.8,750],[0.8,832],[0.6,917],[9.8,5250],[20.8,5334],[25.4,5417],[31.4,5500],[37.5,5584],[49.4,5667],[61.4,5750],[71.4,5834],[77.9,5917],[83.6,6000],[87.8,6082],[90.9,6167],[93.5,6251],[94.7,6334],[95.8,6415],[97,6501],[98.3,6583],[99.3,6667],[99.6,6750],[99.8,6834],[100,6917],[100,6998],[100,7082],[100,7167],[100,7250],[100,7332],[100,7415],[100,7498],[100,7583],[100,7665],[100,7750],[100,7833],[100,7916],[100,8000],[100,8083],[100,8166],[100,8248],[100,8331],[100,8415],[100,8498],[100,8583],[100,8666],[100,8748],[100,8831],[100,8916],[100,8998],[100,9081],[100,9165],[100,9248],[100,9331],[100,9415],[100,9498],[100,9583],[100,9667],[100,9749],[100,9831],[100,9915],[100,9999],[100,10081],[100,10165],[100,10250],[100,10333],[100,10416],[100,10500],[100,10581],[100,10665],[100,10749],[100,10833],[100,10916],[100,10998],[100,11081],[100,11166],[100,11248],[100,11331],[100,11415],[100,11498],[100,11583],[100,11666],[100,11749],[100,11833],[100,11916],[100,12000],[100,12081],[100,12165],[100,12248],[100,12333],[100,12415],[100,12500],[100,12581],[100,12665],[100,12749],[100,12831],[100,12915],[100,12998],[100,13083],[100,13165],[100,13249],[100,13331],[100,13415],[100,13498],[100,13581],[100,13665],[100,13750],[100,13833],[100,13915]]",1,0,707.4149,710.3814,98.85416667,1.9577,"[{""rating"":98.85416666666667,""responseTime"":1.9576999999285363}]",space,2.428,,710.3814,Not at all,0,710.3828,,,[],,0,3,3,3,1,audio/Narrative7Situation3.wav,audio/Narrative8Situation3.wav,audio/Narrative5Situation3.wav,audio/Narrative6Situation3.wav,8,4,3,5,,,,,,,,,,,,,,,,,,,,,,,,,,,,,,,,,,,,,,,
,,,,,,6424c007ad9d5e917aa16a2b,2024-02-08_12h33.50.817,group3.1-3.2-social-tom,2023.2.2,Win32,59.88023952,65c5074098b851296ff0b7ed,65c510727304e12e1ac53d6d,,,,,,,,,,,,,,,,,,,,,,,,,,,,,710.383,2,audio/Narrative5Situation4.wav,711.3831,,711.3831,731.7972,"[[89.8,83],[85.8,166],[85.7,248],[85.7,331],[85.6,416],[84.8,500],[84.8,582],[84.8,664],[84.8,749],[85.7,833],[86.1,916],[86.1,998],[86.1,1081],[86.1,1164],[86.1,1249],[86.1,1333],[86.1,1414],[86.1,1498],[86.1,1582],[86.1,1664],[86.1,1749],[86.1,1831],[86.1,1915],[86.1,1998],[86.1,2081],[79.7,2166],[56.5,2250],[44.5,2333],[39.9,2416],[31.4,2500],[25.5,2583],[20.2,2666],[16.4,2750],[13.5,2833],[10,2916],[8.9,2997],[8.9,3081],[8.9,3164],[8.9,3248],[7.1,3333],[5.3,3416],[2.6,3500],[2,3582],[1.9,3664],[1.9,3747],[1.9,3833],[1.9,3914],[1.9,3997],[1.9,4081],[1.9,4164],[1.9,4247],[1.9,4331],[1.9,4415],[1.9,4498],[1.9,4581],[1.9,4664],[1.9,4747],[1.9,4831],[1.9,4914],[1.9,4998],[1.9,5081],[1.9,5165],[1.9,5247],[1.9,5331],[1.9,5415],[1.9,5497],[1.9,5582],[1.9,5664],[1.9,5747],[1.9,5831],[1.9,5914],[1.9,5997],[1.9,6082],[1.9,6164],[1.9,6249],[1.9,6331],[1.9,6414],[1.9,6497],[1.9,6581],[1.9,6666],[1.9,6749],[1.9,6831],[1.9,6915],[1.9,6998],[1.9,7081],[1.9,7164],[1.9,7247],[1.9,7331],[1.9,7414],[1.9,7497],[1.9,7581],[1.9,7666],[1.9,7748],[1.9,7831],[1.9,7914],[1.9,7997],[1.9,8081],[1.9,8164],[1.9,8249],[1.9,8332],[1.9,8414],[1.9,8497],[1.9,8582],[1.9,8664],[1.9,8749],[1.9,8831],[1.9,8914],[1.9,8997],[1.9,9081],[1.9,9164],[1.9,9247],[1.9,9332],[3.2,9416],[4,9499],[4.1,9581],[4.1,9664],[4.1,9747],[4.1,9832],[4.1,9915],[4.1,9997],[4.1,10082],[4.1,10164],[4.1,10247],[4.1,10330],[3.2,10416],[2.1,10499],[1.3,10582],[0.7,10666],[0.5,10747],[0.5,10832],[0.5,10914],[0.5,10999],[0.5,11080],[0.5,11164],[0.5,11247],[0.5,11332],[0.5,11414],[0.5,11499],[0.5,11580],[0.5,11664],[0.5,11747],[0.5,11832],[0.5,11914],[0.5,11997],[0.5,12081],[0.5,12164],[0.5,12247],[0.5,12332],[0.5,12414],[0.5,12497],[0.5,12582],[0.5,12665],[0.5,12748],[0.5,12832],[0.5,12915],[0.5,12999],[0.5,13082],[0.5,13164],[0.5,13249],[0.5,13330],[0.5,13414],[0.5,13498],[0.5,13580],[0.5,13665],[0.5,13747],[0.5,13830],[0.5,13915],[0.5,13999],[0.5,14080],[0.5,14165],[0.5,14248],[0.5,14331],[0.5,14415],[0.5,14499],[0.5,14582],[0.5,14664],[0.5,14749],[0.5,14830],[0.5,14915],[0.5,14999],[0.5,15080],[0.5,15164],[5.5,15249],[16.7,15332],[21.9,15416],[28.1,15499],[44.1,15582],[70.5,15666],[88.5,15749],[94.9,15832],[99.7,15916],[100,15999],[100,16082],[100,16165],[100,16247],[100,16332],[100,16415],[100,16499],[100,16582],[100,16664],[100,16749],[100,16832],[100,16914],[100,16999],[100,17082],[100,17165],[100,17247],[100,17331],[100,17414],[100,17497],[100,17580],[100,17665],[100,17749],[100,17830],[100,17915],[99.9,17997],[99.9,18080],[99.9,18165],[99.9,18247],[99.9,18331],[99.9,18414],[99.9,18497],[99.9,18580],[99.9,18664],[99.9,18748],[99.9,18830],[99.9,18915],[99.9,18997],[99.9,19080],[99.9,19163],[99.7,19249],[99.6,19332],[99.5,19413],[99.5,19499],[99.5,19582],[99.3,19663],[99.3,19747],[99.3,19832],[99.3,19913],[99.3,19997],[99.3,20082],[99.3,20164],[99.3,20248],[99.3,20332],[99.3,20413]]",1,0,731.7972,733.4304,99.6875,0.9749,"[{""rating"":99.6875,""responseTime"":0.9748999999761736}]",space,1.0836,,733.4305,Definitely yes,100,733.432,,,[],,0,4,4,4,1,audio/Narrative7Situation4.wav,audio/Narrative8Situation4.wav,audio/Narrative5Situation4.wav,audio/Narrative6Situation4.wav,3,3,1,2,,,,,,,,,,,,,,,,,,,,,,,,,,,,,,,,,,,,,,,
,,,,,,6424c007ad9d5e917aa16a2b,2024-02-08_12h33.50.817,group3.1-3.2-social-tom,2023.2.2,Win32,59.88023952,65c5074098b851296ff0b7ed,65c510727304e12e1ac53d6d,,,,,,,,,,,,,,,,,,,,,,,,,,,,,733.4321,2,audio/Narrative5Situation5.wav,738.4468,,738.4468,753.8815,"[[93.3,1085],[87.5,1168],[82.4,1251],[7.3,1418],[5,1501],[4.9,1583],[4.9,1668],[3.9,1751],[0.9,1835],[0.4,6749],[0.4,6832],[0.4,6916],[0.7,7001],[1,7084],[1.4,7168],[4,7251],[8.2,7334],[11.9,7418],[15.3,7501],[19.9,7584],[24.1,7668],[27.1,7751],[29.7,7835],[33.8,7918],[37.9,8001],[44,8084],[51.6,8168],[61.4,8251],[72.1,8334],[82.5,8834],[84.5,8918],[84.9,9001],[84.9,9082],[85.1,9168],[85.2,9249],[85.2,9332],[85.2,9417],[85.2,9501],[85.2,9582],[85.2,9666],[85.2,9749],[85.2,9833],[85.2,9916],[83.5,10001],[82.7,10084],[82.4,10168],[82.3,10251],[82.3,10332],[82.3,10416],[81.7,10501],[80.9,10584],[80.5,10668],[80.5,10751],[80.5,10832],[80.5,10917],[80.5,11000],[80.5,11082],[80.5,11166],[80.5,11249],[80.5,11332],[80.5,11416],[80.5,11500],[80.5,11582],[80.5,11666],[80.5,11749],[80.5,11832],[80.5,11916],[80.5,11999],[80.5,12082],[80.5,12166],[80.5,12249],[80.5,12332],[80.5,12416],[80.5,12500],[80.5,12582],[80.5,12666],[80.5,12749],[80.5,12832],[80.5,12916],[80.5,12999],[80.5,13082],[80.5,13166],[81.3,13249],[88.9,13334],[91.3,13417],[92.5,13501],[93.9,13584],[95.7,13668],[96.4,13751],[96.5,13832],[96.5,13916],[96.5,13999],[96.5,14084],[96.5,14167],[96.8,14251],[96.8,14333],[96.8,14416],[96.9,14499],[97.3,14584],[97.3,14667],[97.3,14749],[97.3,14832],[97.3,14915],[97.3,14999],[97.3,15082],[97.3,15165],[97.3,15249],[97.3,15332],[96,15417]]",1,0,753.8816,757.2143,92.5,2.3189,"[{""rating"":92.5,""responseTime"":2.3188999999762245}]",space,2.7835,,757.2143,Definitely yes,100,757.2152,,,[],,0,5,5,5,1,audio/Narrative7Situation5.wav,audio/Narrative8Situation5.wav,audio/Narrative5Situation5.wav,audio/Narrative6Situation5.wav,5,2,5,2,,,,,,,,,,,,,,,,,,,,,,,,,,,,,,,,,,,,,,,
,,,,,,6424c007ad9d5e917aa16a2b,2024-02-08_12h33.50.817,group3.1-3.2-social-tom,2023.2.2,Win32,59.88023952,65c5074098b851296ff0b7ed,65c510727304e12e1ac53d6d,,,,,,,,,,,,,,,,,,,,,,,,,,,,,757.2154,2,audio/Narrative5Situation6.wav,760.2292,,760.2292,765.929,"[[999,5],[999,85],[999,168],[999,249],[999,334],[999,418],[999,501],[999,585],[999,668],[3.2,834],[4.5,918],[2.8,1001],[2.1,1083],[1.9,1168],[1.9,1249],[1.9,1334],[1.9,1416],[1.9,1501],[1.9,1583],[1.9,1666],[1.9,1751],[1.9,1834],[1.9,1916],[1.9,2000],[1.9,2085],[1.9,2166],[1.9,2251],[1.9,2333],[1.9,2418],[1.9,2499],[1.9,2584],[1.9,2666],[2,2750],[4.6,2835],[5.8,2918],[5.8,3000],[5.8,3084],[5.8,3168],[5.8,3250],[5.8,3334],[5.8,3416],[5.8,3499],[5.8,3584],[15,3668],[35.6,3751],[43.9,3835],[50.1,3918],[58.2,4001],[68.1,4085],[75.9,4168],[80.4,4251],[85.6,4334],[89.1,4418],[92,4501],[93.5,4587],[94.6,4668],[95.9,4751],[97,4834],[98.3,4918],[99.2,5001],[99.6,5083],[99.6,5167],[99.6,5251],[99.6,5333],[99.6,5418],[99.6,5499],[99.6,5584],[99.6,5666]]",1,0,765.9291,767.5805,99.375,1.0396,"[{""rating"":99.375,""responseTime"":1.0395999999046808}]",space,1.1018,,767.5806,Not at all,0,767.5828,,,[],,0,6,6,6,1,audio/Narrative7Situation6.wav,audio/Narrative8Situation6.wav,audio/Narrative5Situation6.wav,audio/Narrative6Situation6.wav,3,2,3,2,,,,,,,,,,,,,,,,,,,,,,,,,,,,,,,,,,,,,,,
,,,,,,6424c007ad9d5e917aa16a2b,2024-02-08_12h33.50.817,group3.1-3.2-social-tom,2023.2.2,Win32,59.88023952,65c5074098b851296ff0b7ed,65c510727304e12e1ac53d6d,,,,,,,,,,,,,,,,,,,,,,,,,,,,,767.583,2,audio/Narrative5Situation7.wav,771.5954,,771.5954,792.6463,"[[4,501],[4.4,583],[4.4,666],[4,750],[0.7,834],[0.1,1418],[0.7,1501],[1,1584],[1.3,1668],[1.6,1750],[1.6,1833],[1.6,1916],[1.6,1999],[1.6,2083],[1.6,2166],[1.6,2251],[1.6,2333],[1.6,2416],[1.6,2501],[1.6,2583],[1.6,2666],[1.6,2749],[1.6,2833],[1.6,2917],[1.6,2999],[1.6,3083],[1.6,3168],[1.6,3249],[1.6,3333],[1.6,3416],[1.6,3499],[1.6,3583],[1.6,3666],[1.6,3749],[1.6,3834],[1.6,3916],[1.6,3999],[1.6,4084],[1.6,4168],[1.6,4251],[1.6,4332],[1.6,4416],[1.6,4499],[1.6,4583],[1.6,4666],[1.6,4750],[1.6,4834],[1.6,4916],[1.6,4999],[1.6,5082],[13.3,5168],[34.1,5251],[44.5,5334],[54.2,5418],[64.1,5501],[73.2,5584],[78.5,5668],[81.6,5749],[85.4,5834],[90.2,5916],[92.5,6001],[94.8,6084],[96,6168],[96.6,6251],[97.1,6334],[98.3,6418],[99,6499],[99,6582],[99.1,6666],[99.1,6750],[99.1,6832],[99.1,6917],[99.1,6999],[99.1,7082],[99.1,7166],[99.1,7249],[99.1,7332],[99.1,7417],[99.1,7501],[99.1,7582],[99.1,7666],[99.1,7749],[99.1,7832],[99.1,7916],[99.1,8001],[99.1,8082],[99.1,8166],[99.1,8249],[99.1,8332],[99.1,8416],[99.1,8499],[99.1,8582],[99.1,8667],[99.1,8749],[99.1,8832],[99.1,8916],[99.1,9000],[99.1,9082],[99.1,9166],[99.1,9250],[99.1,9334],[99.1,9417],[99.1,9499],[99.1,9584],[99.1,9667],[99.1,9749],[99.1,9833],[99.1,9916],[99.1,10001],[99.1,10082],[99.1,10167],[99.1,10251],[99.1,10332],[99.1,10417],[99.1,10499],[99.1,10582],[99.1,10666],[99.1,10749],[99.1,10832],[99.1,10916],[99.1,10999],[99.1,11082],[99.1,11166],[99.1,11249],[99.1,11333],[99.1,11415],[99.1,11500],[99.1,11582],[99.1,11666],[99.1,11749],[99.1,11832],[99.1,11917],[99.1,11999],[99.1,12082],[99.1,12166],[99.1,12251],[99.1,12332],[99.1,12415],[99.1,12499],[99.1,12582],[99.1,12665],[99.1,12749],[99.1,12832],[99.1,12915],[99.1,12999],[99.1,13082],[99.1,13166],[99.1,13249],[99.1,13332],[99.1,13417],[99.1,13500],[99.1,13582],[99.1,13665],[99.1,13749],[99.1,13832],[99.1,13915],[99.1,13999],[99.1,14082],[99.1,14165],[99.1,14249],[99.1,14333],[99.1,14415],[99.1,14500],[99.1,14583],[98.9,14667],[98.5,14749],[98.5,14832],[98.5,14917],[98.5,14999],[98.4,15082],[98.4,15165],[98.4,15249],[98.4,15334],[98.4,15417],[98.4,15499],[98.4,15582],[98.4,15667],[98.4,15749],[98.4,15833],[98.4,15917],[98.4,16000],[98.4,16082],[98.4,16167],[98.4,16249],[98.4,16332],[98.4,16415],[98.4,16500],[98.4,16582],[98.4,16665],[98.4,16749],[98.4,16834],[98.4,16917],[98.4,17000],[98.4,17082],[98.4,17167],[98.4,17250],[98.4,17333],[98.4,17417],[98.4,17499],[98.4,17582],[98.4,17665],[98.4,17750],[98.4,17834],[98.4,17915],[98.4,18000],[98.4,18084],[98.4,18166],[98.4,18250],[98.4,18332],[98.4,18415],[98.4,18499],[98.4,18582],[98.4,18665],[98.4,18750],[98.4,18832],[98.4,18915],[98.4,18999],[98.4,19082],[98.4,19165],[98.4,19249],[98.4,19334],[98.4,19415],[98.4,19499],[98.4,19584],[98.4,19665],[98.4,19750],[98.4,19833],[98.4,19915],[98.4,19999],[98.4,20082],[98.4,20165],[98.4,20249],[98.4,20333],[98.4,20417],[98.4,20499],[98.4,20582],[96,20667],[93.6,20751],[93.1,20832],[92.9,20917],[92.6,20999]]",1,0,792.6465,793.9111,88.02083333,1.0328,"[{""rating"":88.02083333333333,""responseTime"":1.0327999999523172}]",space,0.706,,793.9111,Not at all,0,793.9121,,,[],,0,7,7,7,1,audio/Narrative7Situation7.wav,audio/Narrative8Situation7.wav,audio/Narrative5Situation7.wav,audio/Narrative6Situation7.wav,5,3,4,5,,,,,,,,,,,,,,,,,,,,,,,,,,,,,,,,,,,,,,,
,,,,,,6424c007ad9d5e917aa16a2b,2024-02-08_12h33.50.817,group3.1-3.2-social-tom,2023.2.2,Win32,59.88023952,65c5074098b851296ff0b7ed,65c510727304e12e1ac53d6d,,,,,,,,,,,,,,,,,,,,,,,,,,,,,793.9122,2,audio/Narrative5Situation8.wav,796.9276,,796.9277,805.7607,"[[999,5],[999,83],[999,166],[999,251],[999,334],[999,416],[999,499],[999,583],[999,668],[999,751],[999,834],[999,916],[0.7,1585],[2.3,1668],[2.3,1749],[2.4,1834],[2.4,1916],[2.4,1999],[2.4,2083],[2.4,2166],[2.4,2249],[2.4,2334],[2.4,2416],[2.4,2499],[2.4,2583],[2.4,2666],[2.4,2749],[2.4,2834],[2.4,2916],[2.4,3001],[2.4,3082],[2.4,3166],[2.4,3249],[2.4,3332],[2.4,3418],[2.4,3499],[2.4,3582],[2.4,3666],[2.4,3749],[2.4,3833],[2.4,3918],[2.4,3999],[2.4,4082],[2.4,4166],[2.4,4250],[2.4,4332],[2.4,4418],[2.4,4499],[2.4,4583],[2.4,4668],[2.4,4749],[2.4,4834],[2.4,4916],[2.4,4999],[2.4,5082],[2.4,5166],[2.4,5249],[2.4,5332],[2.4,5417],[2.4,5500],[2.4,5582],[2.4,5666],[2.4,5751],[2.4,5832],[2.4,5916],[2.4,6001],[2.4,6082],[2.4,6167],[2.4,6249],[2.4,6332],[2.4,6417],[2.4,6500],[2.4,6582],[2.4,6666],[2.4,6749],[2.4,6832],[2.4,6918],[2.4,6999],[2.4,7082],[2.4,7166],[2.4,7249],[2.4,7332],[2.4,7418],[2.4,7499],[2.4,7582],[2.4,7668],[2.4,7749],[2.4,7832],[2.4,7916],[2.4,7999],[2.4,8082],[2.4,8166],[2.4,8251],[2.4,8332],[2.4,8416],[2.4,8500],[2.4,8582],[2.4,8666],[2.4,8749],[2.4,8832]]",1,0,805.7608,808.3271,0.3125,1.0937,"[{""rating"":0.3124999999999989,""responseTime"":1.0936999999285035}]",space,2.0132,,808.3272,Not at all,0,808.3281,,,[],,0,8,8,8,1,audio/Narrative7Situation8.wav,audio/Narrative8Situation8.wav,audio/Narrative5Situation8.wav,audio/Narrative6Situation8.wav,2,3,3,5,,,,,,,,,,,,,,,,,,,,,,,,,,,,,,,,,,,,,,,
,,,,,,6424c007ad9d5e917aa16a2b,2024-02-08_12h33.50.817,group3.1-3.2-social-tom,2023.2.2,Win32,59.88023952,65c5074098b851296ff0b7ed,65c510727304e12e1ac53d6d,,,,,,,,,,,,,,,,,,,,,,,,,,,,,808.3282,2,audio/Narrative5Situation9.wav,811.3436,,811.3437,850.892,"[[4.3,418],[5.9,502],[5.9,583],[4.8,668],[3.9,752],[2,835],[0.9,918],[0.7,999],[0.7,1083],[0.7,1167],[0.7,1249],[0.7,1333],[0.7,1416],[0.7,1499],[0.7,1585],[0.7,1668],[0.7,1751],[0.7,1833],[0.7,1916],[0.7,1999],[0.7,2083],[0.7,2167],[0.7,2250],[0.7,2333],[0.7,2416],[0.7,2499],[0.7,2584],[0.7,2666],[0.7,2749],[0.7,2833],[0.7,2916],[0.7,2999],[0.7,3083],[0.7,3166],[0.7,3249],[0.7,3333],[0.7,3416],[0.7,3499],[0.7,3583],[0.7,3666],[0.7,3750],[0.7,3832],[0.7,3916],[0.7,3999],[0.7,4082],[0.7,4166],[0.7,4251],[0.7,4333],[0.7,4416],[0.7,4499],[0.7,4584],[0.7,4666],[0.7,4751],[0.7,4833],[0.7,4917],[0.7,4999],[0.7,5084],[0.7,5166],[0.7,5251],[0.7,5332],[0.7,5416],[0.7,5500],[0.7,5584],[0.7,5666],[0.7,5750],[0.7,5832],[0.7,5916],[0.7,5999],[0.7,6084],[0.7,6167],[0.7,6249],[0.7,6332],[0.7,6418],[0.7,6500],[0.7,6584],[0.7,6666],[0.7,6749],[0.7,6833],[0.7,6916],[0.7,6999],[0.7,7082],[0.7,7167],[0.7,7249],[0.7,7333],[0.7,7416],[0.7,7499],[0.7,7582],[0.7,7668],[0.7,7749],[0.7,7834],[0.7,7916],[0.7,7999],[0.7,8082],[0.7,8166],[0.7,8251],[0.7,8332],[0.7,8416],[0.7,8501],[0.7,8582],[0.7,8666],[0.7,8749],[0.7,8832],[0.7,8917],[0.7,8999],[0.7,9082],[0.7,9166],[0.7,9251],[0.7,9332],[0.7,9416],[0.7,9500],[0.7,9582],[0.7,9667],[0.7,9749],[0.7,9832],[0.7,9916],[0.7,9999],[0.7,10082],[0.7,10166],[0.7,10249],[0.7,10334],[0.7,10416],[0.7,10499],[0.7,10582],[0.7,10666],[0.7,10749],[0.7,10832],[0.7,10916],[0.7,11001],[0.7,11082],[0.7,11166],[0.7,11249],[0.7,11332],[0.7,11416],[0.7,11499],[0.7,11582],[0.7,11666],[0.7,11750],[0.7,11832],[0.7,11917],[0.7,11999],[0.7,12082],[0.7,12167],[0.7,12250],[0.7,12332],[0.7,12416],[0.7,12500],[0.7,12582],[0.7,12667],[0.7,12750],[0.7,12832],[0.7,12915],[0.7,13000],[0.7,13082],[0.7,13167],[0.7,13249],[0.7,13332],[0.7,13416],[0.7,13499],[0.7,13582],[0.7,13665],[0.7,13749],[0.7,13832],[0.7,13916],[0.7,13999],[0.7,14082],[0.7,14166],[0.7,14249],[0.7,14332],[0.7,14416],[0.7,14499],[0.7,14584],[0.7,14666],[0.7,14750],[0.7,14833],[0.7,14917],[0.7,15000],[0.7,15083],[0.7,15165],[0.7,15250],[1.4,15334],[1.4,15416],[0.3,15499],[0.1,19750],[0.3,19834],[0.5,19917],[0.5,19999],[0.6,20082],[0.6,20165],[0.6,20249],[0.6,20332],[0.6,20416],[0.6,20499],[0.6,20583],[0.6,20665],[0.6,20749],[0.6,20834],[0.6,20917],[0.6,20999],[0.6,21082],[0.6,21165],[0.6,21248],[0.6,21332],[0.6,21415],[0.6,21498],[0.6,21582],[0.6,21665],[0.6,21748],[0.6,21832],[0.6,21915],[0.6,21998],[0.6,22082],[0.6,22165],[0.6,22249],[0.6,22334],[0.6,22415],[0.6,22500],[0.6,22583],[0.6,22665],[0.6,22748],[0.6,22832],[0.6,22915],[0.6,22998],[0.6,23082],[0.6,23167],[0.6,23248],[0.6,23332],[0.6,23415],[0.6,23500],[0.6,23584],[0.6,23665],[0.6,23748],[0.6,23832],[0.6,23917],[0.6,23998],[0.6,24082],[0.6,24165],[0.6,24248],[0.6,24332],[0.6,24417],[0.6,24498],[0.6,24582],[0.6,24665],[0.6,24749],[0.6,24832],[0.6,24916],[0.6,24998],[0.6,25083],[0.6,25166],[0.6,25250],[9.9,25334],[14,25417],[15.9,25500],[22.4,25584],[31.1,25667],[32.9,25750],[34.1,25834],[38.1,25917],[41.7,26000],[45.4,26084],[52.3,26167],[60.9,26250],[69.1,26334],[75.3,26417],[76.9,26500],[76.9,26582],[76.9,26665],[76.9,26748],[75.7,26834],[75.4,26916],[75.2,26999],[74.8,27083],[74.3,27167],[74,27250],[73.8,27332],[73.8,27415],[73.8,27498],[73.8,27581],[73.8,27667],[73.8,27748],[73.8,27831],[73.8,27915],[73.8,27998],[73.8,28083],[73.8,28167],[73.8,28250],[73.8,28331],[73.8,28415],[73.8,28498],[73.8,28581],[73.8,28665],[73.8,28748],[73.8,28832],[73.8,28915],[73.8,28998],[73.8,29081],[73.8,29165],[73.8,29250],[73.8,29331],[73.8,29415],[73.8,29498],[73.8,29581],[73.8,29665],[73.8,29750],[73.5,29838],[73.1,29917],[72.9,30000],[72.6,30083],[72.5,30165],[72.5,30250],[72.5,30333],[72.5,30415],[72.5,30498],[73.8,30583],[76.8,30667],[81,30750],[84.4,30834],[87.7,30916],[90.8,31000],[95.5,31083],[100,31167],[100,31250],[100,31333],[100,31415],[100,31498],[100,31582],[100,31666],[100,31748],[100,31832],[100,31916],[100,31998],[100,32081],[100,32166],[100,32250],[100,32331],[100,32417],[100,32500],[100,32583],[100,32667],[100,32750],[100,32833],[100,32915],[100,33000],[100,33081],[100,33165],[100,33250],[100,33331],[100,33416],[100,33498],[100,33581],[100,33665],[100,33750],[99.9,33831],[99.8,33915],[99.7,34000],[99.6,34081],[99.5,34166],[98.6,34250],[98.1,34333],[96.8,34417],[95.4,34500],[94.1,34583],[91.5,34667],[86.7,34750],[80.9,34833],[75.4,34917],[71.1,35000],[68.2,35083],[62,35167],[57.1,35250],[55.8,35333],[54.7,35417],[53.1,35500],[51.4,35583],[50.2,35667],[49.5,35750],[49.5,35831],[49.5,35915],[49.5,35998],[49.5,36081],[49.5,36164],[49.5,36248],[49.5,36331],[49.5,36415],[49.5,36498],[49.5,36581],[49.5,36665],[49.5,36749],[49.5,36831],[49.5,36914],[49.5,36998],[49.5,37082],[49.5,37166],[49.5,37249],[49.5,37332],[49.5,37415],[49.5,37499],[49.5,37581],[49.5,37665],[49.5,37748],[49.5,37831],[49.5,37915],[49.5,37999],[49.5,38081],[49.5,38165],[49.5,38249],[49.5,38331],[49.5,38415],[49.5,38498],[49.5,38581],[49.5,38665],[49.5,38748],[49.5,38831],[49.5,38914],[49.5,38998],[49.5,39083],[49.5,39166],[49.6,39248],[53.4,39333],[53.4,39415],[53.4,39498]]",1,0,850.8922,856.4935,98.4375,4.0038,"[{""rating"":98.4375,""responseTime"":4.003800000071465}]",space,5.0655,,856.4935,Definitely yes,100,856.4949,,,[],,0,9,9,9,1,audio/Narrative7Situation9.wav,audio/Narrative8Situation9.wav,audio/Narrative5Situation9.wav,audio/Narrative6Situation9.wav,2,3,3,4,,,,,,,,,,,,,,,,,,,,,,,,,,,,,,,,,,,,,,,
,,,,,,6424c007ad9d5e917aa16a2b,2024-02-08_12h33.50.817,group3.1-3.2-social-tom,2023.2.2,Win32,59.88023952,65c5074098b851296ff0b7ed,65c510727304e12e1ac53d6d,,,,,,,,,,,,,,,,,,,,,,,,,,,,,856.4952,2,audio/Narrative6Situation1.wav,858.5102,,858.5102,885.0915,"[[999,0],[999,82],[999,164],[999,247],[999,331],[999,414],[999,497],[999,581],[999,664],[999,748],[999,831],[999,915],[999,999],[999,1083],[999,1166],[999,1250],[999,1333],[999,1414],[999,1500],[999,1582],[999,1666],[59.1,1749],[58.2,1833],[56.3,1916],[51.8,2000],[48.4,2083],[49.1,2166],[50.4,2248],[50.4,2332],[50.4,2414],[48.4,2499],[36.3,2583],[25.7,2666],[22.6,2749],[15.6,2833],[7.8,2916],[1.5,2999],[8.4,5333],[30.3,5416],[49.9,5499],[98.1,6081],[98.1,6166],[99,6249],[99.1,6332],[99.5,6414],[99.5,6497],[99.5,6581],[99.5,6666],[99.5,6748],[99.5,6831],[99.5,6916],[99.5,6997],[99.5,7081],[99.5,7164],[99.7,7249],[99.8,7331],[99.8,7414],[99.8,7497],[99.8,7581],[99.8,7664],[100,7749],[100,7831],[100,7914],[100,7997],[100,8081],[100,8164],[100,8247],[100,8331],[100,8414],[100,8498],[100,8581],[100,8664],[100,8747],[100,8832],[100,8916],[100,8998],[100,9082],[100,9164],[100,9249],[100,9331],[100,9414],[100,9497],[100,9581],[100,9665],[100,9747],[100,9830],[100,9915],[100,9999],[100,10082],[100,10164],[100,10249],[100,10330],[100,10414],[100,10497],[100,10582],[100,10665],[100,10747],[100,10830],[100,10914],[100,10997],[100,11080],[100,11164],[100,11247],[100,11330],[100,11414],[100,11497],[97,11587],[92.2,11666],[87.9,11749],[81.8,11832],[70.1,11916],[61.6,11999],[57.1,12082],[47,12166],[35.2,12249],[25.5,12333],[15.8,12416],[9,12499],[1.9,12582],[11.6,14415],[32.8,14499],[43.5,14582],[55.9,14666],[98.6,15249],[99.2,15332],[99.5,15414],[99.6,15499],[99.8,15582],[99.8,15664],[99.8,15747],[99.8,15830],[99.8,15913],[99.8,15997],[99.8,16080],[99.8,16165],[99.8,16247],[99.8,16331],[99.8,16413],[99.8,16497],[99.8,16580],[99.8,16664],[99.8,16747],[99.5,16832],[99.2,16915],[99.1,16999],[99,17081],[99,17163],[98.9,17247],[98.9,17330],[98.9,17413],[98.9,17497],[98.9,17580],[98.9,17665],[98.9,17747],[98.9,17830],[98.9,17913],[98.9,17999],[98.9,18080],[98.9,18163],[98.9,18247],[98.9,18330],[97.6,18415],[96.6,18499],[96,18580],[96,18664],[95.9,18749],[93.6,18832],[90.3,18915],[87.7,18999],[87.2,19083],[87.2,19164],[80.5,19249],[67,19332],[57.3,19415],[49.8,19499],[43.5,19582],[37.3,19665],[34.8,19749],[31.4,19832],[28.2,19915],[22.5,19999],[19.3,20082],[14.2,20165],[10.1,20249],[8,20332],[5.9,20415],[3.9,20499],[3.5,20582],[3.5,20663],[3.5,20747],[3.5,20830],[3.5,20915],[4.3,20997],[7.7,21082],[19.1,21168],[35.4,21249],[45.9,21332],[55.6,21415],[67.3,21499],[79,21582],[89.6,21665],[95.8,21749],[99.2,21832],[100,21915],[100,21996],[100,22080],[100,22163],[100,22247],[100,22330],[100,22414],[100,22496],[100,22580],[100,22665],[100,22747],[100,22830],[100,22915],[100,22997],[100,23080],[100,23163],[100,23247],[100,23332],[100,23413],[100,23496],[100,23580],[100,23663],[100,23746],[100,23830],[100,23914],[100,23998],[100,24080],[100,24163],[100,24247],[100,24330],[100,24413],[100,24496],[100,24580],[100,24663],[100,24748],[100,24831],[100,24913],[100,24996],[100,25080],[100,25163],[100,25248],[100,25331],[100,25413],[100,25496],[100,25580],[100,25663],[100,25746],[100,25831],[100,25913],[100,25997],[100,26080],[100,26165],[100,26248]]",1,0,885.0916,887.2746,99.375,1.266,"[{""rating"":99.375,""responseTime"":1.2660000000000764}]",space,1.6408,,887.2747,Partially,50,887.2759,,,[],,0,10,10,10,1,audio/Narrative8Situation1.wav,audio/Narrative7Situation1.wav,audio/Narrative6Situation1.wav,audio/Narrative5Situation1.wav,5,2,2,5,,,,,,,,,,,,,,,,,,,,,,,,,,,,,,,,,,,,,,,
,,,,,,6424c007ad9d5e917aa16a2b,2024-02-08_12h33.50.817,group3.1-3.2-social-tom,2023.2.2,Win32,59.88023952,65c5074098b851296ff0b7ed,65c510727304e12e1ac53d6d,,,,,,,,,,,,,,,,,,,,,,,,,,,,,887.2762,2,audio/Narrative6Situation2.wav,890.2913,,890.2913,918.806,"[[94.9,750],[83.3,834],[58.1,917],[33.8,1000],[16.4,1084],[4.7,1167],[0.7,10500],[0.8,10581],[0.8,10665],[0.8,10750],[0.8,10831],[0.8,10915],[1.3,11000],[2,11081],[2,11165],[2,11248],[2,11331],[2,11416],[2,11499],[2,11581],[2,11666],[2,11748],[2,11831],[2,11915],[2,11998],[2,12083],[2,12165],[2,12248],[2,12331],[2,12415],[2,12498],[2,12581],[2,12664],[2,12748],[2,12831],[2,12916],[2,12999],[2,13081],[2,13164],[2,13250],[2,13332],[2,13414],[2,13498],[2,13581],[2,13666],[2,13748],[2,13833],[2,13914],[2,13998],[2,14081],[2,14166],[2,14248],[2,14331],[2,14416],[2,14498],[2,14581],[2,14664],[2,14748],[2,14832],[2,14914],[2,14999],[2,15083],[2,15164],[2,15248],[2,15333],[2,15415],[2,15498],[2,15583],[2,15664],[2,15749],[2,15831],[2,15915],[2,15998],[2,16081],[2,16166],[2,16249],[2,16331],[2,16416],[2,16498],[2.1,16581],[2.4,16664],[2.4,16748],[2.4,16831],[2.4,16916],[2.6,16998],[2.6,17081],[2.6,17166],[2.6,17250],[2.6,17333],[2.6,17414],[2.8,17500],[6.7,17583],[18.3,17666],[30.7,17750],[40.4,17833],[50.3,17916],[58.5,18000],[93.3,18416],[94.4,18500],[96.1,18583],[97.8,18666],[99.3,18750],[100,18835],[100,18916],[100,18998],[100,19082],[100,19164],[100,19248],[100,19331],[100,19414],[100,19497],[100,19583],[100,19666],[100,19749],[100,19832],[100,19914],[100,19998],[100,20081],[100,20164],[100,20247],[100,20332],[100,20414],[100,20498],[100,20581],[100,20664],[100,20749],[100,20832],[100,20915],[100,20998],[100,21081],[100,21164],[100,21247],[100,21331],[100,21414],[100,21498],[100,21583],[100,21666],[100,21747],[100,21832],[100,21914],[100,21997],[100,22081],[100,22164],[100,22247],[100,22332],[100,22414],[100,22497],[100,22582],[100,22664],[100,22747],[100,22831],[100,22914],[100,22997],[100,23081],[100,23164],[100,23247],[100,23331],[100,23414],[100,23497],[100,23581],[100,23664],[100,23747],[99.1,23832],[99,23914],[98.9,23997],[98.9,24081],[98.9,24164],[98.9,24247],[98.9,24332],[98.9,24414],[98.9,24497],[99.6,24583],[100,24666],[100,24747],[100,24831],[100,24914],[100,24999],[100,25081],[100,25164],[100,25247],[100,25331],[100,25414],[100,25497],[100,25582],[100,25664],[100,25747],[100,25831],[100,25914],[100,25999],[100,26082],[100,26166],[100,26247],[100,26332],[100,26414],[100,26499],[100,26581],[100,26664],[100,26747],[100,26831],[100,26915],[100,26997],[100,27080],[100,27165],[100,27247],[100,27331],[100,27414],[100,27497],[100,27580],[100,27664],[100,27747],[100,27831],[100,27916],[100,27997],[100,28081],[98.2,28166],[97.4,28249],[96.6,28332],[96.6,28415],[96.6,28497]]",1,0,918.8061,920.7742,97.91666667,1.4359,"[{""rating"":97.91666666666667,""responseTime"":1.4358999999761863}]",space,1.4338,,920.7743,Not at all,0,920.7756,,,[],,0,11,11,11,1,audio/Narrative8Situation2.wav,audio/Narrative7Situation2.wav,audio/Narrative6Situation2.wav,audio/Narrative5Situation2.wav,3,3,3,3,,,,,,,,,,,,,,,,,,,,,,,,,,,,,,,,,,,,,,,
,,,,,,6424c007ad9d5e917aa16a2b,2024-02-08_12h33.50.817,group3.1-3.2-social-tom,2023.2.2,Win32,59.88023952,65c5074098b851296ff0b7ed,65c510727304e12e1ac53d6d,,,,,,,,,,,,,,,,,,,,,,,,,,,,,920.7757,2,audio/Narrative6Situation3.wav,925.7888,,925.7888,938.4216,"[[999,5],[999,83],[999,166],[999,250],[999,333],[999,416],[999,499],[999,584],[999,666],[999,749],[999,833],[999,916],[999,1001],[999,1085],[999,1168],[999,1249],[999,1334],[2.9,5840],[5,5918],[5,5999],[5,6084],[2.6,6168],[1.4,6251],[0.9,6333],[0.6,6418],[0.6,6499],[0.6,6584],[0.6,6666],[0.6,6750],[1.7,6833],[10.9,6918],[28.4,7001],[44.3,7084],[58.4,7168],[70.6,7251],[81,7334],[86.8,7418],[99.6,7751],[100,7834],[100,7918],[100,8001],[100,8082],[100,8166],[100,8251],[100,8334],[100,8417],[100,8500],[100,8582],[100,8666],[100,8749],[100,8834],[100,8916],[100,8999],[100,9084],[100,9166],[100,9249],[100,9334],[100,9416],[100,9499],[100,9582],[100,9668],[100,9751],[100,9833],[100,9918],[100,9999],[100,10084],[100,10166],[100,10250],[100,10332],[100,10416],[100,10501],[100,10582],[100,10667],[100,10749],[100,10832],[100,10916],[100,11000],[100,11082],[100,11166],[100,11249],[100,11334],[100,11416],[100,11501],[100,11584],[100,11666],[100,11749],[100,11832],[100,11917],[100,11999],[100,12084],[100,12166],[100,12250],[100,12332],[100,12416],[100,12500],[100,12582]]",1,0,938.4217,939.9566,99.375,0.9428,"[{""rating"":99.375,""responseTime"":0.9428000000715429}]",space,0.9985,,939.9567,Not at all,0,939.9575,,,[],,0,12,12,12,1,audio/Narrative8Situation3.wav,audio/Narrative7Situation3.wav,audio/Narrative6Situation3.wav,audio/Narrative5Situation3.wav,4,8,5,3,,,,,,,,,,,,,,,,,,,,,,,,,,,,,,,,,,,,,,,
,,,,,,6424c007ad9d5e917aa16a2b,2024-02-08_12h33.50.817,group3.1-3.2-social-tom,2023.2.2,Win32,59.88023952,65c5074098b851296ff0b7ed,65c510727304e12e1ac53d6d,,,,,,,,,,,,,,,,,,,,,,,,,,,,,939.9576,2,audio/Narrative6Situation4.wav,941.9715,,941.9715,954.6043,"[[34.8,335],[9.7,418],[1.9,501],[1.9,583],[1.9,666],[0.8,751],[0.8,833],[0.8,916],[0.8,999],[0.8,1084],[0.8,1166],[0.8,1249],[0.8,1332],[0.8,1416],[0.8,1499],[0.8,1584],[0.8,1666],[0.8,1749],[0.8,1834],[0.8,1916],[0.8,1999],[0.8,2084],[0.8,2166],[0.8,2251],[0.8,2333],[0.8,2416],[0.8,2501],[0.8,2583],[0.8,2666],[0.8,2749],[0.8,2834],[0.8,2916],[0.8,3001],[0.8,3084],[0.8,3166],[0.8,3249],[0.8,3332],[0.8,3416],[0.8,3499],[0.8,3582],[0.8,3666],[0.8,3749],[0.8,3833],[0.8,3917],[0.8,3999],[0.8,4084],[0.8,4168],[0.8,4251],[0.8,4332],[0.8,4417],[0.8,4501],[0.8,4582],[0.8,4667],[0.8,4750],[0.8,4832],[0.8,4916],[0.8,4999],[0.8,5082],[0.8,5166],[0.8,5249],[0.8,5333],[0.8,5417],[0.8,5499],[0.8,5582],[0.8,5666],[0.8,5751],[0.8,5834],[0.8,5917],[0.8,6000],[0.8,6082],[0.8,6166],[0.8,6249],[0.8,6334],[0.8,6416],[0.8,6499],[0.8,6582],[0.8,6668],[0.8,6749],[0.8,6834],[0.8,6916],[0.8,6999],[0.8,7082],[0.8,7166],[0.8,7251],[0.8,7332],[0.8,7416],[0.8,7501],[0.8,7582],[0.8,7667],[0.8,7750],[0.8,7832],[0.8,7916],[0.8,8001],[0.8,8083],[0.8,8167],[0.8,8249],[0.8,8332],[0.8,8417],[0.8,8499],[0.8,8582],[0.8,8666],[0.8,8749],[0.8,8834],[0.8,8917],[0.8,9000],[0.8,9084],[0.8,9166],[0.8,9249],[0.8,9334],[0.8,9416],[0.8,9499],[0.8,9584],[0.8,9666],[0.8,9750],[0.8,9832],[0.8,9916],[0.8,9999],[0.8,10082],[0.8,10166],[0.8,10249],[0.8,10332],[0.8,10415],[0.8,10499],[0.8,10582],[0.8,10666],[0.8,10750],[0.8,10832],[0.8,10916],[0.8,11001],[0.8,11082],[0.8,11167],[0.8,11250],[0.8,11334],[0.8,11417],[0.8,11499],[0.8,11582],[0.8,11665],[0.8,11749],[0.8,11834],[0.8,11915],[0.8,12000],[0.8,12083],[0.8,12165],[0.8,12249],[0.8,12333],[0.8,12417],[0.8,12499],[0.8,12584]]",1,0,954.6043,956.2208,0.833333333,0.7861,"[{""rating"":0.8333333333333359,""responseTime"":0.7860999999045362}]",space,1.0756,,956.2209,Not at all,0,964.1721,0.416666667,4.081,"[{""rating"":0.4166666666666652,""responseTime"":4.081000000000017}]",space,0,13,13,13,1,audio/Narrative8Situation4.wav,audio/Narrative7Situation4.wav,audio/Narrative6Situation4.wav,audio/Narrative5Situation4.wav,3,3,2,1,,,7.3998,,,,,,,,,,,,,,,,,,,,,,,,,,,,,,,,,,,,
,,,,,,6424c007ad9d5e917aa16a2b,2024-02-08_12h33.50.817,group3.1-3.2-social-tom,2023.2.2,Win32,59.88023952,65c5074098b851296ff0b7ed,65c510727304e12e1ac53d6d,,,,,,,,,,,,,,,,,,,,,,,,,,,,,964.1774,2,audio/Narrative6Situation5.wav,966.187,,966.187,974.17,[],1,0,974.1702,976.1884,0.729166667,1.0388,"[{""rating"":0.7291666666666641,""responseTime"":1.0388000000715465}]",space,1.4826,,976.1885,Not at all,0,976.1897,,,[],,0,14,14,14,1,audio/Narrative8Situation5.wav,audio/Narrative7Situation5.wav,audio/Narrative6Situation5.wav,audio/Narrative5Situation5.wav,2,5,2,5,,,,,,,,,,,,,,,,,,,,,,,,,,,,,,,,,,,,,,,
,,,,,,6424c007ad9d5e917aa16a2b,2024-02-08_12h33.50.817,group3.1-3.2-social-tom,2023.2.2,Win32,59.88023952,65c5074098b851296ff0b7ed,65c510727304e12e1ac53d6d,,,,,,,,,,,,,,,,,,,,,,,,,,,,,976.1899,2,audio/Narrative6Situation6.wav,978.2032,,978.2032,989.2694,[],1,0,989.2695,991.9692,0.416666667,1.9547,"[{""rating"":0.4166666666666652,""responseTime"":1.9546999999284935}]",space,2.1594,,991.9693,Definitely yes,100,991.9708,,,[],,0,15,15,15,1,audio/Narrative8Situation6.wav,audio/Narrative7Situation6.wav,audio/Narrative6Situation6.wav,audio/Narrative5Situation6.wav,2,3,2,3,,,,,,,,,,,,,,,,,,,,,,,,,,,,,,,,,,,,,,,
,,,,,,6424c007ad9d5e917aa16a2b,2024-02-08_12h33.50.817,group3.1-3.2-social-tom,2023.2.2,Win32,59.88023952,65c5074098b851296ff0b7ed,65c510727304e12e1ac53d6d,,,,,,,,,,,,,,,,,,,,,,,,,,,,,991.9709,2,audio/Narrative6Situation7.wav,996.9857,,996.9857,1021.8531,"[[0.7,3001],[0.7,3083],[0.7,3166],[0.3,3251],[5.6,10256],[22.6,10334],[33,10418],[42.6,10501],[54.5,10584],[74.3,10667],[87.2,10751],[94.1,10834],[97,10918],[98.5,11001],[99.8,11084],[100,11168],[100,11249],[100,11332],[100,11416],[100,11501],[100,11582],[100,11667],[100,11749],[100,11832],[100,11916],[100,11999],[100,12082],[100,12167],[100,12251],[100,12332],[100,12416],[100,12500],[100,12582],[100,12665],[100,12749],[100,12832],[100,12915],[100,12999],[100,13082],[100,13165],[100,13251],[100,13332],[100,13415],[100,13499],[100,13582],[100,13667],[100,13751],[100,13834],[100,13916],[100,14000],[100,14082],[100,14167],[100,14249],[100,14332],[100,14415],[100,14499],[100,14582],[100,14666],[100,14750],[100,14834],[100,14917],[100,15000],[100,15082],[100,15167],[100,15249],[100,15332],[100,15415],[100,15499],[100,15583],[100,15666],[100,15749],[100,15834],[100,15915],[100,16000],[100,16084],[100,16165],[100,16249],[100,16332],[100,16416],[100,16499],[100,16584],[100,16665],[100,16749],[100,16834],[100,16917],[100,17000],[100,17084],[100,17165],[100,17249],[100,17332],[100,17415],[100,17500],[100,17584],[100,17665],[100,17749],[100,17833],[100,17917],[100,18000],[100,18082],[100,18167],[100,18249],[100,18332],[100,18417],[100,18500],[100,18582],[100,18666],[100,18749],[100,18834],[100,18917],[100,18999],[100,19082],[100,19165],[100,19249],[100,19332],[100,19415],[100,19499],[100,19583],[100,19667],[100,19749],[100,19832],[100,19915],[100,19999],[100,20084],[100,20166],[100,20250],[100,20334],[100,20415],[100,20499],[100,20583],[100,20665],[100,20749],[100,20833],[100,20915],[100,21000],[100,21082],[98.6,21172],[96.4,21251],[90.6,21334],[81.4,21417],[68.3,21501],[58.9,21584],[55.5,21667],[55.1,21749],[55.1,21832],[58.9,21917],[75,22000],[93.8,22250],[97.9,22334],[100,22417],[100,22500],[100,22582],[100,22667],[100,22750],[100,22834],[100,22917],[100,23000],[100,23082],[100,23165],[100,23248],[100,23332],[100,23415],[100,23499],[100,23582],[100,23666],[100,23750],[100,23832],[100,23915],[100,23998],[100,24084],[100,24167],[99.9,24253],[99.8,24333],[99.8,24415],[99.8,24498],[99.8,24583],[99.8,24665],[99.8,24748],[100,24834]]",1,0,1021.8532,1023.27,99.27083333,0.8321,"[{""rating"":99.27083333333333,""responseTime"":0.8321000000239565}]",space,0.8669,,1023.27,Definitely yes,100,1023.2709,,,[],,0,16,16,16,1,audio/Narrative8Situation7.wav,audio/Narrative7Situation7.wav,audio/Narrative6Situation7.wav,audio/Narrative5Situation7.wav,3,5,5,4,,,,,,,,,,,,,,,,,,,,,,,,,,,,,,,,,,,,,,,
,,,,,,6424c007ad9d5e917aa16a2b,2024-02-08_12h33.50.817,group3.1-3.2-social-tom,2023.2.2,Win32,59.88023952,65c5074098b851296ff0b7ed,65c510727304e12e1ac53d6d,,,,,,,,,,,,,,,,,,,,,,,,,,,,,1023.2711,2,audio/Narrative6Situation8.wav,1028.2845,,1028.2845,1035.1515,"[[999,5],[999,83],[999,168],[999,251],[999,333],[999,416],[999,499],[999,584],[999,666],[999,751],[999,833],[999,916],[999,1001],[999,1084],[999,1168],[999,1251],[999,1334],[21.8,1418],[13.6,1501],[7.4,1585],[2.1,1668]]",1,0,1035.1516,1037.3856,0.208333333,1.6723,"[{""rating"":1.4583333333333337,""responseTime"":0.8703000000716656},{""rating"":0.2083333333333326,""responseTime"":1.6723000000715729}]",space,1.7,,1037.3856,Not at all,0,1037.387,,,[],,0,17,17,17,1,audio/Narrative8Situation8.wav,audio/Narrative7Situation8.wav,audio/Narrative6Situation8.wav,audio/Narrative5Situation8.wav,3,2,5,3,,,,,,,,,,,,,,,,,,,,,,,,,,,,,,,,,,,,,,,
,,,,,,6424c007ad9d5e917aa16a2b,2024-02-08_12h33.50.817,group3.1-3.2-social-tom,2023.2.2,Win32,59.88023952,65c5074098b851296ff0b7ed,65c510727304e12e1ac53d6d,,,,,,,,,,,,,,,,,,,,,,,,,,,,,1037.3872,2,audio/Narrative6Situation9.wav,1041.4004,,1041.4005,1051.3514,"[[9.2,1501],[8.8,1584],[7.9,1668],[6.6,1751],[6.6,1833],[6.6,1918],[6.6,2000],[6.6,2083],[6.6,2168],[6.6,2249],[6.6,2334],[6.6,2418],[6.6,2499],[6.6,2583],[6.6,2667],[6.6,2749],[6.6,2833],[6.6,2916],[6.6,2999],[6.6,3084],[6.6,3166],[6.6,3249],[6.6,3334],[6.6,3416],[6.6,3499],[6.6,3584],[6.6,3666],[6.6,3749],[4.4,3835],[2,3918],[0.6,4001],[0.3,4083],[0.3,4168],[0.3,4250],[0.3,4333],[0.3,4416],[0.3,4501],[0.3,4584],[0.3,4666],[0.3,4750],[0.2,4833]]",1,0,1051.3515,1054.3516,0.104166667,2.6059,"[{""rating"":0.1041666666666663,""responseTime"":2.6058999999761454}]",space,2.4657,,1054.3516,Definitely yes,100,1054.3529,,,[],,0,18,18,18,1,audio/Narrative8Situation9.wav,audio/Narrative7Situation9.wav,audio/Narrative6Situation9.wav,audio/Narrative5Situation9.wav,3,2,4,3,,,,,,,,,,,,,,,,,,,,,,,,,,,,,,,,,,,,,,,
,,,,,,6424c007ad9d5e917aa16a2b,2024-02-08_12h33.50.817,group3.1-3.2-social-tom,2023.2.2,Win32,59.88023952,65c5074098b851296ff0b7ed,65c510727304e12e1ac53d6d,,,,,,,,,,,,,,,,,,,,,,,,,,,,,,,,,,,,,,,,,,,,,,,,,,,,,,,,,,,,,,,,,,,,,,,,1054.3531,1098.6314,space,43.7535,,1098.6319,1112.5645,space,13.5935,,,,,,,,,,,,,,,,,,,,,,,,,,
,,,,,,6424c007ad9d5e917aa16a2b,2024-02-08_12h33.50.817,group3.1-3.2-social-tom,2023.2.2,Win32,59.88023952,65c5074098b851296ff0b7ed,65c510727304e12e1ac53d6d,,,,,,,,,,,,,,,,,,,,,,,,,,,,,1115.1558,1,audio/Narrative8Situation9.wav,1117.1656,,,,,,,1149.0995,1151.7309,99.58333333,1.697,"[{""rating"":99.58333333333333,""responseTime"":1.696999999999889}]",space,2.0828,,1149.098,Partially,50,1149.0995,,,[],,,,,,,,,,,2,2,2,2,,,,,,,,,,,,,,,1112.5708,1115.1474,1117.1659,3,1149.098,"[[42.1,1166],[30.2,1249],[26.4,1333],[23.2,1416],[2.9,1583],[0.2,21171],[0.9,21248],[1.4,21330],[1.4,21413],[1.7,21498],[1.6,21580],[0.5,21665],[0.2,21747],[9.2,28748],[23.3,28832],[31.3,28915],[37.1,28998],[42.1,29082],[47.9,29165],[48.8,29246],[49.8,29332],[52.6,29415],[56.3,29498],[65.3,29581],[76.4,29665],[81.9,29748],[83.2,29832],[88.2,29915],[91.6,29998],[91.9,30081],[92.6,30165],[93.6,30248],[93.6,30331],[93.8,30413],[95.2,30498],[95.6,30581],[95.7,30663],[96.3,30748],[97.1,30832],[97.1,30913],[97.1,30996],[97.1,31080],[97.1,31163],[98.3,31248],[98.8,31331],[98.8,31414],[99.1,31498],[99.2,31580],[99.4,31665],[100,31748],[100,31831],[100,31913]]",0,0,0,0,1,"Larry had recently lost his family, job and home, and was now living on his own in the park. He had most of his belongings, including some clothes, a blanket, and his mother’s special necklace. His family had been very important to him and he felt as though he did not have much going for him. One of his first days in the park he came across a family that did not have much food and looked very cold. He decided to give them some of his food and his blanket.","Larry had recently lost his family, job and home, and was now living on his own in the park. He had most of his belongings, including some clothes, a blanket, and his mother’s special necklace. His family had been very important to him and he felt as though he did not have much going for him. One of his first days in the park he came across a family that did not have much food and looked very cold. He decided to give them some of his food and his blanket.","Larry had recently lost his family, job and home, and was now living on his own in the park. He had most of his belongings, including some clothes, a blanket, and his mother’s special necklace. His family had been very important to him and he felt as though he did not have much going for him. One of his first days in the park he came across a family that did not have much food and looked very cold. He decided to give them some of his food and his blanket.","Larry had recently lost his family, job and home, and was now living on his own in the park. He had most of his belongings, including some clothes, a blanket, and his mother’s special necklace. His family had been very important to him and he felt as though he did not have much going for him. One of his first days in the park he came across a family that did not have much food and looked very cold. He decided to give them some of his food and his blanket.",,,,,,,,,,
,,,,,,6424c007ad9d5e917aa16a2b,2024-02-08_12h33.50.817,group3.1-3.2-social-tom,2023.2.2,Win32,59.88023952,65c5074098b851296ff0b7ed,65c510727304e12e1ac53d6d,,,,,,,,,,,,,,,,,,,,,,,,,,,,,1151.7312,1,audio/Narrative8Situation9.wav,1155.2458,space,,,,,,1188.8172,1195.9106,0.625,1.4085,"[{""rating"":0.6249999999999978,""responseTime"":1.4085000000000036}]",space,6.5588,,1188.811,Partially,50,1188.8171,,,[],,,,,,,,,,,6,2,3,9,3.4844,,,,,,,,,,,,,,,,1155.2458,3,1188.8109,"[[38.4,251],[38.4,333],[38.4,416],[38.4,499],[38.4,583],[22.1,668],[4.3,751],[2.1,834],[2.1,916],[0.7,1001],[0.2,1082],[0.2,1167],[0.2,1249]]",0,1,1,1,1,"It was just another Sunday afternoon for Lucy, she was on her way to the farmer's market to pick up some produce. When she arrived at the old train depot that housed the market, she noticed two men fighting on the steps. Before she could call for help, one of the men crumpled to his knees. The other man dropped an object that appeared to be a knife and ran off. When Lucy approached the crime scene she realized that the man who had been murdered was the Mayor and that he had a gunshot wound.","One day at work, Margaret walked up to her partner, Al, to ask him to talk to the chief of staff at the local hospital where she worked as a nurse.","Luke always thought of himself as an honest man. That's why during his evening jog around the swamp, he pondered his recent affair with the receptionist at work. Luke looked up at the sky and asked God why he was so weak and unfaithful. He thought of the impact this would have on his family and told God of his conflicted feelings toward telling his wife Marta.","Linda and Amy had been best friends since kindergarten, they even found homes on the same street in the forest on the edge of town. Their biggest fight had been over who gets the bigger slice of cake, until Amy married Dan. Linda loathed Dan, she thought he was manipulative and had a violent temper. She only put up with him because Amy loved him. ",,,,,,,,,,
