exp_question,consent.started,consent.stopped,consentResponse.keys,consentResponse.rt,consentResponse.duration,participantID,date,expName,psychopyVersion,OS,frameRate,STUDY_ID,SESSION_ID,opening1.started,opening1.stopped,keyEndingOpening1.keys,keyEndingOpening1.rt,keyEndingOpening1.duration,volumeAdjust.started,volumeAdjust.stopped,endingAdjust.keys,endingAdjust.rt,endingAdjust.duration,opening2.started,opening2.stopped,keyEndingOpening.keys,keyEndingOpening.rt,keyEndingOpening.duration,mouse.x,mouse.y,mouse.leftButton,mouse.midButton,mouse.rightButton,mouse.time,instructionLoop.thisRepN,instructionLoop.thisTrialN,instructionLoop.thisN,instructionLoop.thisIndex,instructionLoop.ran,readyForAudio.started,readyForAudio.stopped,fixation.started,run,audio_played,fixation.stopped,endPractice.keys,audioPre.started,audioPre.stopped,continuousResponses_audio,continuousSlider.response,continuousSlider.rt,intRating.started,intRating.stopped,intQuestionSlider.response,intQuestionSlider.rt,intQuestionSlider.history,confirmResponse.keys,confirmResponse.rt,confirmResponse.duration,catchQuestion.started,catch_label,catch_value,catchQuestion.stopped,catchQuestionSlider.response,catchQuestionSlider.rt,catchQuestionSlider.history,confirmResponse_2.keys,audioRunLoop.thisRepN,audioRunLoop.thisTrialN,audioRunLoop.thisN,audioRunLoop.thisIndex,audioRunLoop.ran,conditions1_1,conditions2_1,conditions1_2,conditions2_2,dur1_1,dur2_1,dur1_2,dur2_2,endPractice.rt,endPractice.duration,confirmResponse_2.rt,confirmResponse_2.duration,runIntervalBreak.started,runIntervalBreak.stopped,endingBreakKey.keys,endingBreakKey.rt,endingBreakKey.duration,connection.started,connection.stopped,connectionEnding.keys,connectionEnding.rt,connectionEnding.duration,readyForText.started,readyForText.stopped,textPre.started,run_dup,textPre.stopped,continuousResponses_text,textRunLoop.thisRepN,textRunLoop.thisTrialN,textRunLoop.thisN,textRunLoop.thisIndex,textRunLoop.ran,text1_1,text1_2,text2_1,text2_2,runBreakText.started,runBreakText.stopped,endingBreakKey_2.keys,endingBreakKey_2.rt,endingBreakKey_2.duration,ending.started,ending.stopped,endingEnding.keys,endingEnding.rt,endingEnding.duration
tom,0.0004,19.6351,y,19.3148,,65108d02742b73e5f03efb63,2024-02-08_13h26.45.836,group3.1-3.2-social-tom,2023.2.2,Win32,60.24096386,65c5074098b851296ff0b7ed,65c5439e937cc216a40053ed,,,,,,,,,,,,,,,,,,,,,,,,,,,,,,,,,,,,,,,,,,,,,,,,,,,,,,,,,,,,,,,,,,,,,,,,,,,,,,,,,,,,,,,,,,,,,,,,,,,,,,,,,,
,,,,,,65108d02742b73e5f03efb63,2024-02-08_13h26.45.836,group3.1-3.2-social-tom,2023.2.2,Win32,60.24096386,65c5074098b851296ff0b7ed,65c5439e937cc216a40053ed,19.6354,31.5587,space,11.87,,,,,,,,,,,,,,,,,,,,,,,,,,,,,,,,,,,,,,,,,,,,,,,,,,,,,,,,,,,,,,,,,,,,,,,,,,,,,,,,,,,,,,,,,,,,,,,,,,,,,,
,,,,,,65108d02742b73e5f03efb63,2024-02-08_13h26.45.836,group3.1-3.2-social-tom,2023.2.2,Win32,60.24096386,65c5074098b851296ff0b7ed,65c5439e937cc216a40053ed,,,,,,31.5588,41.0312,space,9.1368,,,,,,,,,,,,,,,,,,,,,,,,,,,,,,,,,,,,,,,,,,,,,,,,,,,,,,,,,,,,,,,,,,,,,,,,,,,,,,,,,,,,,,,,,,,,,,,,,
,,,,,,65108d02742b73e5f03efb63,2024-02-08_13h26.45.836,group3.1-3.2-social-tom,2023.2.2,Win32,60.24096386,65c5074098b851296ff0b7ed,65c5439e937cc216a40053ed,,,,,,,,,,,41.048,58.4813,space,17.4082,,[],[],[],[],[],[],0,0,0,0,1,,,,,,,,,,,,,,,,,,,,,,,,,,,,,,,,,,,,,,,,,,,,,,,,,,,,,,,,,,,,,,,,,,,,,,,,,,,,,,,,
,,,,,,65108d02742b73e5f03efb63,2024-02-08_13h26.45.836,group3.1-3.2-social-tom,2023.2.2,Win32,60.24096386,65c5074098b851296ff0b7ed,65c5439e937cc216a40053ed,,,,,,,,,,,58.4914,111.7649,space,53.1289,,[],[],[],[],[],[],1,0,1,0,1,,,,,,,,,,,,,,,,,,,,,,,,,,,,,,,,,,,,,,,,,,,,,,,,,,,,,,,,,,,,,,,,,,,,,,,,,,,,,,,,
,,,,,,65108d02742b73e5f03efb63,2024-02-08_13h26.45.836,group3.1-3.2-social-tom,2023.2.2,Win32,60.24096386,65c5074098b851296ff0b7ed,65c5439e937cc216a40053ed,,,,,,,,,,,111.7746,121.2482,space,9.4179,,[],[],[],[],[],[],2,0,2,0,1,,,,,,,,,,,,,,,,,,,,,,,,,,,,,,,,,,,,,,,,,,,,,,,,,,,,,,,,,,,,,,,,,,,,,,,,,,,,,,,,
,,,,,,65108d02742b73e5f03efb63,2024-02-08_13h26.45.836,group3.1-3.2-social-tom,2023.2.2,Win32,60.24096386,65c5074098b851296ff0b7ed,65c5439e937cc216a40053ed,,,,,,,,,,,121.2602,145.0321,space,23.7407,,[],[],[],[],[],[],3,0,3,0,1,,,,,,,,,,,,,,,,,,,,,,,,,,,,,,,,,,,,,,,,,,,,,,,,,,,,,,,,,,,,,,,,,,,,,,,,,,,,,,,,
,,,,,,65108d02742b73e5f03efb63,2024-02-08_13h26.45.836,group3.1-3.2-social-tom,2023.2.2,Win32,60.24096386,65c5074098b851296ff0b7ed,65c5439e937cc216a40053ed,,,,,,,,,,,145.0429,146.4987,space,1.431,,[],[],[],[],[],[],4,0,4,0,1,,,,,,,,,,,,,,,,,,,,,,,,,,,,,,,,,,,,,,,,,,,,,,,,,,,,,,,,,,,,,,,,,,,,,,,,,,,,,,,,
,,,,,,65108d02742b73e5f03efb63,2024-02-08_13h26.45.836,group3.1-3.2-social-tom,2023.2.2,Win32,60.24096386,65c5074098b851296ff0b7ed,65c5439e937cc216a40053ed,,,,,,,,,,,,,,,,,,,,,,,,,,,146.5015,149.0824,149.1132,1,audio/Narrative13Situation2.wav,151.1155,,151.1159,180.8676,"[[999,1],[999,133],[999,216],[999,299],[999,382],[999,466],[999,549],[999,632],[999,716],[999,799],[999,883],[999,966],[999,1049],[999,1132],[999,1216],[999,1299],[999,1382],[999,1465],[999,1549],[999,1632],[999,1716],[999,1799],[999,1882],[999,1966],[999,2049],[999,2132],[999,2216],[999,2299],[999,2383],[999,2467],[999,2549],[999,2632],[999,2716],[999,2799],[999,2883],[42.8,2967],[44.3,3049],[45.7,3133],[48.2,3216],[49.7,3299],[49.8,3383],[50.2,3466],[50.2,3549],[50.2,3632],[50.2,3716],[50.2,3799],[50.2,3883],[50.2,3966],[50.2,4049],[50.2,4132],[50.2,4216],[50.2,4299],[50.2,4382],[50.2,4466],[50.2,4549],[50.2,4632],[50.2,4716],[43.8,4799],[35.7,4883],[35.3,4966],[30.1,5383],[28.2,5466],[27.8,5549],[27.8,5632],[27.8,5716],[27.8,5799],[27.8,5882],[27.8,5966],[27.8,6050],[27.8,6133],[27.8,6216],[27.8,6299],[27.8,6382],[27.8,6466],[27.8,6549],[27.8,6633],[27.8,6716],[27.8,6799],[27.8,6882],[27.8,6966],[27.8,7049],[27.8,7133],[27.8,7216],[27.8,7299],[27.8,7382],[27.8,7466],[27.8,7549],[27.8,7632],[27.8,7716],[27.8,7799],[27.8,7882],[27.8,7966],[27.8,8049],[27.8,8132],[27.8,8216],[27.8,8299],[27.8,8382],[27.8,8466],[27.8,8549],[27.2,8633],[27.2,8716],[27.2,8799],[27.2,8882],[27.2,8966],[27.3,9049],[27.3,9133],[27.3,9216],[27.3,9299],[27.3,9382],[27.3,9466],[27.3,9549],[27.3,9632],[27.3,9716],[27.3,9799],[27.3,9883],[27.3,9966],[27.3,10049],[27.3,10132],[27.3,10216],[27.3,10299],[27.3,10382],[27.3,10466],[27.3,10549],[27.3,10632],[27.3,10716],[27.3,10799],[27.8,10883],[29.9,10967],[30.1,11049],[30.1,11132],[30.1,11216],[30.1,11299],[30.1,11382],[30.1,11466],[30.1,11549],[30.1,11633],[30.1,11716],[30.1,11799],[30.1,11882],[30.1,11966],[30.1,12050],[30.1,12132],[30.1,12216],[30.1,12299],[30.1,12382],[30.1,12467],[30.1,12549],[30.1,12633],[30.1,12716],[30.1,12799],[30.1,12882],[30.1,12966],[30.1,13049],[30.1,13132],[30.1,13216],[30.1,13299],[30.1,13382],[30.1,13466],[30.1,13549],[30.1,13632],[30.1,13716],[30.1,13799],[30.1,13882],[30.1,13966],[30.1,14049],[30.1,14132],[30.1,14216],[30.1,14299],[30.1,14382],[30.1,14466],[30.1,14549],[30.1,14633],[30.1,14717],[30.1,14799],[34.1,14883],[36.3,14967],[37.6,15050],[39.2,15134],[44.2,15217],[46.5,15299],[53.2,16550],[55.5,16633],[57.1,16716],[58.1,16800],[59.2,16883],[63.9,16968],[66.2,17049],[66.2,17133],[66.2,17216],[66.2,17299],[66.2,17383],[66.2,17466],[66.2,17549],[66.2,17633],[66.2,17716],[66.2,17799],[66.2,17883],[66.2,17966],[66.2,18049],[66.2,18133],[66.2,18216],[66.2,18299],[66.2,18383],[66.2,18466],[66.2,18549],[66.2,18632],[66.2,18716],[66.2,18799],[66.2,18883],[66.2,18966],[66.2,19049],[66.2,19132],[66.2,19217],[66.2,19299],[66.2,19383],[66.2,19466],[66.2,19549],[66.2,19633],[66.2,19717],[66.2,19799],[66.2,19883],[66.2,19966],[66.3,20050],[66.3,20132],[66.3,20216],[66.3,20299],[66.4,20383],[66.4,20466],[66.4,20549],[66.4,20633],[66.4,20716],[66.4,20799],[66.4,20883],[66.4,20966],[66.4,21050],[66.4,21133],[66.4,21217],[66.3,21300],[66.3,21383],[66.3,21466],[66.3,21550],[66.3,21633],[66.3,21716],[66.3,21799],[66.3,21883],[66.3,21966],[66.3,22049],[67.6,22133],[72.7,22217],[72.8,22299],[72.8,22383],[72.8,22466],[72.8,22550],[72.8,22633],[72.8,22717],[72.8,22799],[72.8,22883],[72.8,22966],[72.8,23049],[72.8,23133],[72.8,23216],[72.8,23300],[72.8,23383],[72.8,23466],[72.8,23550],[72.8,23633],[72.8,23716],[72.8,23800],[72.8,23883],[72.8,23966],[72.8,24049],[72.8,24133],[72.8,24217],[72.8,24299],[72.8,24383],[72.8,24466],[72.8,24549],[72.8,24633],[72.8,24716],[72.8,24799],[72.8,24883],[72.8,24966],[72.8,25049],[72.8,25133],[72.8,25216],[72.8,25299],[72.8,25383],[72.8,25466],[72.8,25550],[72.8,25633],[72.8,25716],[72.8,25799],[72.8,25884],[72.8,25966],[72.8,26050],[72.8,26133],[72.8,26216],[72.8,26299],[72.8,26383],[72.8,26466],[72.8,26549],[72.8,26633],[72.8,26716],[72.8,26800],[72.8,26883],[72.8,26967],[72.8,27049],[72.8,27133],[72.8,27216],[72.8,27300],[72.8,27383],[72.8,27466],[72.8,27549],[72.8,27633],[72.8,27716],[72.8,27800],[72.8,27883],[68.9,27967],[62.3,28050],[54.3,28133],[54.2,28216],[54.2,28300],[54.2,28383],[53.5,28467],[52.9,28550],[52.8,28633],[52.8,28716],[52.7,28799],[52.7,28883],[52.7,28966],[52.7,29050],[52.7,29133],[52.7,29217],[52.7,29300],[51.6,29384],[51.6,29466],[51.6,29549],[51.6,29633],[51.6,29717]]",1,0,180.8683,189.9188,62.37313327,5.9019,"[{""rating"":62.373133267403745,""responseTime"":5.9019000000059805}]",space,8.502,,189.9386,All the time,100,189.9473,,,[],,0,0,0,0,1,audio/Narrative13Situation2.wav,audio/Narrative13Situation2.wav,audio/Narrative13Situation2.wav,audio/Narrative13Situation2.wav,2,2,2,2,,,,,,,,,,,,,,,,,,,,,,,,,,,,,,,,,,,,,,,
,,,,,,65108d02742b73e5f03efb63,2024-02-08_13h26.45.836,group3.1-3.2-social-tom,2023.2.2,Win32,60.24096386,65c5074098b851296ff0b7ed,65c5439e937cc216a40053ed,,,,,,,,,,,,,,,,,,,,,,,,,,,,,189.9478,1,audio/Narrative8Situation1.wav,192.251,space,192.2511,208.1835,"[[999,2],[999,98],[999,181],[999,265],[999,348],[999,431],[999,515],[999,598],[999,682],[999,765],[999,848],[999,932],[999,1015],[999,1098],[999,1183],[999,1265],[999,1348],[999,1431],[999,1515],[999,1598],[999,1681],[999,1765],[999,1848],[52.9,1932],[55.1,2015],[55.7,2099],[54.9,2182],[54.9,2265],[54.8,2348],[54.7,2431],[45.7,2515],[42.4,2598],[39.3,2682],[38.2,2765],[38,2848],[38,2931],[38,3015],[38,3098],[42.4,3182],[49,3265],[49,3348],[49,3431],[49,3515],[49,3598],[49,3681],[49,3765],[49,3848],[49,3932],[49,4015],[49,4098],[49,4181],[49,4265],[49,4348],[49,4432],[49,4515],[49,4598],[49,4681],[49,4765],[49,4848],[49,4932],[49,5015],[49,5098],[49,5181],[49,5265],[46.4,5349],[23.8,6098],[25.7,6182],[26.2,6265],[26.2,6348],[26.2,6431],[25.3,6515],[23,6598],[23,6681],[23.2,6765],[23.7,6848],[23.7,6931],[23.7,7015],[23.7,7098],[23.7,7182],[23.7,7265],[23.7,7348],[23.7,7431],[23.7,7515],[23.7,7598],[23.7,7681],[23.7,7765],[23.7,7848],[23.7,7931],[23.7,8015],[23.7,8098],[23.7,8181],[23.7,8265],[23.7,8348],[24,8432],[24.8,8516],[25.4,8849],[25.4,8932],[25.2,9015],[25.1,9098],[25.1,9181],[25.1,9265],[25.1,9348],[25.1,9432],[25.1,9515],[25.1,9598],[25.1,9682],[25.1,9765],[25.1,9848],[25.1,9932],[25.1,10015],[25.1,10098],[25.1,10181],[25.1,10265],[25.1,10348],[25.1,10431],[29.8,10516],[31.2,10598],[31.2,10681],[28.2,10765],[25.9,10848],[25.4,10931],[25.4,11015],[25.4,11098],[25.4,11181],[25.4,11265],[25.4,11349],[25.4,11431],[25.4,11515],[25.4,11598],[25.4,11681],[25.4,11765],[25.4,11848],[25.4,11931],[25.4,12015],[25.4,12098],[30.7,12182],[33.5,12265],[38,12349],[49.1,12432],[49.7,12515],[49.7,12598],[49.7,12681],[50.4,12766],[52.3,12848],[55.2,12932],[62,13016],[70.2,13099],[74.2,13182],[76.9,13266],[84.9,13349],[86.6,13431],[72.4,13515],[66.4,13599],[65.4,13681],[64.5,13766],[59.9,13849],[56.7,13932],[54.2,14016],[51.7,14099],[51.4,14181],[51.4,14265],[51.2,14349],[51.2,14432],[51.2,14515],[51.2,14598],[51.2,14682],[51.2,14765],[51.2,14848],[51.2,14932],[51.2,15015],[51.2,15098],[51.2,15181],[51.2,15265],[51.2,15348],[51.2,15432],[51.2,15515],[51.2,15598],[51.2,15682],[51.2,15765],[51.2,15849],[51.2,15932]]",1,0,208.1837,212.5501,81.43178669,3.2108,"[{""rating"":81.43178668525617,""responseTime"":3.2107999999969934}]",space,3.8268,,212.5501,Half the time,50,212.5541,,,[],,0,1,1,1,1,audio/Narrative7Situation1.wav,audio/Narrative8Situation1.wav,audio/Narrative5Situation1.wav,audio/Narrative6Situation1.wav,2,5,5,2,2.2536,,,,,,,,,,,,,,,,,,,,,,,,,,,,,,,,,,,,,,
,,,,,,65108d02742b73e5f03efb63,2024-02-08_13h26.45.836,group3.1-3.2-social-tom,2023.2.2,Win32,60.24096386,65c5074098b851296ff0b7ed,65c5439e937cc216a40053ed,,,,,,,,,,,,,,,,,,,,,,,,,,,,,212.5544,1,audio/Narrative8Situation2.wav,215.5668,,215.5669,225.7009,"[[54.2,3584],[46.7,3666],[46.3,3750],[46.7,3834],[47.1,3916],[47.7,4000],[49.3,4083],[49.4,4166],[49.4,4249],[49.4,4333],[49.4,4416],[49.4,4500],[49.4,4583],[49.6,4666],[49.6,4750],[49.6,4833],[49.6,4916],[49.6,4999],[49.6,5083],[49.6,5166],[49.6,5249],[49.6,5333],[49.6,5416],[49.6,5500],[49.6,5583],[49.6,5666],[49.6,5750],[49.6,5833],[49.6,5916],[49.6,6000],[49.6,6083],[49.6,6166],[49.6,6249],[49.6,6333],[49.6,6416],[49.6,6500],[49.6,6583],[49.6,6666],[49.6,6749],[49.6,6833],[49.6,6916],[49.6,7000],[49.6,7083],[49.6,7166],[49.6,7250],[49.6,7333],[49.6,7416],[49.6,7499],[49.6,7583],[49.6,7666],[49.6,7750],[49.6,7833],[49.6,7916],[49.6,8000],[49.6,8083],[49.6,8166],[49.6,8250],[49.6,8333],[49.6,8416],[49.6,8500],[49.6,8583],[49.6,8666],[49.6,8749],[49.6,8833],[49.6,8916],[49.6,9000],[49.6,9083],[49.6,9166],[49.6,9250],[49.6,9333],[49.6,9416],[49.6,9502],[49.6,9583],[49.6,9666],[49.6,9750],[49.6,9833],[49.6,9916],[49.6,10000],[49.6,10083]]",1,0,225.7013,228.0175,20.7148815,1.8678,"[{""rating"":20.714881495710802,""responseTime"":1.8677999999970325}]",space,1.7668,,228.0179,Half the time,50,228.02,,,[],,0,2,2,2,1,audio/Narrative7Situation2.wav,audio/Narrative8Situation2.wav,audio/Narrative5Situation2.wav,audio/Narrative6Situation2.wav,3,3,3,3,,,,,,,,,,,,,,,,,,,,,,,,,,,,,,,,,,,,,,,
,,,,,,65108d02742b73e5f03efb63,2024-02-08_13h26.45.836,group3.1-3.2-social-tom,2023.2.2,Win32,60.24096386,65c5074098b851296ff0b7ed,65c5439e937cc216a40053ed,,,,,,,,,,,,,,,,,,,,,,,,,,,,,228.0203,1,audio/Narrative8Situation3.wav,232.0336,,232.0337,254.4179,"[[46,2500],[46.1,2583],[46.4,2667],[45.8,2750],[45.6,2833],[45.6,2916],[45.6,3000],[45.6,3083],[45.6,3166],[45.6,3250],[45.6,3333],[45.6,3416],[45.3,3500],[45.1,3584],[45.4,3666],[45.4,3750],[45.4,3833],[45.4,3916],[45.4,4000],[45.4,4083],[45.4,4166],[45.6,4250],[45.6,4333],[45.6,4416],[45.6,4500],[45.6,4583],[45.6,4666],[45.6,4750],[45.6,4833],[46.3,4917],[47.5,5000],[48,5083],[48.9,5166],[49.2,5250],[49.2,5333],[49.2,5416],[49.2,5500],[49.2,5583],[49.2,5666],[49.2,5750],[49.2,5833],[49.2,5916],[49.2,6000],[49.2,6084],[49.2,6166],[49.2,6250],[49.2,6333],[49.2,6416],[49.2,6500],[49.2,6583],[49.2,6667],[49.2,6750],[49.2,6833],[49.2,6916],[49.2,7000],[49.2,7083],[49.2,7166],[49.2,7250],[49.2,7333],[49.2,7416],[49.2,7500],[49.2,7583],[49.2,7667],[49.2,7750],[49.2,7833],[49.2,7916],[49.2,8000],[49.2,8083],[49.2,8166],[49.2,8250],[49.2,8333],[49.2,8417],[49.2,8500],[49.2,8583],[49.2,8666],[49.2,8750],[49.2,8833],[49.2,8916],[49.2,9000],[49.2,9083],[49.2,9167],[49.2,9250],[49.2,9333],[49.2,9416],[49.2,9500],[49.2,9583],[49.2,9666],[49.2,9750],[49.2,9833],[49.2,9917],[49.2,10000],[49.2,10083],[49.2,10167],[49.2,10250],[49.2,10333],[49.2,10417],[49.2,10500],[49.2,10583],[49.2,10666],[49.2,10750],[49.2,10833],[49.2,10916],[49.2,11000],[49.2,11083],[49.2,11166],[49.2,11250],[49.2,11333],[49.2,11417],[49.2,11500],[49.2,11583],[49.2,11667],[49.2,11750],[49.2,11833],[49.2,11917],[49.2,12000],[42.6,12084],[42.4,12167],[42.4,12250],[42.4,12333],[42.4,12417],[42.4,12500],[42.4,12583],[42.5,12667],[42.6,12750],[49.3,13084],[49.8,13167],[49.7,13250],[49.7,13333],[49.7,13417],[49.7,13500],[49.7,13583],[49.7,13667],[49.7,13750],[49.7,13833],[49.7,13917],[49.7,14000],[49.7,14083],[49.7,14167],[49.7,14250],[49.7,14333],[49.7,14417],[49.7,14500],[49.7,14583],[49.7,14667],[50,14751],[51.1,14834],[51.2,14917],[51.2,15000],[51.1,15084],[50.6,15167],[49.6,15250],[49.5,15333],[49.5,15417],[49.5,15500],[49.5,15583],[50.2,15668],[55,15751],[62.2,15833],[66.3,15918],[72.1,16001],[76.8,16084],[80.5,16167],[83.5,16250],[84.2,16334],[84.2,16417],[84.4,16500],[84.4,16583],[84.4,16667],[84.4,16750],[84.4,16834],[84.4,16917],[84.4,17000],[84.4,17083],[84.4,17167],[84.4,17250],[84.4,17334],[84.4,17417],[84.4,17500],[84.4,17583],[84.4,17667],[84.4,17750],[84.4,17834],[84.4,17917],[84.4,18000],[84.4,18083],[84.4,18167],[84.4,18250],[84.4,18333],[84.4,18417],[84.4,18500],[84.4,18583],[84.4,18667],[84.4,18750],[84.4,18833],[84.4,18917],[84.4,19000],[84.4,19083],[84.4,19167],[84.4,19250],[84.4,19333],[84.4,19417],[84.4,19500],[84.4,19583],[84.4,19667],[84.4,19750],[84.4,19834],[84.4,19917],[84.4,20000],[84.4,20083],[84.4,20167],[84.4,20250],[84.4,20333],[84.4,20417],[84.4,20500],[84.4,20583],[84.4,20667],[84.4,20750],[84.4,20834],[84.4,20917],[84.4,21000],[84.4,21083],[84.4,21167],[84.4,21250],[84.4,21334],[84.4,21417],[84.4,21500],[84.4,21584],[84.3,21668],[81.7,21750],[81.7,21834],[81.7,21917],[81.7,22000],[81.7,22084],[81.7,22167],[81.7,22250],[81.7,22334]]",1,0,254.4181,256.2178,80.91105983,1.1283,"[{""rating"":80.9110598253103,""responseTime"":1.1283000000119046}]",space,1.254,,256.2179,All the time,100,256.2211,,,[],,0,3,3,3,1,audio/Narrative7Situation3.wav,audio/Narrative8Situation3.wav,audio/Narrative5Situation3.wav,audio/Narrative6Situation3.wav,8,4,3,5,,,,,,,,,,,,,,,,,,,,,,,,,,,,,,,,,,,,,,,
,,,,,,65108d02742b73e5f03efb63,2024-02-08_13h26.45.836,group3.1-3.2-social-tom,2023.2.2,Win32,60.24096386,65c5074098b851296ff0b7ed,65c5439e937cc216a40053ed,,,,,,,,,,,,,,,,,,,,,,,,,,,,,256.2213,1,audio/Narrative8Situation4.wav,259.2345,,259.2346,273.4016,"[[70.5,1417],[68.6,1499],[68.6,1582],[68.6,1666],[68.6,1749],[68.6,1833],[68.6,1916],[68.1,2000],[62.6,2083],[56.3,2167],[50,2250],[48.8,2333],[48.5,2416],[48.5,2499],[48.7,2583],[48.7,2666],[48.7,2750],[48.7,2833],[48.8,2917],[49.3,3000],[49.5,3083],[49.5,3166],[49.5,3249],[49.5,3333],[49.5,3416],[49.5,3499],[49.5,3582],[49.5,3666],[49.5,3749],[49.5,3833],[49.5,3916],[49.5,3999],[49.5,4083],[49.5,4166],[49.5,4250],[49.5,4333],[41.8,4417],[31.2,4500],[29.1,4583],[25.1,4667],[24.3,4750],[24.1,4833],[24.1,4916],[24.1,4999],[24.1,5083],[24.1,5166],[24.1,5250],[24.1,5333],[24.1,5416],[24.1,5499],[24.1,5583],[24.1,5666],[24.1,5750],[24.1,5833],[24.1,5916],[24.1,5999],[24.1,6083],[24.1,6166],[24.1,6250],[24.1,6333],[24.1,6416],[24.1,6499],[24.1,6583],[24.1,6666],[24.1,6750],[24.1,6833],[24.1,6916],[24.1,6999],[24.1,7083],[24.1,7166],[24.1,7249],[24.1,7333],[24.1,7416],[24.1,7499],[24.1,7583],[24.1,7666],[24.1,7750],[24.1,7833],[24.1,7916],[24.1,8000],[24.1,8083],[24.1,8166],[24.1,8250],[24.1,8333],[24.1,8417],[24.1,8500],[24.1,8583],[24.1,8666],[24.1,8750],[24,8833],[24,8916],[24.4,9000],[24.9,9083],[25.1,9167],[25.5,9251],[26.3,9333],[27.1,9418],[27.4,9500],[28.9,9585],[29.1,9666],[29.1,9750],[31.1,9833],[31.8,9916],[32.7,10000],[33.5,10083],[34.4,10167],[35.2,10250],[37,10333],[37.8,10416],[38,10499],[38,10583],[39.3,10667],[41.9,10750],[41.9,10833],[41.9,10916],[45.7,11000],[46.6,11083],[47,11167],[47,11250],[47,11333],[47,11416],[47,11500],[47,11583],[47,11667],[47.2,11749],[47.2,11833],[47.2,11916],[47.2,12000],[47.2,12083],[47.2,12166],[47.2,12249],[47.2,12333],[47.2,12416],[47.2,12501],[47.2,12583],[45.7,12667],[42.4,12750],[42,12833],[42,12916],[42,13000],[42,13083],[42,13166],[42,13250],[42,13333],[42,13416],[42,13500],[42,13583],[42,13666],[42,13749],[42,13833],[42,13916],[42,14000],[42,14083],[42,14166]]",1,0,273.4018,279.7521,60.91509577,2.3371,"[{""rating"":60.91509577119921,""responseTime"":2.3370999999940523}]",space,5.804,,279.7525,All the time,100,279.774,,,[],,0,4,4,4,1,audio/Narrative7Situation4.wav,audio/Narrative8Situation4.wav,audio/Narrative5Situation4.wav,audio/Narrative6Situation4.wav,3,3,1,2,,,,,,,,,,,,,,,,,,,,,,,,,,,,,,,,,,,,,,,
,,,,,,65108d02742b73e5f03efb63,2024-02-08_13h26.45.836,group3.1-3.2-social-tom,2023.2.2,Win32,60.24096386,65c5074098b851296ff0b7ed,65c5439e937cc216a40053ed,,,,,,,,,,,,,,,,,,,,,,,,,,,,,279.7746,1,audio/Narrative8Situation5.wav,281.7851,,281.7851,290.0186,"[[60.5,917],[49.8,2250],[51.4,2333],[51.5,2417],[51.5,2500],[51.5,2583],[51.5,2666],[51.5,2749],[51.4,2833],[52.1,2916],[56.2,3000],[57,3084],[57.1,3166],[57.1,3249],[57.1,3333],[57.1,3416],[57.1,3499],[57.1,3583],[57.1,3666],[57.1,3749],[57.1,3833],[57.1,3916],[57.1,3999],[57.1,4083],[57.1,4166],[57.1,4249],[57.1,4333],[57.1,4416],[56.9,4500],[56.9,4583],[56.9,4666],[56.9,4749],[56.9,4833],[56.9,4916],[56.9,5000],[56.9,5083],[56.9,5166],[56.9,5250],[56.9,5333],[56.9,5416],[56.9,5499],[56.9,5583],[56.9,5666],[56.9,5749],[56.9,5833],[56.9,5916],[56.9,5999],[56.9,6083],[56.9,6166],[56.9,6249],[56.9,6333],[56.9,6416],[56.9,6500],[56.9,6583],[56.9,6666],[56.9,6750],[56.9,6833],[56.9,6916],[56.9,7000],[56.9,7083],[56.9,7166],[56.9,7249],[56.9,7333],[56.9,7416],[56.9,7500],[56.9,7583],[56.9,7666],[56.9,7750],[56.9,7833],[56.9,7916],[56.9,8000],[56.9,8083],[56.9,8166]]",1,0,290.0188,292.4357,23.31852724,1.8853,"[{""rating"":23.318527237220454,""responseTime"":1.8852999999970734}]",space,1.8709,,292.4359,Not at all,0,292.4414,,,[],,0,5,5,5,1,audio/Narrative7Situation5.wav,audio/Narrative8Situation5.wav,audio/Narrative5Situation5.wav,audio/Narrative6Situation5.wav,5,2,5,2,,,,,,,,,,,,,,,,,,,,,,,,,,,,,,,,,,,,,,,
,,,,,,65108d02742b73e5f03efb63,2024-02-08_13h26.45.836,group3.1-3.2-social-tom,2023.2.2,Win32,60.24096386,65c5074098b851296ff0b7ed,65c5439e937cc216a40053ed,,,,,,,,,,,,,,,,,,,,,,,,,,,,,292.4419,1,audio/Narrative8Situation6.wav,294.4524,,294.4526,300.9198,"[[26.1,1249],[26.1,1332],[26.1,1415],[26.2,1499],[26.2,1582],[26.2,1666],[26.2,1750],[26.2,1833],[26.2,1916],[26.2,1999],[26.2,2082],[26.2,2166],[26.2,2249],[26.2,2332],[26.2,2416],[26.2,2499],[26.2,2582],[26.2,2666],[26.2,2749],[26.2,2832],[26.2,2915],[24.6,2999],[24.2,3083],[24.2,3166],[28.6,3250],[30,3332],[30.7,3416],[30.8,3499],[31,3583],[31,3666],[30.8,3750],[30.8,3833],[30.8,3916],[30.8,3999],[30.8,4082],[30.8,4166],[30.8,4250],[30.8,4332],[30.8,4415],[30.8,4499],[30.8,4583],[30.8,4666],[30.8,4749],[30.8,4833],[30.8,4915],[30.8,4999],[30.8,5082],[30.8,5166],[30.8,5249],[30.8,5332],[30.8,5416],[30.8,5499],[30.8,5582],[30.8,5666],[30.8,5749],[30.8,5832],[30.8,5916],[30.8,5999],[30.8,6082],[30.8,6166],[30.8,6249],[30.8,6333],[30.8,6416]]",1,0,300.9199,302.6687,15.71589334,1.4267,"[{""rating"":15.715893342628085,""responseTime"":1.4266999999880454}]",space,1.2089,,302.6688,Not at all,0,302.6707,,,[],,0,6,6,6,1,audio/Narrative7Situation6.wav,audio/Narrative8Situation6.wav,audio/Narrative5Situation6.wav,audio/Narrative6Situation6.wav,3,2,3,2,,,,,,,,,,,,,,,,,,,,,,,,,,,,,,,,,,,,,,,
,,,,,,65108d02742b73e5f03efb63,2024-02-08_13h26.45.836,group3.1-3.2-social-tom,2023.2.2,Win32,60.24096386,65c5074098b851296ff0b7ed,65c5439e937cc216a40053ed,,,,,,,,,,,,,,,,,,,,,,,,,,,,,302.671,1,audio/Narrative8Situation7.wav,305.6857,,305.6857,317.7862,"[[17.6,2683],[25.7,2767],[36.2,2850],[40.3,2933],[38.8,3016],[38.7,3099],[38,3183],[37.7,3266],[39.2,3350],[39.7,3432],[39.9,3517],[41.6,3600],[41.7,3683],[42,3766],[42.1,3850],[42.6,3933],[42.7,4016],[42.7,4099],[42.7,4183],[42.7,4266],[42.7,4349],[42.7,4433],[42.7,4516],[42.7,4599],[42.7,4683],[42.7,4766],[42.7,4849],[42.7,4933],[42.7,5016],[42.7,5099],[42.7,5183],[42.7,5266],[42.7,5349],[42.7,5433],[42.7,5516],[42.7,5600],[42.7,5683],[42.7,5766],[42.7,5849],[42.7,5933],[42.7,6016],[42.7,6100],[42.7,6183],[42.7,6266],[42.7,6349],[42.7,6433],[42.7,6516],[42.7,6599],[42.7,6683],[42.7,6766],[42.7,6849],[42.7,6933],[42.7,7016],[42.7,7099],[42.7,7183],[42.7,7266],[42.7,7349],[42.7,7433],[42.7,7516],[42.7,7599],[42.7,7683],[42.7,7766],[42.7,7849],[42.7,7933],[42.7,8016],[42.7,8099],[42.7,8183],[42.7,8266],[42.7,8349],[42.7,8433],[42.7,8516],[42.7,8600],[42.7,8683],[42.7,8766],[42.7,8849],[42.7,8933],[42.7,9016],[42.7,9099],[42.7,9183],[42.7,9266],[42.7,9349],[42.7,9432],[42.7,9516],[42.7,9599],[42.7,9683],[42.7,9766],[42.7,9850],[42.7,9933],[42.7,10016],[42.7,10099],[42.7,10183],[42.7,10266],[42.7,10349],[42.7,10432],[42.7,10516],[42.7,10600],[42.7,10683],[42.7,10766],[42.7,10850],[42.7,10932],[42.7,11016],[42.7,11099],[42.7,11183],[42.7,11266],[42.7,11349],[42.7,11433],[42.7,11516],[42.7,11600],[42.7,11683],[42.7,11766],[42.7,11849],[42.7,11933],[42.7,12017],[42.7,12099]]",1,0,317.7864,318.619,42.68960991,0.5648,"[{""rating"":42.6896099059723,""responseTime"":0.5647999999970352}]",space,0.2873,,318.6191,Half the time,50,318.6224,,,[],,0,7,7,7,1,audio/Narrative7Situation7.wav,audio/Narrative8Situation7.wav,audio/Narrative5Situation7.wav,audio/Narrative6Situation7.wav,5,3,4,5,,,,,,,,,,,,,,,,,,,,,,,,,,,,,,,,,,,,,,,
,,,,,,65108d02742b73e5f03efb63,2024-02-08_13h26.45.836,group3.1-3.2-social-tom,2023.2.2,Win32,60.24096386,65c5074098b851296ff0b7ed,65c5439e937cc216a40053ed,,,,,,,,,,,,,,,,,,,,,,,,,,,,,318.6226,1,audio/Narrative8Situation8.wav,321.6358,,321.6359,334.5036,"[[45.4,11600],[48.6,11683],[49.6,11767],[52.9,11850],[58.7,11933],[66.2,12017],[66.4,12099],[66.4,12183],[66.4,12266],[66.4,12350],[66.3,12433],[66.3,12517],[66.3,12600],[66.3,12683],[66.3,12766],[66.3,12850]]",1,0,334.5039,335.5695,66.33067342,0.6541,"[{""rating"":66.3306734214848,""responseTime"":0.6540999999940595}]",space,0.5201,,335.5696,All the time,100,335.5729,,,[],,0,8,8,8,1,audio/Narrative7Situation8.wav,audio/Narrative8Situation8.wav,audio/Narrative5Situation8.wav,audio/Narrative6Situation8.wav,2,3,3,5,,,,,,,,,,,,,,,,,,,,,,,,,,,,,,,,,,,,,,,
,,,,,,65108d02742b73e5f03efb63,2024-02-08_13h26.45.836,group3.1-3.2-social-tom,2023.2.2,Win32,60.24096386,65c5074098b851296ff0b7ed,65c5439e937cc216a40053ed,,,,,,,,,,,,,,,,,,,,,,,,,,,,,335.5731,1,audio/Narrative8Situation9.wav,338.5861,,338.5861,349.9033,"[[999,0],[999,83],[999,166],[999,250],[999,333],[999,416],[999,499],[999,583],[999,667],[999,750],[999,833],[999,916],[999,999],[999,1083],[999,1167],[999,1249],[999,1334],[999,1417],[999,1499],[999,1583],[999,1667],[999,1749],[999,1833],[999,1916],[999,1999],[999,2083],[999,2166],[999,2250],[999,2333],[999,2416],[999,2500],[999,2583],[999,2666],[999,2750],[999,2833],[999,2916],[999,3000],[999,3083],[999,3167],[999,3250],[999,3333],[999,3416],[999,3500],[999,3583],[999,3666],[999,3750],[999,3833],[999,3916],[999,4000],[999,4083],[999,4166],[999,4250],[999,4333],[999,4416],[999,4500],[999,4583],[999,4666],[999,4750],[999,4833],[999,4916],[999,4999],[999,5083],[999,5167],[999,5250],[999,5333],[999,5417],[46.5,5500],[47.3,5584],[48.2,5667],[48.5,5750],[48.8,5833],[50.2,5917],[51.8,6000],[51.8,6083],[51.8,6166],[51.8,6250],[51.8,6333],[51.8,6416],[51.8,6500],[51.8,6583],[51.6,6667],[51.4,6750],[51,6833],[50.2,6917],[50.2,7000],[50.1,7083],[50.1,7166],[50.1,7250],[50.1,7333],[50.1,7416],[50.1,7500],[50.1,7583],[50.1,7667],[49.5,7750],[49.5,7833],[49.5,7916],[49.5,8000],[49.5,8083],[49.5,8166],[49.5,8250],[49.5,8333],[49.5,8416],[49.5,8500],[49.5,8583],[49.5,8666],[49.5,8750],[49.5,8833],[49.5,8917],[49.5,9000],[49.5,9083],[49.5,9167],[49.5,9250],[49.5,9333],[49.5,9417],[49.5,9500],[49.5,9583],[49.5,9667],[49.5,9750],[49.5,9833],[49.5,9917],[49.5,10000],[49.5,10083],[49.5,10167],[49.5,10250],[49.5,10333],[49.5,10417],[49.5,10500],[49.5,10583],[49.5,10669],[49.5,10750],[49.5,10834],[49.5,10916],[49.5,11000],[49.5,11083],[49.5,11168],[49.6,11250]]",1,0,349.9036,351.553,62.68557396,1.0111,"[{""rating"":62.68557396008336,""responseTime"":1.0110999999940304}]",space,1.1221,,351.553,Half the time,50,351.5563,,,[],,0,9,9,9,1,audio/Narrative7Situation9.wav,audio/Narrative8Situation9.wav,audio/Narrative5Situation9.wav,audio/Narrative6Situation9.wav,2,3,3,4,,,,,,,,,,,,,,,,,,,,,,,,,,,,,,,,,,,,,,,
,,,,,,65108d02742b73e5f03efb63,2024-02-08_13h26.45.836,group3.1-3.2-social-tom,2023.2.2,Win32,60.24096386,65c5074098b851296ff0b7ed,65c5439e937cc216a40053ed,,,,,,,,,,,,,,,,,,,,,,,,,,,,,351.5566,1,audio/Narrative7Situation1.wav,353.5701,,353.5702,409.4711,"[[60.2,750],[55.1,833],[26.6,1750],[25.7,1833],[25.3,1916],[25.5,1999],[25.5,2082],[24.4,2166],[24.2,2249],[24.2,2332],[24.2,2416],[24.2,2499],[24.2,2582],[24.2,2666],[24.2,2749],[24.2,2832],[24.2,2916],[24.2,2999],[24.2,3082],[24.2,3166],[24.2,3249],[24.2,3332],[24.2,3416],[24.2,3499],[24.2,3582],[24.2,3666],[24.2,3749],[24.2,3832],[24.2,3916],[24.2,3999],[24.2,4082],[24.2,4166],[24.2,4249],[24.2,4332],[24.2,4416],[24.2,4499],[24.2,4582],[24.2,4666],[24.2,4749],[24.2,4832],[24.2,4916],[24.2,4999],[24.2,5082],[24.2,5166],[24.2,5249],[24.2,5332],[24.2,5416],[24.2,5499],[24.1,5583],[19.1,5666],[17.3,5750],[15.5,5833],[14.2,5916],[10.1,6000],[9.4,6083],[8,6166],[6.6,6250],[6.5,6332],[6.5,6416],[6.5,6499],[6.5,6582],[6.5,6666],[6.8,6750],[6.8,6833],[6.8,6916],[6.8,6999],[6.8,7082],[6.8,7166],[6.8,7249],[6.8,7332],[6.8,7416],[6.8,7499],[6.8,7582],[6.8,7666],[6.8,7749],[6.8,7832],[6.8,7916],[6.8,7999],[6.8,8083],[6.8,8166],[6.8,8249],[6.8,8332],[6.8,8416],[6.8,8499],[6.8,8582],[6.8,8666],[6.8,8749],[6.8,8832],[6.8,8916],[6.8,8999],[6.8,9082],[6.8,9166],[6.8,9250],[6.8,9333],[6.8,9416],[6.8,9499],[6.8,9582],[6.8,9666],[7.4,9750],[7.4,9833],[7.4,9916],[7.4,9999],[7.4,10082],[7.4,10166],[6.9,10250],[6.9,10332],[6.5,10416],[6.3,10500],[6.3,10582],[6.3,10666],[6.3,10749],[6.3,10833],[6.3,10916],[6.3,10999],[6.3,11083],[6.3,11166],[6.3,11249],[6.3,11333],[6.3,11416],[6.3,11499],[6.3,11583],[6.3,11666],[6.3,11749],[6.3,11832],[6.3,11916],[6.3,12000],[6.3,12082],[6.3,12166],[6.3,12249],[6.3,12333],[6.3,12416],[6.3,12499],[6.3,12582],[6.3,12666],[6.3,12749],[6.3,12832],[6.3,12916],[6.3,12999],[6.3,13082],[6.3,13166],[6.3,13249],[6.3,13333],[6.3,13416],[6.3,13499],[6.6,13583],[7.2,13666],[12.4,13750],[12.8,13833],[12.8,13916],[12.8,14000],[12.8,14083],[12.8,14166],[12.8,14250],[12.8,14333],[12.8,14416],[12.8,14499],[12.8,14583],[12.8,14666],[12.8,14750],[12.8,14833],[12.8,14916],[12.8,14999],[12.8,15083],[12.8,15166],[12.8,15249],[12.8,15333],[12.8,15416],[12.8,15500],[12.8,15583],[12.8,15666],[12.8,15750],[12.8,15833],[12.8,15916],[12.8,15999],[12.8,16083],[12.8,16166],[12.8,16249],[12.8,16333],[12.8,16416],[12.8,16499],[12.8,16583],[12.8,16666],[12.8,16750],[12.8,16833],[12.8,16916],[12.8,16999],[12.8,17083],[12.8,17166],[12.8,17249],[12.8,17333],[12.8,17416],[12.8,17500],[12.8,17583],[12.8,17666],[12.8,17750],[12.8,17833],[12.8,17916],[12.8,18000],[12.8,18083],[12.8,18166],[12.8,18250],[12.8,18333],[12.8,18416],[12.8,18500],[10.1,19833],[10.4,19917],[10.8,20000],[10.8,20083],[10.8,20166],[10.8,20250],[10.8,20333],[10.9,20417],[10.9,20500],[10.9,20583],[10.9,20666],[10.9,20750],[10.9,20833],[10.9,20916],[10.8,21000],[10.8,21083],[10.8,21166],[10.8,21250],[10.8,21333],[10.8,21416],[10.8,21499],[10.8,21583],[10.8,21666],[10.8,21750],[10.8,21833],[10.8,21916],[10.8,21999],[10.8,22083],[10.8,22166],[10.8,22250],[10.8,22333],[10.8,22416],[10.8,22500],[10.8,22583],[10.8,22666],[10.8,22750],[10.8,22833],[10.8,22916],[10.8,23000],[10.8,23083],[10.8,23167],[10.8,23250],[10.8,23333],[10.8,23416],[10.8,23500],[10.8,23583],[10.8,23666],[10.8,23750],[10.8,23833],[10.8,23916],[10.8,24000],[10.8,24083],[10.8,24166],[10.8,24250],[10.8,24333],[10.6,24417],[10.6,24499],[10.6,24583],[10.6,24666],[10.6,24750],[10.6,24833],[10.6,24916],[10.6,25000],[10.6,25083],[10.6,25166],[10.6,25250],[10.6,25333],[10.6,25416],[10.6,25500],[10.6,25583],[10.6,25666],[10.6,25750],[10.6,25833],[10.6,25917],[10.6,26000],[10.6,26083],[10.6,26166],[10.6,26250],[10.6,26333],[10.6,26417],[10.6,26500],[10.6,26583],[10.6,26666],[10.6,26750],[10.6,26833],[10.6,26916],[10.6,27000],[10.6,27083],[10.6,27166],[10.6,27250],[10.6,27333],[10.6,27417],[10.6,27500],[10.6,27583],[10.6,27666],[10.6,27750],[10.6,27833],[10.6,27916],[10.6,28000],[10.6,28083],[10.6,28166],[10.6,28250],[10.6,28333],[10.6,28416],[10.6,28500],[10.6,28583],[10.6,28666],[10.6,28750],[10.6,28833],[10.6,28916],[10.6,29000],[10.6,29083],[10.6,29166],[10.6,29250],[10.6,29333],[10.6,29416],[10.6,29500],[10.6,29583],[10.6,29666],[10.6,29750],[10.6,29833],[10.6,29916],[10.6,30000],[10.6,30083],[10.6,30166],[10.6,30250],[10.6,30333],[10.6,30416],[10.6,30500],[10.6,30583],[10.6,30667],[10.6,30750],[10.6,30833],[10.6,30917],[10.6,31000],[10.6,31083],[10.6,31166],[10.6,31250],[10.6,31333],[10.6,31417],[10.6,31500],[10.6,31583],[10.6,31666],[10.6,31750],[10.6,31833],[10.6,31917],[10.6,32000],[10.6,32083],[10.6,32166],[10.6,32250],[10.6,32333],[10.6,32416],[10.6,32500],[10.6,32583],[10.6,32667],[10.6,32750],[10.6,32833],[10.6,32917],[10.6,33000],[10.6,33083],[10.6,33166],[10.6,33250],[10.6,33333],[10.6,33417],[10.6,33500],[10.6,33583],[10.6,33667],[10.6,33750],[10.6,33833],[10.6,33917],[10.6,34000],[10.6,34083],[10.6,34167],[10.6,34250],[10.6,34333],[10.6,34416],[10.6,34500],[10.6,34583],[10.6,34666],[10.6,34750],[10.6,34833],[10.6,34916],[10.6,35000],[10.6,35083],[10.6,35167],[10.6,35250],[10.6,35333],[10.6,35417],[10.6,35500],[10.6,35583],[10.6,35667],[10.6,35750],[10.6,35833],[10.6,35917],[10.6,36000],[10.6,36083],[10.6,36167],[10.6,36250],[10.6,36333],[10.6,36416],[10.6,36500],[10.6,36583],[10.6,36666],[10.6,36750],[10.6,36833],[10.6,36917],[10.6,37000],[10.6,37083],[10.6,37167],[10.5,37259],[10.5,37333],[10.5,37417],[10.5,37500],[10.5,37583],[10.5,37667],[10.5,37750],[10.5,37833],[10.5,37916],[10.5,38000],[10.5,38083],[10.5,38167],[10.5,38250],[10.5,38333],[10.5,38416],[10.5,38500],[10.5,38583],[10.5,38666],[10.5,38750],[10.5,38833],[10.5,38917],[10.5,39000],[10.5,39083],[10.5,39167],[10.5,39250],[10.5,39333],[10.5,39433],[10.5,39517],[10.5,39600],[10.5,39683],[10.5,39767],[10.5,39850],[10.5,39933],[10.5,40017],[10.5,40100],[10.5,40184],[10.2,40267],[10.2,40350],[10.2,40433],[10.2,40517],[10.2,40600],[10.2,40684],[10.2,40767],[10.2,40852],[10.2,40933],[10.2,41017],[10.2,41100],[10.2,41184],[10.2,41267],[10.2,41350],[10.2,41433],[10.2,41517],[10.2,41600],[10.2,41684],[10.2,41767],[10.2,41850],[10.1,41934],[10.1,42017],[10.1,42100],[10.1,42183],[10.1,42266],[10.1,42350],[10.1,42433],[10.1,42517],[10.1,42600],[10.1,42683],[10.1,42767],[10.1,42850],[10.1,42933],[10.1,43017],[10.1,43100],[7.3,43186],[26.9,44017],[27.3,44100],[28.4,44184],[29.2,44266],[29.2,44350],[29.2,44433],[29.2,44517],[29.2,44600],[29.2,44683],[29.2,44767],[29.2,44850],[29.2,44933],[29.2,45016],[29.2,45100],[29.2,45183],[29.2,45267],[29.2,45350],[29.2,45433],[29.2,45517],[29.2,45600],[29.2,45684],[29.2,45767],[29.2,45850],[29.2,45933],[29.2,46017],[29.2,46100],[29.2,46183],[29.2,46267],[29.2,46350],[30.7,47517],[30.3,47600],[30.3,47683],[30.3,47767],[30.3,47850],[30.3,47933],[30.3,48017],[30.3,48101],[30.3,48184],[30.3,48267],[30.3,48350],[30.3,48433],[30.3,48517],[30.3,48600],[30.3,48684],[30.3,48767],[30.3,48850],[30.3,48933],[30.3,49017],[30.3,49100],[30.3,49183],[30.3,49267],[30.3,49350],[30.3,49434],[30.3,49517],[30.3,49600],[30.3,49684],[30.3,49767],[30.3,49851],[30.3,49934],[30,50017],[29.9,50100],[29.9,50183],[29.9,50267],[29.9,50350],[29.9,50434],[29.5,50518],[29.4,50600],[29.4,50684],[29.4,50767],[29.4,50850],[29.4,50933],[29.4,51017],[29.4,51101],[29.4,51184],[29.4,51267],[29.4,51350],[29.4,51434],[29.4,51517],[29.4,51600],[29.4,51684],[29.4,51767],[29.4,51850],[29.4,51934],[29.4,52017],[29.4,52100],[29.4,52184],[29.4,52267],[29.4,52350],[29.4,52434],[29.4,52517],[29.4,52600],[29.4,52684],[29.4,52767],[29.4,52850],[29.4,52934],[29.4,53017],[29.4,53100],[29.4,53184],[29.4,53267],[29.4,53350],[29.4,53434],[29.4,53517],[29.4,53600],[29.4,53683],[29.4,53767],[29.4,53850],[29.4,53934],[29.4,54017],[29.4,54100],[29.4,54184],[29.4,54275],[29.4,54350],[29.4,54434],[29.4,54518],[29.4,54600],[29.4,54684],[29.4,54767],[30,54850],[30.5,54934],[30.5,55017],[30.5,55100],[30.5,55184],[32.1,55268],[32.1,55350],[32.1,55434],[32.1,55517],[32.1,55600],[32.1,55684],[32.1,55767],[32.1,55850]]",1,0,409.4714,410.4881,32.06675794,0.6214,"[{""rating"":32.06675793533773,""responseTime"":0.6214000000060196}]",space,0.4889,,410.4881,Half the time,50,410.4902,,,[],,0,10,10,10,1,audio/Narrative8Situation1.wav,audio/Narrative7Situation1.wav,audio/Narrative6Situation1.wav,audio/Narrative5Situation1.wav,5,2,2,5,,,,,,,,,,,,,,,,,,,,,,,,,,,,,,,,,,,,,,,
,,,,,,65108d02742b73e5f03efb63,2024-02-08_13h26.45.836,group3.1-3.2-social-tom,2023.2.2,Win32,60.24096386,65c5074098b851296ff0b7ed,65c5439e937cc216a40053ed,,,,,,,,,,,,,,,,,,,,,,,,,,,,,410.4906,1,audio/Narrative7Situation2.wav,413.505,,413.5051,420.9886,"[[34.9,2916],[34.9,2999],[34.9,3082],[34.9,3165],[34.9,3249],[34.9,3332],[34.9,3416],[34.9,3499],[34.9,3582],[34.9,3666],[34.9,3749],[34.9,3832],[34.9,3916],[34.9,3999],[34.9,4083],[34.9,4166],[34.9,4249],[34.9,4332],[34.9,4416],[34.9,4499],[34.9,4582],[34.9,4667],[34.9,4749],[34.9,4832],[34.9,4915],[34.9,4999],[34.9,5082],[34.9,5166],[34.9,5249],[34.9,5332],[34.9,5416],[34.9,5499],[34.9,5582],[34.9,5666],[34.9,5750],[34.9,5832],[34.9,5916],[34.9,5999],[34.9,6082],[34.9,6166],[34.9,6249],[34.9,6332],[34.9,6416],[34.9,6499],[34.9,6582],[34.9,6666],[34.9,6749],[34.9,6833],[34.9,6916],[34.9,6999],[34.9,7082],[34.9,7166],[34.9,7249],[34.9,7332],[34.9,7416]]",1,0,420.9889,425.6882,17.17393084,3.7385,"[{""rating"":17.173930838832607,""responseTime"":3.7385000000000446}]",space,4.1523,,425.6884,All the time,100,425.6916,,,[],,0,11,11,11,1,audio/Narrative8Situation2.wav,audio/Narrative7Situation2.wav,audio/Narrative6Situation2.wav,audio/Narrative5Situation2.wav,3,3,3,3,,,,,,,,,,,,,,,,,,,,,,,,,,,,,,,,,,,,,,,
,,,,,,65108d02742b73e5f03efb63,2024-02-08_13h26.45.836,group3.1-3.2-social-tom,2023.2.2,Win32,60.24096386,65c5074098b851296ff0b7ed,65c5439e937cc216a40053ed,,,,,,,,,,,,,,,,,,,,,,,,,,,,,425.6919,1,audio/Narrative7Situation3.wav,433.705,,433.7051,442.9719,"[[14.3,5350],[14.5,5433],[14.5,5519],[14.5,5604],[16.8,5687],[71.6,6104],[73,6187],[73,6270],[72.5,6354],[72.5,6437],[72.5,6520],[72.5,6604],[72.5,6687],[72.5,6766],[72.5,6853],[72.5,6935],[72.5,7016],[72.5,7099],[72.5,7187],[72.5,7270],[72.5,7353],[72.5,7435],[72.5,7516],[72.5,7604],[72.5,7683],[72.5,7770],[72.5,7849],[72.5,7937],[72.5,8020],[72.5,8104],[72.5,8184],[72.5,8270],[72.5,8353],[72.5,8437],[72.5,8520],[72.5,8599],[72.5,8683],[72.5,8770],[72.5,8854],[72.5,8937],[72.5,9020],[72.5,9099],[72.5,9188],[72.5,9266]]",1,0,442.9721,444.5263,72.4752641,0.5618,"[{""rating"":72.47526409898254,""responseTime"":0.5618000000118855}]",space,1.0165,,444.5263,Not at all,0,444.5288,,,[],,0,12,12,12,1,audio/Narrative8Situation3.wav,audio/Narrative7Situation3.wav,audio/Narrative6Situation3.wav,audio/Narrative5Situation3.wav,4,8,5,3,,,,,,,,,,,,,,,,,,,,,,,,,,,,,,,,,,,,,,,
,,,,,,65108d02742b73e5f03efb63,2024-02-08_13h26.45.836,group3.1-3.2-social-tom,2023.2.2,Win32,60.24096386,65c5074098b851296ff0b7ed,65c5439e937cc216a40053ed,,,,,,,,,,,,,,,,,,,,,,,,,,,,,444.5289,1,audio/Narrative7Situation4.wav,447.5437,,447.5437,459.2758,[],1,0,459.2758,465.9434,38.73207547,5.1335,"[{""rating"":38.732075472781354,""responseTime"":5.133499999999913}]",space,6.1178,,465.9435,Half the time,50,465.9462,,,[],,0,13,13,13,1,audio/Narrative8Situation4.wav,audio/Narrative7Situation4.wav,audio/Narrative6Situation4.wav,audio/Narrative5Situation4.wav,3,3,2,1,,,,,,,,,,,,,,,,,,,,,,,,,,,,,,,,,,,,,,,
,,,,,,65108d02742b73e5f03efb63,2024-02-08_13h26.45.836,group3.1-3.2-social-tom,2023.2.2,Win32,60.24096386,65c5074098b851296ff0b7ed,65c5439e937cc216a40053ed,,,,,,,,,,,,,,,,,,,,,,,,,,,,,465.9465,1,audio/Narrative7Situation5.wav,470.9556,,470.9557,479.4429,[],1,0,479.443,482.6105,48.52177133,2.2909,"[{""rating"":48.52177133257062,""responseTime"":2.2909000000059905}]",space,2.6174,,482.6106,Half the time,50,482.6125,,,[],,0,14,14,14,1,audio/Narrative8Situation5.wav,audio/Narrative7Situation5.wav,audio/Narrative6Situation5.wav,audio/Narrative5Situation5.wav,2,5,2,5,,,,,,,,,,,,,,,,,,,,,,,,,,,,,,,,,,,,,,,
,,,,,,65108d02742b73e5f03efb63,2024-02-08_13h26.45.836,group3.1-3.2-social-tom,2023.2.2,Win32,60.24096386,65c5074098b851296ff0b7ed,65c5439e937cc216a40053ed,,,,,,,,,,,,,,,,,,,,,,,,,,,,,482.6128,1,audio/Narrative7Situation6.wav,485.6226,,485.6227,495.6103,[],1,0,495.6103,500.0771,30.29627975,3.5242,"[{""rating"":30.296279746453582,""responseTime"":3.5242000000030203}]",space,3.9224,,500.0772,Half the time,50,500.0791,,,[],,0,15,15,15,1,audio/Narrative8Situation6.wav,audio/Narrative7Situation6.wav,audio/Narrative6Situation6.wav,audio/Narrative5Situation6.wav,2,3,2,3,,,,,,,,,,,,,,,,,,,,,,,,,,,,,,,,,,,,,,,
,,,,,,65108d02742b73e5f03efb63,2024-02-08_13h26.45.836,group3.1-3.2-social-tom,2023.2.2,Win32,60.24096386,65c5074098b851296ff0b7ed,65c5439e937cc216a40053ed,,,,,,,,,,,,,,,,,,,,,,,,,,,,,500.0794,1,audio/Narrative7Situation7.wav,505.0899,,505.09,522.2774,[],1,0,522.2775,526.211,63.6228846,2.7909,"[{""rating"":63.62288459634199,""responseTime"":2.790900000005877}]",space,3.3963,,526.211,Not at all,0,526.2134,,,[],,0,16,16,16,1,audio/Narrative8Situation7.wav,audio/Narrative7Situation7.wav,audio/Narrative6Situation7.wav,audio/Narrative5Situation7.wav,3,5,5,4,,,,,,,,,,,,,,,,,,,,,,,,,,,,,,,,,,,,,,,
,,,,,,65108d02742b73e5f03efb63,2024-02-08_13h26.45.836,group3.1-3.2-social-tom,2023.2.2,Win32,60.24096386,65c5074098b851296ff0b7ed,65c5439e937cc216a40053ed,,,,,,,,,,,,,,,,,,,,,,,,,,,,,526.2137,1,audio/Narrative7Situation8.wav,528.2274,,528.2274,538.2613,[],1,0,538.2614,541.4116,28.31751539,2.1274,"[{""rating"":28.31751539030317,""responseTime"":2.1274000000059914}]",space,2.5969,,541.4116,All the time,100,541.4141,,,[],,0,17,17,17,1,audio/Narrative8Situation8.wav,audio/Narrative7Situation8.wav,audio/Narrative6Situation8.wav,audio/Narrative5Situation8.wav,3,2,5,3,,,,,,,,,,,,,,,,,,,,,,,,,,,,,,,,,,,,,,,
,,,,,,65108d02742b73e5f03efb63,2024-02-08_13h26.45.836,group3.1-3.2-social-tom,2023.2.2,Win32,60.24096386,65c5074098b851296ff0b7ed,65c5439e937cc216a40053ed,,,,,,,,,,,,,,,,,,,,,,,,,,,,,541.4143,1,audio/Narrative7Situation9.wav,543.4241,,543.4241,552.0451,"[[26.3,2671],[26.3,2753],[26.3,2837],[26.2,2920],[25,3004],[24.4,3090],[24.4,3166],[23.6,3254],[23.6,3333],[23.6,3420],[23.6,3504],[23.6,3585],[23.6,3670],[23.6,3754],[23.6,3837],[23.6,3920],[23.6,4003],[23.6,4086],[23.6,4171],[23.6,4252],[23.6,4337],[23.6,4420],[23.6,4503],[23.6,4583],[23.6,4670],[23.6,4754],[23.6,4833],[23.6,4921],[23.6,4999],[23.6,5087],[23.6,5169],[23.6,5254],[27.6,5339],[31.2,5421],[28,5504],[28,5587],[28,5670],[28,5750],[28,5837],[28,5916],[28,6004],[32.6,6087],[36.7,6171],[39.4,6256],[43.1,6338],[59.5,6420],[63.4,6504],[63.5,6588],[59.9,6671],[56.2,6754],[56.2,6833]]",1,0,552.0452,555.1618,76.7452335,1.5656,"[{""rating"":76.74523350396298,""responseTime"":1.5656000000088852}]",space,2.5788,,555.1618,Not at all,0,566.9949,55.60367265,10.3323,"[{""rating"":55.603672646326984,""responseTime"":10.33230000001197}]",space,0,18,18,18,1,audio/Narrative8Situation9.wav,audio/Narrative7Situation9.wav,audio/Narrative6Situation9.wav,audio/Narrative5Situation9.wav,3,2,4,3,,,11.2967,,,,,,,,,,,,,,,,,,,,,,,,,,,,,,,,,,,,
,,,,,,65108d02742b73e5f03efb63,2024-02-08_13h26.45.836,group3.1-3.2-social-tom,2023.2.2,Win32,60.24096386,65c5074098b851296ff0b7ed,65c5439e937cc216a40053ed,,,,,,,,,,,,,,,,,,,,,,,,,,,570.7886,573.3601,573.3739,2,audio/Narrative13Situation2.wav,573.3741,,573.3741,603.113,[],1,0,603.1131,603.1256,,,[],,,,603.1256,Not at all,0,603.1272,,,[],,0,0,0,0,1,audio/Narrative13Situation2.wav,audio/Narrative13Situation2.wav,audio/Narrative13Situation2.wav,audio/Narrative13Situation2.wav,2,2,2,2,,,,,566.9959,570.7796,space,3.2678,,,,,,,,,,,,,,,,,,,,,,,,,,,,,,,
,,,,,,65108d02742b73e5f03efb63,2024-02-08_13h26.45.836,group3.1-3.2-social-tom,2023.2.2,Win32,60.24096386,65c5074098b851296ff0b7ed,65c5439e937cc216a40053ed,,,,,,,,,,,,,,,,,,,,,,,,,,,,,603.1275,2,audio/Narrative6Situation1.wav,605.142,,605.142,631.7094,"[[62.7,750],[62.7,834],[63.9,917],[67.2,1000],[67.5,1083],[67.9,1166],[68.9,1250],[70.9,1334],[71.8,1416],[71.8,1500],[71.8,1583],[71.8,1666],[71.7,1749],[71.7,1833],[71.7,1917],[68.4,2000],[66.3,2084],[59.6,2167],[72.1,2500],[72.1,2583],[72.1,2666],[72.1,2749],[72.7,2833],[73.2,2917],[73.2,3000],[73.2,3083],[73.2,3166],[73.2,3249],[73.2,3333],[73.2,3417],[73.2,3500],[73.2,3583],[73.2,3666],[73.2,3750],[73.2,3833],[73.2,3916],[74.4,4000],[77.3,4084],[78.9,4166],[78.9,4250],[78.9,4333],[78.9,4416],[78.9,4500],[78.9,4583],[78.9,4666],[78.9,4750],[78.9,4833],[78.9,4917],[78.9,5001],[78.8,5083],[78.6,5166],[78.5,5250],[78.4,5333],[78.4,5416],[78.4,5500],[78.4,5583],[78.4,5666],[78.4,5750],[78.2,5833],[78.2,5916],[78.2,6000],[78.2,6083],[78.2,6166],[77.9,6250],[77.9,6333],[77.9,6416],[77.9,6500],[77.9,6583],[77.9,6666],[77.9,6750],[77.9,6833],[77.9,6916],[77.9,7000],[77.9,7084],[77.9,7166],[77.9,7250],[77.9,7333],[77.9,7416],[77.9,7500],[77.9,7584],[77.9,7666],[77.9,7750],[77.9,7833],[77.9,7917],[77.9,8000],[77.9,8083],[77.9,8166],[77.9,8250],[77.9,8333],[77.9,8416],[77.9,8500],[77.9,8583],[77.9,8666],[77.9,8750],[77.9,8833],[77.9,8916],[77.9,9000],[77.9,9083],[77.9,9166],[77.9,9250],[77.9,9333],[77.9,9416],[77.9,9500],[77.9,9583],[77.9,9667],[77.9,9750],[77.9,9833],[77.9,9917],[77.9,10000],[77.9,10083],[77.9,10167],[77.9,10250],[77.9,10333],[77.9,10417],[77.9,10500],[77.9,10583],[77.9,10667],[77.9,10751],[77.9,10833],[77.9,10917],[77.9,11000],[77.9,11083],[77.9,11167],[77.9,11250],[77.9,11333],[77.9,11417],[77.9,11500],[77.9,11583],[77.9,11667],[77.9,11750],[77.9,11833],[77.9,11917],[77.9,12000],[77.9,12083],[77.9,12167],[77.9,12250],[77.9,12333],[77.9,12416],[77.9,12500],[77.9,12583],[77.9,12667],[77.9,12750],[77.9,12833],[77.9,12917],[77.9,13000],[77.9,13083],[77.9,13167],[77.9,13250],[77.9,13333],[77.9,13416],[77.9,13500],[77.9,13583],[77.9,13666],[77.9,13750],[77.9,13833],[77.9,13916],[77.9,14000],[77.9,14083],[77.9,14166],[77.9,14250],[77.9,14333],[77.9,14417],[77.9,14500],[77.9,14583],[77.9,14667],[77.9,14750],[77.9,14833],[77.9,14917],[77.9,15000],[77.9,15083],[77.9,15167],[77.9,15250],[77.9,15333],[77.9,15417],[77.9,15500],[77.9,15584],[77.9,15667],[77.9,15750],[77.9,15833],[77.9,15917],[77.9,16000],[77.9,16083],[77.9,16168],[77.9,16250],[77.9,16333],[77.9,16417],[77.9,16500],[77.9,16584],[77.9,16667],[77.9,16750],[77.9,16834],[77.9,16916],[77.9,17000],[77.9,17083],[77.9,17166],[77.9,17250],[77.9,17333],[77.9,17417],[77.9,17500],[77.9,17583],[77.9,17666],[77.9,17750],[77.9,17833],[77.9,17916],[77.9,18000],[77.9,18083],[77.9,18166],[77.9,18250],[77.9,18333],[77.9,18416],[77.9,18500],[77.9,18583],[77.9,18667],[77.9,18750],[77.9,18833],[77.9,18916],[77.9,19000],[77.9,19083],[77.9,19167],[77.9,19250],[77.9,19333],[77.9,19417],[77.9,19500],[77.9,19583],[77.9,19667],[77.9,19750],[77.9,19833],[77.9,19917],[77.9,20000],[77.9,20083],[77.9,20167],[77.9,20250],[77.9,20333],[77.9,20417],[77.9,20501],[77.9,20583],[77.9,20667],[77.9,20750],[77.9,20833],[77.9,20917],[77.9,21001],[77.9,21083],[77.9,21167],[77.9,21250],[77.9,21334],[77.9,21417],[77.9,21500],[77.9,21584],[77.9,21667],[77.9,21750],[77.9,21833],[77.9,21917],[77.9,22000],[77.9,22083],[77.9,22167],[77.9,22250],[77.9,22334],[77.9,22417],[77.9,22500],[77.9,22583],[77.9,22667],[77.9,22750],[77.9,22833],[77.9,22917],[77.9,23000],[77.9,23083],[77.9,23167],[77.9,23250],[77.9,23333],[77.9,23417],[77.9,23501],[77.9,23583],[77.9,23667],[77.9,23751],[77.9,23833],[77.9,23917],[77.9,24000],[77.9,24083],[77.9,24167],[77.9,24250],[77.9,24333],[77.9,24417],[77.9,24500],[77.9,24583],[77.9,24667],[77.9,24750],[77.9,24833],[77.9,24917],[77.9,25000],[77.9,25083],[77.9,25167],[77.9,25250],[77.9,25333],[77.9,25417],[77.9,25500],[77.9,25583],[77.9,25667],[77.9,25750],[77.9,25833],[77.9,25917],[77.8,26000],[77.8,26083],[77.8,26167],[77.8,26251],[77.8,26333],[77.8,26417],[77.8,26501]]",1,0,631.7097,635.8593,62.06070402,2.5492,"[{""rating"":62.06070401650437,""responseTime"":2.549200000003111}]",space,3.627,,635.8594,Not at all,0,635.8613,,,[],,0,1,1,1,1,audio/Narrative7Situation1.wav,audio/Narrative8Situation1.wav,audio/Narrative5Situation1.wav,audio/Narrative6Situation1.wav,2,5,5,2,,,,,,,,,,,,,,,,,,,,,,,,,,,,,,,,,,,,,,,
,,,,,,65108d02742b73e5f03efb63,2024-02-08_13h26.45.836,group3.1-3.2-social-tom,2023.2.2,Win32,60.24096386,65c5074098b851296ff0b7ed,65c5439e937cc216a40053ed,,,,,,,,,,,,,,,,,,,,,,,,,,,,,635.8616,2,audio/Narrative6Situation2.wav,638.876,,638.876,667.3936,"[[61.5,23678],[53,23750],[25.1,24167],[25.4,24251],[25.8,24334],[25.8,24417],[25.8,24500],[25.8,24583],[25.8,24667],[25.8,24750],[25.8,24833],[25.8,24917],[25.9,25001],[26.3,25084],[26.3,25166],[26.5,25251],[26.5,25333],[26.6,25417],[26.6,25500],[26.6,25583],[26.6,25667],[26.6,25750],[26.6,25833],[26.6,25917],[26.6,26000],[26.6,26084],[26.6,26167],[26.6,26250],[26.6,26333],[26.6,26417],[26.6,26500],[26.6,26584],[26.6,26667],[26.6,26750],[26.6,26834],[26.6,26917],[26.6,27000],[26.5,27084],[26.5,27167],[26.5,27250],[26.5,27334],[26.5,27417],[26.5,27500],[26.5,27583],[26.5,27667],[26.5,27750],[26.5,27833],[26.5,27917],[26.5,28000],[26.5,28084],[31,28167],[31.1,28250],[31.1,28333],[31.1,28417],[31.1,28500]]",1,0,667.3939,669.3934,32.17090102,1.0487,"[{""rating"":32.17090101897086,""responseTime"":1.0486999999880027}]",space,1.4504,,669.3934,Not at all,0,669.3953,,,[],,0,2,2,2,1,audio/Narrative7Situation2.wav,audio/Narrative8Situation2.wav,audio/Narrative5Situation2.wav,audio/Narrative6Situation2.wav,3,3,3,3,,,,,,,,,,,,,,,,,,,,,,,,,,,,,,,,,,,,,,,
,,,,,,65108d02742b73e5f03efb63,2024-02-08_13h26.45.836,group3.1-3.2-social-tom,2023.2.2,Win32,60.24096386,65c5074098b851296ff0b7ed,65c5439e937cc216a40053ed,,,,,,,,,,,,,,,,,,,,,,,,,,,,,669.3956,2,audio/Narrative6Situation3.wav,674.4102,,674.4105,687.0274,[],1,0,687.0276,690.0439,7.488389504,1.7695,"[{""rating"":7.4883895044567055,""responseTime"":1.7695000000001073}]",space,2.4931,,690.0439,Half the time,50,690.0468,,,[],,0,3,3,3,1,audio/Narrative7Situation3.wav,audio/Narrative8Situation3.wav,audio/Narrative5Situation3.wav,audio/Narrative6Situation3.wav,8,4,3,5,,,,,,,,,,,,,,,,,,,,,,,,,,,,,,,,,,,,,,,
,,,,,,65108d02742b73e5f03efb63,2024-02-08_13h26.45.836,group3.1-3.2-social-tom,2023.2.2,Win32,60.24096386,65c5074098b851296ff0b7ed,65c5439e937cc216a40053ed,,,,,,,,,,,,,,,,,,,,,,,,,,,,,690.0471,2,audio/Narrative6Situation4.wav,692.0611,,692.0612,704.6778,[],1,0,704.6779,716.1619,50.08395191,10.2332,"[{""rating"":50.08395191240829,""responseTime"":10.23320000000308}]",space,10.9402,,716.162,All the time,100,716.1664,,,[],,0,4,4,4,1,audio/Narrative7Situation4.wav,audio/Narrative8Situation4.wav,audio/Narrative5Situation4.wav,audio/Narrative6Situation4.wav,3,3,1,2,,,,,,,,,,,,,,,,,,,,,,,,,,,,,,,,,,,,,,,
,,,,,,65108d02742b73e5f03efb63,2024-02-08_13h26.45.836,group3.1-3.2-social-tom,2023.2.2,Win32,60.24096386,65c5074098b851296ff0b7ed,65c5439e937cc216a40053ed,,,,,,,,,,,,,,,,,,,,,,,,,,,,,716.1669,2,audio/Narrative6Situation5.wav,718.1779,,718.1779,726.1448,[],1,0,726.1449,729.0614,20.92317338,1.9034,"[{""rating"":20.923173383867177,""responseTime"":1.903399999991052}]",space,2.3752,,729.0615,All the time,100,729.0639,,,[],,0,5,5,5,1,audio/Narrative7Situation5.wav,audio/Narrative8Situation5.wav,audio/Narrative5Situation5.wav,audio/Narrative6Situation5.wav,5,2,5,2,,,,,,,,,,,,,,,,,,,,,,,,,,,,,,,,,,,,,,,
,,,,,,65108d02742b73e5f03efb63,2024-02-08_13h26.45.836,group3.1-3.2-social-tom,2023.2.2,Win32,60.24096386,65c5074098b851296ff0b7ed,65c5439e937cc216a40053ed,,,,,,,,,,,,,,,,,,,,,,,,,,,,,729.0642,2,audio/Narrative6Situation6.wav,731.0781,,731.0781,742.1455,[],1,0,742.1457,744.7791,58.72803381,1.6678,"[{""rating"":58.72803380600232,""responseTime"":1.667799999996987}]",space,2.0968,,744.7791,Not at all,0,744.7823,,,[],,0,6,6,6,1,audio/Narrative7Situation6.wav,audio/Narrative8Situation6.wav,audio/Narrative5Situation6.wav,audio/Narrative6Situation6.wav,3,2,3,2,,,,,,,,,,,,,,,,,,,,,,,,,,,,,,,,,,,,,,,
,,,,,,65108d02742b73e5f03efb63,2024-02-08_13h26.45.836,group3.1-3.2-social-tom,2023.2.2,Win32,60.24096386,65c5074098b851296ff0b7ed,65c5439e937cc216a40053ed,,,,,,,,,,,,,,,,,,,,,,,,,,,,,744.7826,2,audio/Narrative6Situation7.wav,749.7954,,749.7954,774.6626,"[[65.5,18667],[69.5,18750],[70.9,18833],[72.1,18917],[76.8,19000],[79.3,19084],[79.3,19166],[79.2,19250],[79.2,19333],[79.2,19417],[79.2,19500],[79.2,19583],[79.2,19666],[79.2,19750],[79.2,19833],[79.2,19917],[79.2,20000],[79.2,20083],[79.2,20167],[79.2,20250],[79.2,20333],[79.2,20417],[79.2,20500],[79.2,20583],[79.2,20667],[79.2,20750],[79.2,20833],[79.2,20917],[79.2,21000],[79.2,21083],[79.2,21167],[79.2,21250],[79.2,21334],[79.2,21416],[79.2,21500],[79.2,21583],[79.2,21667],[79.2,21750],[79.2,21834],[79.2,21917],[79.2,22000],[79.2,22083],[79.2,22166],[79.2,22250],[79.2,22333],[79.2,22417],[79.2,22500],[79.2,22583],[79.2,22667],[79.2,22750],[79.2,22833],[79.2,22917],[79.2,23000],[79.2,23083],[79.2,23166],[79.2,23250],[79.2,23333],[79.2,23417],[79.2,23500],[79.2,23583],[79.2,23667],[79.2,23750],[79.2,23833],[79.2,23917],[79.2,24000],[79.2,24083],[79.2,24166],[79.2,24250],[79.2,24333],[79.2,24416],[79.2,24500],[79.2,24583],[79.2,24666],[79.2,24750],[79.2,24833]]",1,0,774.6628,777.6126,79.24472472,1.8513,"[{""rating"":79.24472472005928,""responseTime"":1.8512999999970816}]",space,2.4176,,777.6127,Half the time,50,777.6158,,,[],,0,7,7,7,1,audio/Narrative7Situation7.wav,audio/Narrative8Situation7.wav,audio/Narrative5Situation7.wav,audio/Narrative6Situation7.wav,5,3,4,5,,,,,,,,,,,,,,,,,,,,,,,,,,,,,,,,,,,,,,,
,,,,,,65108d02742b73e5f03efb63,2024-02-08_13h26.45.836,group3.1-3.2-social-tom,2023.2.2,Win32,60.24096386,65c5074098b851296ff0b7ed,65c5439e937cc216a40053ed,,,,,,,,,,,,,,,,,,,,,,,,,,,,,777.6161,2,audio/Narrative6Situation8.wav,782.6295,,782.6295,789.4961,[],1,0,789.4962,793.2461,28.31751539,2.6632,"[{""rating"":28.31751539030317,""responseTime"":2.6632000000029166}]",space,3.2095,,793.2462,All the time,100,793.2494,,,[],,0,8,8,8,1,audio/Narrative7Situation8.wav,audio/Narrative8Situation8.wav,audio/Narrative5Situation8.wav,audio/Narrative6Situation8.wav,2,3,3,5,,,,,,,,,,,,,,,,,,,,,,,,,,,,,,,,,,,,,,,
,,,,,,65108d02742b73e5f03efb63,2024-02-08_13h26.45.836,group3.1-3.2-social-tom,2023.2.2,Win32,60.24096386,65c5074098b851296ff0b7ed,65c5439e937cc216a40053ed,,,,,,,,,,,,,,,,,,,,,,,,,,,,,793.2496,2,audio/Narrative6Situation9.wav,797.263,,797.263,807.2132,"[[28.6,1516],[28.6,1599],[28.6,1683],[28.6,1766],[40.4,1850],[41.6,1933],[41.7,2016],[41.7,2099],[41.6,2183],[41.6,2266],[41.6,2349],[41.6,2433],[41.6,2516],[41.6,2599],[41.6,2683],[42.1,2766],[41.8,2850],[41.8,2933],[41.8,3016],[41.8,3099],[41.8,3183],[41.8,3266],[41.8,3349],[40.8,3433],[40.1,3516],[40.1,3599],[39.2,3683],[39,3766],[39,3849],[39,3933],[39,4016],[39,4099],[39,4183],[39,4266],[39,4349],[39,4433],[39,4516],[39,4599],[39,4683],[39,4766],[39,4849],[39,4933],[39,5016],[39,5100],[39,5183],[39,5267],[39,5349],[39,5433],[39,5516],[39,5599],[39,5683],[39,5766],[39,5850],[39,5933],[39,6016],[39,6099],[39,6183],[39,6266],[39,6349],[39,6433],[39,6516],[39,6599],[39,6683],[39,6766],[39,6849],[39,6933],[39,7017],[39,7099],[39,7183],[39,7266],[39,7350],[39,7433],[39,7517],[39,7599],[39,7683],[39,7766],[39,7850],[39,7933],[39,8016],[39,8100],[39,8183],[39,8266],[39,8349],[39,8433],[39,8516],[39,8600],[39,8683],[39,8766],[39,8850],[39,8933],[39,9016],[39,9099],[39,9183],[39,9266],[39,9349],[39,9433],[39,9516],[39,9600],[39,9683],[39,9766],[39,9850],[39,9933]]",1,0,807.2135,809.78,62.26899018,1.4578,"[{""rating"":62.26899018377061,""responseTime"":1.457799999997178}]",space,2.0188,,809.78,Half the time,50,809.785,,,[],,0,9,9,9,1,audio/Narrative7Situation9.wav,audio/Narrative8Situation9.wav,audio/Narrative5Situation9.wav,audio/Narrative6Situation9.wav,2,3,3,4,,,,,,,,,,,,,,,,,,,,,,,,,,,,,,,,,,,,,,,
,,,,,,65108d02742b73e5f03efb63,2024-02-08_13h26.45.836,group3.1-3.2-social-tom,2023.2.2,Win32,60.24096386,65c5074098b851296ff0b7ed,65c5439e937cc216a40053ed,,,,,,,,,,,,,,,,,,,,,,,,,,,,,809.7855,2,audio/Narrative5Situation1.wav,814.7967,,814.7968,828.0972,"[[54.9,2600],[54.9,2683],[54.9,2766],[54.3,2850],[53.3,2934],[51.9,3016],[51.5,3099],[51.4,3183],[51.4,3266],[51.4,3349],[51.4,3433],[51.4,3516],[51.4,3599],[51.4,3683],[51.4,3766],[51.4,3849],[51.4,3933],[51.4,4016],[51.4,4100],[51.4,4183],[51.4,4266],[51.4,4349],[51.4,4432],[51.4,4516],[51.4,4599],[51.4,4683],[51.4,4766],[51.4,4850],[51.4,4933],[51.4,5016],[51.4,5100],[51.4,5183],[51.4,5266],[51.4,5350],[51.4,5433],[51.4,5516],[51.4,5600],[51.4,5683],[51.4,5766],[51.4,5849],[51.4,5933],[51.4,6016],[51.4,6100],[51.4,6183],[51.4,6266],[51.4,6349],[51.4,6433],[51.4,6516],[51.4,6600],[51.4,6683],[51.4,6766],[51.4,6850],[51.4,6933],[51.4,7016],[51.4,7099],[51.4,7183],[51.4,7266],[51.4,7350],[51.4,7433],[51.4,7516],[51.1,7600],[51.1,7683],[51.1,7766],[51.1,7850],[51.1,7933],[51.1,8016],[51.1,8100],[51.1,8183],[51.1,8267],[51.1,8349],[51.1,8433],[51.1,8516],[51.1,8600],[51.1,8683],[51.1,8766],[50.8,8850],[50.3,8933],[48.8,9017],[43.6,9100],[43.5,9183],[44.1,9267],[45,9350],[45,9433],[46.9,9517],[48.2,9600],[48.2,9683],[48.2,9766],[48.2,9849],[48.2,9933],[48.2,10016],[48.2,10099],[48.2,10183],[48.2,10266],[48.2,10350],[48.2,10433],[48.2,10516],[48.2,10600],[48.2,10683],[48.2,10766],[48.2,10850],[48.2,10933],[48.2,11016],[48.2,11100],[48.2,11183],[48.2,11266],[48.2,11350],[48.2,11433],[48.2,11516],[48.2,11599],[48.2,11683],[48.2,11766],[48.2,11850],[48,11933],[47.8,12016],[47.6,12099],[47.6,12183],[47.6,12266],[47.6,12349],[47.7,12433],[47.7,12516],[47.7,12600],[47.7,12683],[47.7,12766],[47.7,12850],[47.7,12933],[47.7,13016],[47.7,13100],[47.7,13183],[47.7,13266]]",1,0,828.0974,831.5636,50.29223808,2.0891,"[{""rating"":50.29223807967453,""responseTime"":2.089099999994005}]",space,2.919,,831.5636,Half the time,50,831.5653,,,[],,0,10,10,10,1,audio/Narrative8Situation1.wav,audio/Narrative7Situation1.wav,audio/Narrative6Situation1.wav,audio/Narrative5Situation1.wav,5,2,2,5,,,,,,,,,,,,,,,,,,,,,,,,,,,,,,,,,,,,,,,
,,,,,,65108d02742b73e5f03efb63,2024-02-08_13h26.45.836,group3.1-3.2-social-tom,2023.2.2,Win32,60.24096386,65c5074098b851296ff0b7ed,65c5439e937cc216a40053ed,,,,,,,,,,,,,,,,,,,,,,,,,,,,,831.5657,2,audio/Narrative5Situation2.wav,834.5805,,834.5805,864.048,"[[51.5,3916],[46.4,4000],[46.1,4083],[46.1,4166],[46.1,4249],[46.1,4333],[46.1,4416],[50.8,4500],[49.7,4583],[49.7,4666],[50.7,4750],[51,4833],[51,4917],[51,4999],[51,5083],[51,5166],[51,5249],[50.6,5334],[50,5416],[50,5499],[50,5583],[50,5667],[50,5750],[50,5833],[50,5916],[50,5999],[50,6083],[50,6166],[50,6250],[50,6333],[50,6416],[50,6499],[50,6583],[50,6666],[50,6750],[50,6833],[50,6916],[50,7000],[50,7083],[50,7166],[50,7249],[50,7333],[50,7416],[50,7500],[50,7583],[50,7666],[50,7749],[50,7833],[50,7916],[50,8000],[50,8083],[50,8166],[50,8250],[50,8333],[50,8416],[50,8500],[50,8583],[50,8666],[50,8750],[50,8833],[50,8916],[50,9000],[50,9083],[50,9166],[50,9250],[50,9333],[50,9416],[50,9500],[50,9583],[50,9666],[50,9750],[50,9833],[50,9916],[50,10000],[50,10083],[50,10166],[50,10250],[50,10333],[50,10416],[50,10500],[50,10583],[50,10666],[50,10750],[50,10833],[50,10916],[50,11000],[50,11083],[50,11166],[50,11250],[50,11333],[50,11416],[50,11500],[50,11583],[50,11666],[50,11750],[50,11833],[50,11916],[50,12000],[50,12083],[50,12166],[50,12250],[50,12333],[50,12416],[50,12500],[50,12583],[50,12666],[50,12750],[50,12833],[50,12916],[50,13000],[50,13083],[50,13166],[50,13250],[50,13333],[50,13416],[50,13500],[50,13583],[50,13666],[50,13749],[50,13833],[50,13916],[50,14000],[50,14083],[50,14166],[50,14250],[50,14333],[50,14416],[50,14500],[50,14583],[50,14666],[50,14750],[50,14833],[50,14917],[50,15000],[50,15083],[50,15167],[50,15250],[50,15333],[50,15417],[50,15500],[50,15583],[50,15667],[50,15750],[50,15833],[50,15917],[50,16000],[50,16083],[50,16167],[50,16250],[50,16333],[50,16416],[50,16500],[50,16583],[50,16666],[50,16750],[50,16833],[50,16917],[50,17000],[50,17083],[50,17166],[50,17250],[50,17333],[50,17416],[50,17500],[50,17583],[50,17666],[50,17750],[50,17833],[50,17916],[50,18000],[50,18083],[50,18166],[50,18250],[50,18333],[50,18416],[50,18500],[50,18583],[50,18667],[50,18750],[50,18833],[50,18916],[50,19000],[50,19083],[50,19166],[50,19250],[50,19333],[50,19416],[50,19500],[50,19583],[50,19666],[50,19750],[50,19833],[48,19917],[44.3,20000],[39.9,20084],[38.3,20167],[36.1,20250],[33.7,20334],[31.9,20417],[31.5,20500],[31.6,20583]]",1,0,864.0482,910.4323,35.29527362,45.62,"[{""rating"":35.295273620426414,""responseTime"":45.61999999999989}]",space,45.8342,,910.4324,All the time,100,910.4354,,,[],,0,11,11,11,1,audio/Narrative8Situation2.wav,audio/Narrative7Situation2.wav,audio/Narrative6Situation2.wav,audio/Narrative5Situation2.wav,3,3,3,3,,,,,,,,,,,,,,,,,,,,,,,,,,,,,,,,,,,,,,,
,,,,,,65108d02742b73e5f03efb63,2024-02-08_13h26.45.836,group3.1-3.2-social-tom,2023.2.2,Win32,60.24096386,65c5074098b851296ff0b7ed,65c5439e937cc216a40053ed,,,,,,,,,,,,,,,,,,,,,,,,,,,,,910.4357,2,audio/Narrative5Situation3.wav,913.449,,913.449,927.3658,"[[35.4,7192],[46.7,7266],[55,7350],[57.7,7433],[60.4,7516],[60.9,7601],[61.3,7684],[61.3,7767],[61.3,7849],[61.3,7933],[61.3,8016],[61.2,8100],[61.2,8183],[61.2,8266],[61.2,8350],[61.2,8433],[61.2,8516],[61.2,8600],[61.2,8683],[61.2,8767],[67.5,8850],[65.2,9350],[66.6,9433],[66.8,9516],[63.1,9600],[65.7,9684],[69.6,9766],[61.8,9850],[68.5,9933],[67.9,10017],[62.8,10100],[67.9,10183],[61.2,10266],[64.6,10350],[66.6,10433],[62.8,10516],[65.6,10600],[63.9,10683],[65.2,10766],[65.7,10850],[61.9,10933],[66.6,11017],[66.3,11100],[60.5,11183],[67.7,11267],[61.1,11350],[63.8,11434],[65.4,11517],[59.4,11600],[72.6,11684],[56.6,11767],[64.7,11851],[63,11934],[58,12018],[69.7,12099],[59.3,12183],[69.2,12266],[64.4,12350],[63,12434],[71.4,12517],[62.2,12600],[69.6,12683],[63.4,12767],[63.8,12850],[67.9,12933],[61.9,13016],[67.1,13100],[62,13184],[65.6,13267],[64.6,13350],[63.1,13434],[65.9,13516],[62.8,13600],[68.5,13684],[61.1,13767],[63,13850]]",1,0,927.3659,929.2327,62.26899018,0.8768,"[{""rating"":62.26899018377061,""responseTime"":0.876799999997047}]",space,1.3392,,929.2327,Half the time,50,929.2355,,,[],,0,12,12,12,1,audio/Narrative8Situation3.wav,audio/Narrative7Situation3.wav,audio/Narrative6Situation3.wav,audio/Narrative5Situation3.wav,4,8,5,3,,,,,,,,,,,,,,,,,,,,,,,,,,,,,,,,,,,,,,,
,,,,,,65108d02742b73e5f03efb63,2024-02-08_13h26.45.836,group3.1-3.2-social-tom,2023.2.2,Win32,60.24096386,65c5074098b851296ff0b7ed,65c5439e937cc216a40053ed,,,,,,,,,,,,,,,,,,,,,,,,,,,,,929.2358,2,audio/Narrative5Situation4.wav,930.249,,930.2491,950.6502,"[[62.5,666],[62.7,750],[62.7,834],[62.7,916],[62.7,1000],[62.7,1083],[62.7,1166],[62.7,1250],[61,1334],[57.5,1417],[50.3,1500],[49.9,1583],[49.7,1666],[49.7,1749],[49.7,1833],[49.7,1916],[49.7,2000],[49.7,2083],[49.7,2166],[49.7,2250],[50.2,2333],[50.5,2417],[50.5,2500],[50.5,2583],[50.5,2666],[50.5,2750],[50.5,2833],[50.5,2916],[50.5,3000],[50.2,3083],[50.2,3167],[50.2,3249],[50.2,3333],[50.2,3417],[50.2,3500],[50.2,3583],[50.2,3666],[50.2,3750],[50.2,3833],[50.2,3916],[50.2,4000],[50.2,4083],[50.2,4166],[50.2,4250],[50.2,4333],[50.2,4416],[50.2,4500],[50.2,4583],[50.2,4666],[50.2,4750],[50.2,4834],[50.2,4916],[50.2,5000],[50.2,5083],[50.2,5166],[50.2,5250],[50.2,5333],[50.2,5416],[50.2,5500],[50.2,5583],[50.2,5666],[50.2,5750],[50.2,5834],[50.2,5916],[50.2,6000],[50.2,6083],[50.2,6167],[50.2,6250],[50.2,6333],[50.2,6416],[50.2,6500],[50.2,6583],[50.2,6666],[50.2,6750],[50.2,6833],[50.2,6916],[50.2,7000],[50.2,7083],[50.2,7166],[50.2,7250],[50.2,7333],[50.2,7416],[50.2,7500],[50.2,7583],[50.2,7666],[50.2,7750],[50.2,7833],[50.2,7916],[50.2,8000],[50.2,8083],[50.2,8166],[50.2,8250],[50.2,8333],[50.2,8417],[57.9,8500],[59.7,8583],[62.2,8667],[63.2,8750],[63.4,8833],[63.4,8916],[63.4,9000],[63.4,9083],[63.4,9166],[63.4,9250],[63.4,9333],[63.4,9416],[63.4,9500],[66.2,9584],[66.5,9666],[66.5,9750],[66.5,9833],[66.5,9916],[66.5,10000],[66.5,10083],[66.5,10167],[66.5,10250],[66.5,10333],[66.5,10417],[66.5,10500],[66.4,10583],[66.4,10667],[66.4,10750],[66.4,10833],[66.4,10916],[66.4,11000],[66.4,11083],[66.4,11166],[66.4,11250],[66.4,11333],[66.4,11417],[66.3,11500],[66.3,11583],[66.3,11667],[66.3,11750],[66.3,11833],[66.3,11916],[66.3,12000],[66.3,12083],[66.3,12167],[66.3,12250],[66.3,12333],[66.3,12416],[66.3,12500],[66.3,12583],[66.3,12666],[66.3,12750],[66.3,12833],[66.3,12916],[66.3,13000],[66.3,13083],[66.3,13166],[66.3,13250],[66.3,13333],[66.3,13417],[66.3,13500],[66.3,13583],[66.3,13666],[66.3,13750],[66.3,13833],[66.3,13916],[66.3,14000],[66.3,14083],[66.3,14167],[66.3,14250],[66.3,14333],[66.3,14416],[66.3,14500],[66.3,14583],[66,14666],[66,14750],[66,14833],[66,14916],[66,15000],[66,15083],[66,15167],[66,15250],[66,15333],[65.7,15416],[65.7,15500],[65.7,15583],[65.7,15666],[65.7,15750],[65.7,15833],[65.7,15917],[65.7,16000],[65.7,16083],[65.7,16167],[65.7,16250],[65.7,16333],[65.7,16416],[65.7,16500],[65.7,16583],[65.7,16667],[65.7,16750],[72.6,16834],[79.4,16917],[84.3,17000],[85.4,17083],[85.4,17166],[85.4,17250],[85.4,17333],[86,17417],[86,17500],[86,17583],[86,17667],[86,17750],[86,17833],[86,17917],[86,18000],[86,18084],[86,18167],[86,18250],[86,18333],[86,18416],[86,18500],[86,18583],[86,18666],[86,18750],[86,18833],[86,18916],[86,19000],[86,19083],[86,19167],[85.9,19250],[85.9,19333],[85.9,19417],[85.9,19500],[85.9,19583],[85.9,19667],[85.9,19750],[85.9,19833],[85.9,19917],[84.6,20001],[84,20083],[84,20166],[84,20250],[84,20333]]",1,0,950.6503,952.6166,83.9312779,0.7541,"[{""rating"":83.93127790135246,""responseTime"":0.754099999994196}]",space,1.4235,,952.6167,Not at all,0,952.6198,,,[],,0,13,13,13,1,audio/Narrative8Situation4.wav,audio/Narrative7Situation4.wav,audio/Narrative6Situation4.wav,audio/Narrative5Situation4.wav,3,3,2,1,,,,,,,,,,,,,,,,,,,,,,,,,,,,,,,,,,,,,,,
,,,,,,65108d02742b73e5f03efb63,2024-02-08_13h26.45.836,group3.1-3.2-social-tom,2023.2.2,Win32,60.24096386,65c5074098b851296ff0b7ed,65c5439e937cc216a40053ed,,,,,,,,,,,,,,,,,,,,,,,,,,,,,952.6201,2,audio/Narrative5Situation5.wav,957.6335,,957.6336,973.0707,"[[999,21],[999,103],[999,187],[999,266],[999,349],[999,437],[999,516],[999,603],[999,687],[999,771],[999,854],[999,937],[999,1021],[999,1104],[999,1188],[999,1271],[52.9,1354],[52.5,1438],[52.4,1521],[52.4,1604],[52.4,1687],[52.4,1771],[52.4,1853],[52.4,1932],[52.4,2021],[52.4,2104],[52.4,2187],[52.4,2270],[52.4,2354],[52.4,2437],[52.4,2520],[52.4,2599],[52.4,2687],[52.4,2771],[52.4,2849],[52.4,2932],[52.4,3021],[52.4,3099],[52.4,3187],[52.4,3270],[52.4,3354],[52.4,3438],[52.4,3520],[52.4,3603],[52.4,3682],[52.4,3768],[52.4,3853],[52.4,3933],[52.4,4020],[52.4,4103],[52.4,4187],[52.4,4270],[52.4,4349],[52.4,4432],[52.4,4520],[52.4,4603],[52.4,4683],[52.4,4770],[52.4,4849],[52.4,4937],[52.4,5020],[52.4,5099],[52.4,5186],[52.4,5269],[52.4,5353],[52.4,5437],[52.4,5516],[52.4,5599],[52.4,5686],[52.4,5770],[52.4,5853],[52.4,5936],[52.4,6020],[52.4,6099],[52.4,6187],[52.4,6266],[52.4,6356],[52.4,6433],[52.4,6516],[52.4,6604],[52.4,6687],[52.4,6770],[52.4,6853],[52.4,6937],[52.4,7019],[52.4,7103],[52.4,7186],[52.4,7270],[52.4,7354],[52.4,7435],[52.4,7516],[52.4,7604],[52.4,7686],[52.4,7770],[52.4,7849],[52.4,7937],[52.4,8020],[52.4,8101],[52.4,8186],[52.4,8270],[52.4,8353],[52.4,8436],[52.4,8520],[52.4,8603],[52.4,8687],[52.4,8768],[52.4,8853],[52.4,8933],[52.4,9020],[52.4,9103],[52.4,9185],[52.4,9270],[52.4,9353],[52.4,9437],[52.4,9516],[52.4,9603],[52.4,9685],[52.4,9770],[52.4,9853],[52.4,9937],[52.4,10020],[52.4,10099],[52.4,10187],[52.4,10270],[52.4,10349],[52.4,10437],[52.4,10520],[52.4,10599],[52.4,10686],[52.4,10771],[52.4,10849],[52.4,10937],[52.4,11020],[52.4,11099],[52.4,11187],[52.4,11266],[52.4,11349],[52.4,11437],[52.4,11520],[52.4,11603],[52.4,11687],[52.4,11770],[52.4,11853],[52.4,11937],[52.4,12016],[52.4,12104],[52.4,12187],[52.4,12270],[52.4,12351],[52.4,12437],[52.4,12520],[52.4,12599],[52.4,12686],[52.4,12770],[52.4,12854],[52.4,12937],[52.4,13020],[52.4,13099],[52.4,13187],[52.4,13270],[52.4,13349],[52.4,13437],[52.4,13520],[52.4,13604],[52.4,13686],[52.4,13766],[52.4,13849],[52.4,13937],[52.4,14020],[52.4,14103],[52.4,14187],[52.4,14266],[52.4,14353],[52.4,14433],[52.4,14520],[52.4,14603],[52.4,14683],[52.4,14770],[52.4,14854],[52.4,14937],[52.4,15020],[52.4,15103],[52.4,15187],[52.4,15266],[52.4,15349],[52.4,15437]]",1,0,973.0709,1093.3405,43.21034249,5.3068,"[{""rating"":43.21034248680829,""responseTime"":5.30680000001189}]",space,119.719,,1093.3406,All the time,100,1093.3553,,,[],,0,14,14,14,1,audio/Narrative8Situation5.wav,audio/Narrative7Situation5.wav,audio/Narrative6Situation5.wav,audio/Narrative5Situation5.wav,2,5,2,5,,,,,,,,,,,,,,,,,,,,,,,,,,,,,,,,,,,,,,,
,,,,,,65108d02742b73e5f03efb63,2024-02-08_13h26.45.836,group3.1-3.2-social-tom,2023.2.2,Win32,60.24096386,65c5074098b851296ff0b7ed,65c5439e937cc216a40053ed,,,,,,,,,,,,,,,,,,,,,,,,,,,,,1093.3557,2,audio/Narrative5Situation6.wav,1096.3695,,1096.3696,1102.0741,"[[999,0],[999,87],[999,171],[999,253],[999,337],[999,416],[999,504],[999,588],[999,666],[999,754],[999,833],[999,920],[999,1003],[999,1087],[999,1170],[999,1254],[999,1333],[999,1420],[999,1499],[999,1585],[999,1666],[999,1753],[999,1837],[999,1920],[999,1999],[999,2083],[999,2170],[999,2253],[999,2333],[999,2420],[999,2504],[999,2587],[999,2668],[999,2754],[999,2833],[999,2916],[999,3004],[999,3088],[999,3166],[999,3249],[999,3337],[999,3420],[999,3504],[999,3587],[999,3666],[999,3753],[999,3833],[999,3920],[999,4001],[999,4083],[999,4170],[999,4254],[999,4337],[999,4416],[999,4504],[999,4587],[999,4670],[999,4754],[999,4837],[999,4920],[999,5001],[999,5086],[999,5171],[999,5250],[999,5337],[999,5418],[999,5503],[999,5587],[999,5666]]",1,0,1102.0742,1104.974,48.52177133,2.0713,"[{""rating"":48.52177133257062,""responseTime"":2.071300000011888}]",space,2.3679,,1104.9741,Not at all,0,1104.9768,,,[],,0,15,15,15,1,audio/Narrative8Situation6.wav,audio/Narrative7Situation6.wav,audio/Narrative6Situation6.wav,audio/Narrative5Situation6.wav,2,3,2,3,,,,,,,,,,,,,,,,,,,,,,,,,,,,,,,,,,,,,,,
,,,,,,65108d02742b73e5f03efb63,2024-02-08_13h26.45.836,group3.1-3.2-social-tom,2023.2.2,Win32,60.24096386,65c5074098b851296ff0b7ed,65c5439e937cc216a40053ed,,,,,,,,,,,,,,,,,,,,,,,,,,,,,1104.9773,2,audio/Narrative5Situation7.wav,1108.9864,,1108.9864,1130.0247,"[[999,12],[999,83],[999,170],[999,253],[999,337],[999,421],[999,499],[999,587],[999,670],[999,749],[999,833],[999,916],[999,1004],[999,1088],[999,1166],[999,1253],[999,1337],[999,1418],[999,1504],[999,1583],[999,1666],[999,1754],[999,1833],[999,1921],[999,2002],[999,2083],[999,2170],[999,2250],[999,2337],[999,2416],[999,2504],[999,2587],[999,2671],[999,2754],[999,2837],[999,2916],[999,3003],[999,3088],[999,3170],[999,3253],[999,3333],[999,3420],[999,3504],[999,3585],[999,3671],[999,3750],[999,3837],[999,3920],[999,4004],[999,4085],[999,4166],[999,4253],[999,4333],[999,4420],[999,4504],[999,4583],[999,4670],[999,4754],[999,4837],[999,4921],[999,5004],[999,5087],[999,5171],[999,5254],[999,5338],[999,5421],[999,5503],[999,5583],[999,5670],[999,5750],[999,5833],[999,5920],[999,6004],[999,6087],[999,6166],[999,6253],[999,6333],[999,6416],[999,6504],[999,6587],[999,6671],[999,6753],[999,6837],[999,6920],[999,7001],[999,7083],[999,7170],[999,7250],[999,7337],[999,7420],[999,7500],[999,7587],[999,7670],[999,7754],[999,7837],[999,7920],[999,8005],[999,8088],[999,8166],[999,8253],[999,8337],[999,8420],[999,8504],[999,8586],[999,8670],[999,8750],[999,8837],[999,8917],[999,9004],[999,9087],[999,9171],[999,9253],[999,9334],[999,9421],[999,9503],[999,9587],[999,9666],[999,9750],[999,9837],[999,9920],[999,10003],[999,10087],[999,10170],[999,10254],[999,10337],[999,10420],[999,10504],[999,10585],[999,10671],[999,10752],[999,10833],[999,10920],[999,11003],[999,11087],[999,11171],[999,11254],[999,11337],[999,11421],[999,11504],[999,11587],[999,11671],[999,11753],[999,11837],[999,11916],[999,12000],[999,12083],[999,12166],[999,12254],[999,12333],[999,12420],[999,12504],[999,12587],[999,12671],[999,12754],[999,12837],[999,12916],[999,13000],[999,13087],[999,13171],[999,13252],[999,13338],[999,13421],[999,13504],[999,13583],[999,13671],[999,13752],[999,13837],[999,13918],[999,14002],[999,14087],[999,14170],[999,14254],[999,14333],[999,14420],[999,14500],[999,14587],[999,14671],[999,14755],[999,14837],[999,14916],[999,15004],[999,15086],[999,15167],[999,15254],[999,15337],[999,15418],[999,15500],[999,15587],[999,15670],[999,15753],[999,15833],[999,15917],[999,16000],[999,16083],[999,16166],[999,16250],[999,16333],[999,16418],[999,16500],[999,16584],[999,16667],[999,16754],[999,16838],[999,16921],[999,17004],[999,17087],[999,17171],[999,17254],[999,17338],[999,17422],[999,17504],[999,17587],[999,17666],[999,17754],[999,17836],[999,17920],[999,18004],[999,18088],[999,18171],[999,18254],[999,18338],[999,18421],[999,18504],[999,18588],[999,18672],[999,18752],[999,18838],[999,18920],[999,19000],[999,19087],[999,19173],[999,19255],[999,19337],[999,19421],[999,19500],[999,19587],[999,19671],[999,19754],[999,19833],[999,19921],[999,20008],[999,20083],[999,20170],[999,20254],[999,20337],[999,20421],[999,20505],[999,20588],[68.8,20671],[68.5,20754],[68.5,20837],[68.5,20921],[68.4,21004]]",1,0,1130.0249,1131.4913,62.47727635,0.8326,"[{""rating"":62.47727635103688,""responseTime"":0.8326000000090517}]",space,0.9173,,1131.4914,Not at all,0,1131.4929,,,[],,0,16,16,16,1,audio/Narrative8Situation7.wav,audio/Narrative7Situation7.wav,audio/Narrative6Situation7.wav,audio/Narrative5Situation7.wav,3,5,5,4,,,,,,,,,,,,,,,,,,,,,,,,,,,,,,,,,,,,,,,
,,,,,,65108d02742b73e5f03efb63,2024-02-08_13h26.45.836,group3.1-3.2-social-tom,2023.2.2,Win32,60.24096386,65c5074098b851296ff0b7ed,65c5439e937cc216a40053ed,,,,,,,,,,,,,,,,,,,,,,,,,,,,,1131.4933,2,audio/Narrative5Situation8.wav,1134.5036,,1134.5037,1143.3413,[],1,0,1143.3414,1181.1593,65.18506518,36.7906,"[{""rating"":65.18506517617966,""responseTime"":36.7905999999939}]",space,37.2682,,1181.1593,Half the time,50,1181.1619,,,[],,0,17,17,17,1,audio/Narrative8Situation8.wav,audio/Narrative7Situation8.wav,audio/Narrative6Situation8.wav,audio/Narrative5Situation8.wav,3,2,5,3,,,,,,,,,,,,,,,,,,,,,,,,,,,,,,,,,,,,,,,
,,,,,,65108d02742b73e5f03efb63,2024-02-08_13h26.45.836,group3.1-3.2-social-tom,2023.2.2,Win32,60.24096386,65c5074098b851296ff0b7ed,65c5439e937cc216a40053ed,,,,,,,,,,,,,,,,,,,,,,,,,,,,,1181.1623,2,audio/Narrative5Situation9.wav,1184.1715,,1184.1715,1223.7102,"[[56.3,6504],[54.8,6754],[65,6833],[51.1,6922],[48.5,7004],[48.5,7087],[47.9,7171],[46.8,7254],[41.9,7338],[40.5,7421],[39.7,7503],[39.5,7587],[47.5,7672],[58,7754],[58.9,7838],[58.9,7918],[58.9,8004],[58.9,8088],[58.9,8171],[58.9,8253],[58.9,8338],[59,8416],[57.6,8504],[56.3,8588],[53.7,8671],[53.3,8754],[53.3,8837],[53.3,8921],[73.5,11754],[88.5,11838],[69.8,12005],[79.2,12254],[79.2,12337],[78.4,12421],[71,12504],[79.2,13171],[79.2,13254],[79.2,13337],[79.2,13416],[79.2,13503],[79.2,13587],[79.2,13670],[79.2,13754],[79.2,13833],[79.2,13920],[79.2,14000],[79.2,14085],[79.2,14171],[79.2,14254],[79.2,14337],[79.2,14420],[79.2,14504],[79.2,14587],[79.2,14670],[79.2,14754],[79.2,14837],[79.2,14921],[79.2,15004],[79.2,15087],[79.2,15171],[79.2,15250],[79.2,15337],[79.2,15421],[79.2,15500],[77.7,15588],[77.7,15670],[77.7,15750],[77.7,15837],[77.7,15921],[77.7,16000],[77.7,16085],[77.7,16170],[77.7,16254],[77.7,16335],[77.7,16421],[77.7,16504],[77.7,16587],[77.7,16671],[77.7,16754],[77.7,16833],[77.7,16921],[77.7,17004],[77.7,17087],[77.7,17171],[77.7,17250],[77.7,17337],[77.7,17421],[77.7,17504],[77.7,17587],[77.7,17671],[77.7,17754],[77.7,17837],[77.7,17921],[77.7,18004],[77.7,18087],[77.7,18171],[77.7,18254],[77.7,18337],[77.7,18421],[77.7,18504],[77.7,18588],[77.7,18672],[77.7,18750],[77.7,18837],[77.7,18920],[77.7,19004],[77.7,19088],[77.7,19171],[77.7,19253],[77.7,19337],[77.7,19421],[77.7,19504],[77.7,19587],[77.7,19666],[77.7,19754],[77.7,19837],[77.7,19918],[77.5,20000],[77.3,20088],[77.3,20171],[77.3,20254],[77.3,20338],[77.2,20421],[77,20504],[77,20587],[77,20671],[77,20750],[76.6,20838],[98.9,21921],[17.4,24171],[17.4,24254],[19.1,24338],[7.2,24754],[6.3,24838],[31.1,24921],[47.8,25004],[49.9,25087],[49.9,25171],[50,25254],[59.1,25338],[63.4,25421],[68.1,25504],[68.1,25583],[68.1,25671],[68.1,25754],[68.1,25837],[68.1,25921],[68.1,26004],[68.1,26083],[68.1,26171],[68.1,26254],[68.1,26333],[68.1,26421],[68.1,26504],[68.1,26585],[66.8,26671],[66,26754],[66,26838],[66,26921],[66,27004],[66,27087],[66,27169],[66,27252],[66,27337],[66,27416],[66.3,27504],[71.8,27587],[64.9,27672],[63.5,27754],[63.5,27837],[63,27921],[62,28004],[61.5,28083],[61.5,28167],[61.1,28255],[60.4,28337],[60.4,28419],[60.4,28504],[60.4,28588],[60.4,28671],[60.4,28754],[60.4,28836],[60.4,28918],[60.4,29004],[60.4,29083],[60.4,29171],[59.7,29255],[59.3,29334],[59.3,29421],[59.3,29504],[59.3,29584],[59.3,29670],[59.3,29754],[59.3,29837],[59.3,29917],[59.3,30004],[59.3,30083],[59.3,30171],[59.3,30254],[59.3,30337],[59.3,30419],[59.3,30500],[59.3,30587],[59.3,30667],[59.3,30750],[59.3,30838],[59.3,30917],[59.3,31004],[59.3,31087],[59.3,31171],[59.3,31254],[59.3,31337],[59.3,31421],[59.3,31504],[59.3,31583],[59.3,31671],[59.3,31751],[59.3,31833],[59.3,31921],[59.3,32004],[59.3,32083],[59.3,32171],[59.3,32255],[59.3,32333],[59.3,32421],[59.3,32504],[59.3,32583],[59.3,32671],[59.3,32750],[59.3,32834],[59.3,32921],[59.3,33000],[59.3,33087],[59.3,33171],[59.3,33254],[59.3,33337],[59.3,33421],[59.3,33502],[59.3,33587],[59.3,33671],[59.3,33750],[59.3,33837],[59.3,33921],[59.3,34004],[59.3,34087],[59.3,34171],[59.3,34254],[59.3,34338],[59.3,34419],[59.3,34504],[59.3,34583],[59.3,34671],[59.3,34754],[59.3,34838],[59.3,34917],[59.3,35005],[59.3,35087],[59.3,35167],[59.3,35254],[59.3,35338],[59.3,35421],[59.3,35504],[59.3,35588],[59.3,35671],[59.3,35755],[59.3,35838],[59.3,35921],[59.3,36000],[59.3,36087],[59.3,36171],[59.3,36250],[59.3,36336],[59.3,36421],[59.3,36504],[59.3,36587],[59.3,36671],[59.3,36754],[59.3,36837],[59.3,36921],[59.3,37004],[59.3,37088],[59.3,37167],[59.3,37256],[59.3,37338],[59.3,37421],[59.3,37505],[59.3,37588],[59.3,37671],[59.3,37754],[59.3,37838],[59.3,37917],[59.3,38004],[59.3,38088],[59.3,38171],[59.3,38255],[59.3,38337],[59.3,38421],[59.3,38505],[59.3,38588],[59.3,38671],[59.3,38755],[59.3,38837],[59.3,38917],[59.3,39000],[59.3,39088],[59.3,39171],[59.3,39250],[59.3,39337],[59.3,39421],[59.3,39500]]",1,0,1223.7103,1228.0933,65.91408965,3.0067,"[{""rating"":65.91408964517203,""responseTime"":3.006700000003093}]",space,3.8479,,1228.0934,All the time,100,1232.5933,28.00508042,3.4495,"[{""rating"":28.00508041851366,""responseTime"":3.4494999999999436}]",space,0,18,18,18,1,audio/Narrative8Situation9.wav,audio/Narrative7Situation9.wav,audio/Narrative6Situation9.wav,audio/Narrative5Situation9.wav,3,2,4,3,,,3.9615,,,,,,,,,,,,,,,,,,,,,,,,,,,,,,,,,,,,
,,,,,,65108d02742b73e5f03efb63,2024-02-08_13h26.45.836,group3.1-3.2-social-tom,2023.2.2,Win32,60.24096386,65c5074098b851296ff0b7ed,65c5439e937cc216a40053ed,,,,,,,,,,,,,,,,,,,,,,,,,,,,,,,,,,,,,,,,,,,,,,,,,,,,,,,,,,,,,,,,,,,,,,,,1232.5936,1235.1725,space,2.0594,,1235.173,1255.0409,space,19.5457,,,,,,,,,,,,,,,,,,,,,,,,,,
,,,,,,65108d02742b73e5f03efb63,2024-02-08_13h26.45.836,group3.1-3.2-social-tom,2023.2.2,Win32,60.24096386,65c5074098b851296ff0b7ed,65c5439e937cc216a40053ed,,,,,,,,,,,,,,,,,,,,,,,,,,,,,1257.6384,1,audio/Narrative7Situation9.wav,1259.6446,,,,,,,1311.5791,1316.4951,66.2265189,4.5358,"[{""rating"":66.22651889607145,""responseTime"":4.535799999996925}]",space,4.3671,,1291.529,All the time,100,1311.579,99.86555872,16.8888,"[{""rating"":99.86555871774937,""responseTime"":16.88879999999699}]",space,,,,,,,,,,2,2,2,2,,,19.5008,,,,,,,,,,,,1255.0541,1257.6231,1259.6449,3,1291.5289,"[[999,0],[999,77],[999,166],[999,249],[999,332],[999,416],[999,497],[999,582],[999,665],[999,749],[999,832],[999,916],[999,999],[999,1082],[999,1165],[999,1249],[999,1332],[999,1415],[999,1498],[999,1582],[999,1665],[999,1749],[999,1832],[999,1915],[999,1998],[999,2082],[999,2166],[999,2249],[999,2332],[999,2415],[999,2494],[999,2582],[999,2661],[999,2749],[999,2832],[999,2915],[999,2999],[999,3080],[999,3166],[22,3250],[22,3332],[22,3415],[22,3495],[22,3581],[21.8,3665],[21.8,3746],[21.8,3832],[21.8,3915],[21.8,3994],[21.8,4081],[21.8,4165],[21.8,4244],[23.7,4332],[25,4416],[24.9,4749],[23.1,4832],[22.7,4915],[22.1,4999],[22.1,5082],[22.1,5165],[22.1,5249],[22.1,5328],[22.1,5415],[22.1,5498],[22.1,5582],[22.1,5661],[22.1,5748],[22.1,5828],[22.4,5915],[22.4,5999],[22.4,6078],[22.4,6165],[22.4,6249],[22.4,6332],[22.4,6415],[22.4,6494],[22.4,6578],[22.4,6665],[22.4,6749],[22.4,6832],[28.3,6916],[42.6,6999],[42.6,7082],[42.7,7165],[42.7,7244],[42.7,7332],[50.2,7416],[58.5,7499],[66.3,7582],[68.1,7661],[68.1,7744],[68.1,7832],[68.1,7913],[68.1,7998],[68.1,8082],[68,8166],[65.7,8249],[51.1,8334],[29.5,8415],[27.6,8499],[24.2,8583],[23.6,8661],[23.6,8749],[23.6,8832],[23.6,8915],[23.6,8998],[23.6,9082],[23.6,9163],[23.6,9245],[23.6,9332],[23.6,9416],[23.6,9499],[23.6,9582],[23.6,9665],[23.6,9748],[23.2,9832],[23,9915],[23,9994],[23,10082],[23,10166],[23,10249],[23,10332],[23,10416],[22.7,10495],[22.6,10582],[22.6,10665],[22.6,10745],[22.6,10832],[22.6,10915],[22.6,10998],[22.6,11078],[20.4,11165],[20.4,11249],[20.4,11332],[20,11416],[19.7,11499],[19.7,11582],[19.7,11665],[19.7,11749],[19.7,11832],[19.7,11915],[19.7,11999],[19.7,12082],[19.2,12165],[19.2,12244],[19.2,12330],[19.2,12415],[19.2,12499],[19.2,12578],[19.2,12666],[19.2,12749],[19.2,12832],[19.2,12915],[19.2,12995],[19.2,13082],[19.2,13165],[19.2,13249],[19.2,13332],[19.2,13415],[19.2,13494],[19.2,13581],[19.2,13666],[19.2,13745],[19.2,13832],[19.2,13915],[19.2,13999],[19.2,14083],[19.2,14166],[21.1,14249],[25.2,14332],[25.2,14415],[25.2,14499],[25.2,14583],[32,14666],[34.7,14749],[46.1,14832],[61.9,14916],[65.9,14999],[65.9,15078],[65.9,15163],[65.9,15249],[65.9,15332],[65.9,15416],[65.9,15495],[65.9,15580],[65.9,15665],[65.9,15744],[59.3,15832],[47.9,15915],[41.4,16000],[41,16082],[41,16165],[40,16249],[13.6,16332],[10.1,16415],[10.1,16498],[10.1,16582],[13.8,16666],[21.1,16750],[30.2,16833],[33.5,16915],[33.5,16999],[33.5,17078],[33.5,17165],[35.7,17249],[52.2,17333],[61.1,17416],[62.3,17499],[62.3,17578],[62.3,17665],[62.3,17745],[62.3,17832],[62.3,17915],[62.3,17999],[62.3,18081],[62.3,18166],[62.2,18249],[62.2,18332],[62.2,18416],[62.2,18495],[62.2,18582],[62.2,18665],[62.2,18749],[62.2,18828],[62.2,18915],[62.2,18999],[62.2,19082],[62.2,19165],[62.2,19249],[62.2,19332],[62.2,19415],[62.2,19500],[62.2,19582],[62.2,19665],[62.2,19749],[62.2,19828],[62.2,19915],[62.2,19999],[62.2,20082],[62.2,20161],[62.2,20245],[62.2,20328],[62.2,20416],[62.2,20499],[23.3,21582],[23.8,21666],[28.3,21749],[35.2,21832],[35,21916],[30.6,21999],[24.6,22083],[24,22163],[23.7,22249],[22.3,22333],[19.7,22416],[19.3,22499],[19.3,22583],[19.3,22666],[19.3,22749],[19.3,22832],[19.3,22916],[19.3,22997],[19.3,23082],[19.3,23165],[19.3,23249],[19.3,23332],[19.3,23416],[19.3,23499],[19.3,23582],[19.3,23665],[19.3,23749],[19.3,23832],[19.3,23916],[19.3,23999],[19.3,24082],[19.3,24162],[19.3,24249],[19.3,24332],[19.6,24416],[35.6,24499],[46.1,24582],[48.5,24668],[48.7,24745],[55.1,24833],[72.7,24916],[72.7,24999],[72.1,25083],[71.5,25166],[71.4,25249],[71.4,25333],[71.4,25415],[71.4,25499],[71.4,25583],[71.4,25663],[71.4,25749],[71.3,25832],[71.3,25912],[71.3,25999],[71.3,26082],[64.8,26166],[45.7,26250],[19.9,26500],[18.8,26583],[18.8,26665],[18.9,26749],[18.9,26832],[18.9,26916],[18.8,26995],[18.8,27082],[18.8,27166],[18.8,27249],[27.6,27333],[37.7,27417],[56.1,27499],[75.3,27583],[75.7,27663],[76,27749],[76,27833],[75.8,27916],[75.8,27999],[75.8,28078],[75.8,28165],[75.7,28249],[76,28333],[76,28415],[76,28499],[76,28578],[76,28665],[76,28749],[76,28833],[76,28916],[76,29000],[76,29082],[76,29165],[76,29249],[76,29332],[76,29416],[76,29495],[76,29582],[76,29666],[76,29745],[76,29832],[76,29916],[76,29995],[76,30082],[76,30166],[76,30249],[76,30332],[76,30416],[76,30495],[76,30582],[76,30666],[76,30745],[76,30832],[76,30915],[76,30999],[76,31078],[76,31161],[76,31249],[76,31332],[76,31412],[76,31502],[76,31583],[76,31666],[76,31747],[76,31832]]",0,0,0,0,1,"Larry had recently lost his family, job and home, and was now living on his own in the park. He had most of his belongings, including some clothes, a blanket, and his mother’s special necklace. His family had been very important to him and he felt as though he did not have much going for him. One of his first days in the park he came across a family that did not have much food and looked very cold. He decided to give them some of his food and his blanket.","Larry had recently lost his family, job and home, and was now living on his own in the park. He had most of his belongings, including some clothes, a blanket, and his mother’s special necklace. His family had been very important to him and he felt as though he did not have much going for him. One of his first days in the park he came across a family that did not have much food and looked very cold. He decided to give them some of his food and his blanket.","Larry had recently lost his family, job and home, and was now living on his own in the park. He had most of his belongings, including some clothes, a blanket, and his mother’s special necklace. His family had been very important to him and he felt as though he did not have much going for him. One of his first days in the park he came across a family that did not have much food and looked very cold. He decided to give them some of his food and his blanket.","Larry had recently lost his family, job and home, and was now living on his own in the park. He had most of his belongings, including some clothes, a blanket, and his mother’s special necklace. His family had been very important to him and he felt as though he did not have much going for him. One of his first days in the park he came across a family that did not have much food and looked very cold. He decided to give them some of his food and his blanket.",,,,,,,,,,
,,,,,,65108d02742b73e5f03efb63,2024-02-08_13h26.45.836,group3.1-3.2-social-tom,2023.2.2,Win32,60.24096386,65c5074098b851296ff0b7ed,65c5439e937cc216a40053ed,,,,,,,,,,,,,,,,,,,,,,,,,,,,,1316.4961,1,audio/Narrative7Situation9.wav,1319.3578,space,,,,,,1343.2239,1402.5599,68.41358086,9.4903,"[{""rating"":68.41358086126834,""responseTime"":9.490299999996978}]",space,58.8052,,1343.2124,Not at all,0,1343.2239,,,[],,,,,,,,,,,6,2,3,9,2.8414,,,,,,,,,,,,,,,,1319.3579,3,1343.2124,"[[999,0],[999,86],[999,166],[999,251],[999,337],[999,420],[999,503],[999,583],[999,671],[999,753],[999,837],[999,920],[999,1004],[999,1087],[999,1167],[999,1249],[999,1336],[999,1420],[999,1504],[999,1587],[999,1670],[999,1749],[999,1833],[999,1919],[999,2003],[999,2087],[999,2166],[999,2253],[999,2336],[999,2420],[999,2503],[999,2586],[999,2670],[999,2749],[999,2837],[999,2916],[999,3003],[999,3083],[999,3170],[999,3253],[999,3333],[999,3420],[999,3503],[999,3583],[999,3670],[999,3753],[999,3833],[999,3920],[999,4003],[999,4086],[999,4170],[999,4251],[999,4333],[999,4420],[999,4503],[999,4586],[999,4670],[999,4749],[999,4837],[999,4920],[999,5000],[999,5086],[999,5171],[999,5253],[999,5337],[999,5421],[999,5506],[999,5587],[999,5671],[67.1,5754],[67.5,5838],[67.9,5921],[67.7,6005],[67.3,6087],[66,6171],[57.3,6253],[69.6,6337],[35,6421],[32.1,6671],[27.5,6920],[68.2,7087],[32.7,7171],[62.1,7254],[62.9,7337],[34.1,7421],[65.9,7504],[71.6,7587],[22.8,7670],[68.6,7754],[63,7837],[78.9,8004],[90,8087],[49.5,8254],[58.5,8333],[27.1,8421],[57.2,8504],[53.9,8587],[9.8,8670],[46.9,8754],[49.3,8837],[16.7,8921],[29.5,9171],[78,9254],[83.7,9337],[46.9,9504],[75.2,9588],[48.1,10837],[48.1,10920],[39.6,11005],[35.4,11087],[32.2,11171],[26.7,11254],[25.6,11338],[25.5,11420],[25.5,11500],[23.4,11587],[17.3,11671],[14.7,11755],[9.1,11837],[9.1,11920],[19.1,12004],[35.3,12087],[51.9,12171],[63,12254],[71.1,12337],[81.1,12421],[89.2,12504],[89.4,12587],[84.4,12671],[49.4,12754],[23,12837],[13.2,12920],[4.2,13005],[3.9,13087],[7.9,13171],[32.7,13254],[51.5,13337],[65.3,13421],[76.7,13504],[82.1,13587],[82.1,13670],[82.1,13754],[56,13837],[28.4,13920],[17.5,14004],[6.3,14087],[2,14171],[1.8,14250],[21.9,14338],[49.8,14421],[69.5,14504],[79.9,14588],[85,14671],[85,14750],[85,14837],[85,14920],[49.9,15004],[31.1,15088],[17.4,15171],[10.4,15254],[10.4,15333],[42.2,15421],[72.3,15504],[87.5,15588],[89,15670],[89,15753],[89,15833],[47.6,15920],[29.5,16004],[23.8,16088],[24.7,16171],[57.9,16254],[90.5,16337],[94.5,16421],[94.4,16500],[65.3,16588],[33.6,16671],[25.5,16754],[19.2,16837],[18.4,16916],[28.7,17004],[54.9,17088],[70.2,17171],[77.9,17254],[81.9,17338],[89.3,17421],[89.8,17500],[89.8,17587],[89.5,17670],[87.3,17754],[82.8,17837],[74.5,17920],[56.6,18005],[40,18088],[30.2,18171],[23,18255],[21.7,18337],[21.7,18416],[21.7,18504],[21.7,18583],[21.7,18669],[21.7,18754],[21.7,18837],[21.7,18916],[21.7,19004],[21.7,19088],[22.4,19171],[37.4,19254],[49.7,19338],[54,19421],[64.4,19504],[77.1,19588],[79.1,19666],[79.1,19754],[78.9,19837],[78.9,19920],[78.9,20004],[78.9,20083],[78.9,20170],[78.9,20254],[78.9,20333],[78.9,20420],[78.9,20500],[78.9,20587],[78.9,20666],[78.9,20752],[78.9,20838],[78.9,20920],[78.9,21004],[78.9,21087],[78.9,21167],[78.9,21250],[78.9,21337],[78.9,21421],[78.9,21500],[78.9,21587],[78.9,21666],[78.9,21754],[78.9,21838],[78.9,21920],[78.9,22000],[78.9,22083],[78.9,22171],[78.9,22254],[78.9,22334],[78.9,22420],[78.9,22504],[78.9,22587],[78.9,22670],[78.9,22752],[78.9,22835],[78.9,22921],[78.9,23004],[78.9,23087],[78.9,23166],[78.9,23250],[78.9,23337],[78.9,23420],[78.9,23504],[78.9,23587],[78.9,23671],[78.9,23754],[78.9,23837]]",0,1,1,1,1,"It was just another Sunday afternoon for Lucy, she was on her way to the farmer's market to pick up some produce. When she arrived at the old train depot that housed the market, she noticed two men fighting on the steps. Before she could call for help, one of the men crumpled to his knees. The other man dropped an object that appeared to be a knife and ran off. When Lucy approached the crime scene she realized that the man who had been murdered was the Mayor and that he had a gunshot wound.","One day at work, Margaret walked up to her partner, Al, to ask him to talk to the chief of staff at the local hospital where she worked as a nurse.","Luke always thought of himself as an honest man. That's why during his evening jog around the swamp, he pondered his recent affair with the receptionist at work. Luke looked up at the sky and asked God why he was so weak and unfaithful. He thought of the impact this would have on his family and told God of his conflicted feelings toward telling his wife Marta.","Linda and Amy had been best friends since kindergarten, they even found homes on the same street in the forest on the edge of town. Their biggest fight had been over who gets the bigger slice of cake, until Amy married Dan. Linda loathed Dan, she thought he was manipulative and had a violent temper. She only put up with him because Amy loved him. ",,,,,,,,,,
,,,,,,65108d02742b73e5f03efb63,2024-02-08_13h26.45.836,group3.1-3.2-social-tom,2023.2.2,Win32,60.24096386,65c5074098b851296ff0b7ed,65c5439e937cc216a40053ed,,,,,,,,,,,,,,,,,,,,,,,,,,,,,1402.5825,1,audio/Narrative7Situation9.wav,1407.5938,,,,,,,1433.7813,1436.2268,72.37112102,1.5338,"[{""rating"":72.37112101534939,""responseTime"":1.5337999999969725}]",space,1.9092,,1433.7775,All the time,100,1433.7813,,,[],,,,,,,,,,,4,5,2,2,,,,,,,,,,,,,,,,,1407.594,3,1433.7774,"[[999,20],[999,99],[999,182],[999,266],[999,348],[999,432],[999,515],[999,599],[999,682],[51.4,766],[52.9,849],[61.2,932],[66,1016],[66.3,1098],[51.3,1182],[46.8,1265],[54.8,1349],[50.7,1432],[26.1,1516],[49,1599],[61.5,1683],[20.9,1766],[45.6,1849],[60.4,1932],[28,2016],[34.7,2266],[23.8,2515],[76.2,2682],[34.1,2766],[84.8,2849],[42.3,2932],[35.1,3016],[72,3099],[57.9,3265],[75.3,3516],[72,3766],[20.6,3932],[84.5,4015],[27.6,4099],[37.1,4182],[22.1,4349],[51.1,4433],[92,4516],[27.5,4600],[46.8,4682],[79.1,4765],[28.9,4849],[54.7,4932],[84.1,5015],[81.6,5266],[76.8,5349],[48.1,8600],[41.7,8682],[40.4,8765],[40.4,8849],[40.2,8932],[33.7,9017],[26.5,9099],[26.5,9182],[26.5,9265],[26.5,9349],[26.5,9432],[26.5,9516],[26.5,9599],[26.5,9682],[26.5,9765],[26.5,9848],[26.5,9932],[26.5,10016],[27.5,10099],[39.9,10182],[66.1,10265],[68.1,10349],[68.1,10432],[68.1,10515],[68.1,10599],[68.1,10682],[68.1,10765],[68.1,10849],[68.1,10932],[68.1,11015],[68.1,11099],[68.1,11182],[68.1,11265],[68.1,11349],[68.1,11432],[67.9,11516],[67.9,11599],[67.9,11682],[67.9,11765],[67.9,11849],[67.9,11932],[67.9,12015],[67.9,12099],[67.9,12182],[67.9,12265],[67.9,12349],[67.9,12432],[67.9,12515],[67.9,12599],[67.9,12682],[67.9,12765],[67.8,12849],[66.4,12933],[66.4,13015],[66.4,13099],[66.4,13182],[66.4,13266],[66.4,13349],[66.4,13432],[66.4,13515],[66.4,13599],[66.4,13682],[66.4,13765],[66.4,13849],[66.4,13932],[66.4,14016],[66.4,14099],[66.4,14182],[66.4,14265],[66.4,14349],[66.4,14432],[66.4,14516],[66.4,14599],[66.4,14682],[66.4,14765],[66.4,14849],[66.4,14932],[66,15016],[66,15099],[66,15182],[66,15265],[62.6,15349],[61.6,15433],[56.5,15516],[52,15600],[50.3,15682],[50.3,15765],[50.3,15849],[50.3,15932],[50.3,16016],[49.4,16100],[49.1,16182],[49.1,16266],[49.1,16349],[49.1,16432],[48.3,16516],[39.6,16600],[36.4,16683],[30.6,16766],[25.8,16849],[23.2,16933],[19.9,17015],[19.9,17099],[19.9,17182],[19.9,17265],[19.5,17349],[19,17432],[19,17516],[19,17599],[18.9,17682],[19.2,17766],[19.3,17849],[19.3,17932],[19.3,18016],[19.3,18099],[19.3,18182],[19.3,18266],[19.3,18349],[19.3,18432],[19.3,18516],[19.3,18599],[19.3,18682],[19.3,18766],[19.3,18849],[19.3,18932],[19.3,19016],[19.3,19099],[19.3,19182],[19.3,19266],[19.3,19349],[19.3,19432],[19.3,19515],[19.3,19599],[19.3,19682],[19.3,19765],[19.3,19849],[19.3,19932],[19.3,20016],[19.3,20099],[19.3,20182],[19.3,20265],[19.3,20349],[20.8,20433],[23.1,20517],[26.8,20599],[32.3,20682],[35.3,20766],[37.8,20849],[38.3,20932],[38.3,21016],[38.3,21099],[38.3,21182],[38.3,21266],[38.3,21349],[38.3,21432],[38.3,21516],[38.3,21599],[38.3,21682],[38.3,21766],[38.3,21849],[38.3,21932],[38.3,22016],[38.3,22099],[38.3,22182],[38.3,22266],[38.3,22349],[38.3,22432],[38.3,22516],[38.3,22599],[38.3,22682],[38.3,22766],[38.3,22849],[38.3,22932],[38.3,23016],[38.3,23099],[38.3,23182],[38.3,23266],[38.2,23349],[38.2,23432],[38.2,23516],[38.2,23599],[38.2,23682],[38.2,23766],[38.2,23849],[38.2,23932],[38.2,24016],[38.2,24099],[38.2,24182],[38.2,24266],[38.2,24349],[38.2,24432],[38.2,24515],[38.2,24599],[38.2,24682],[38.2,24766],[38.2,24849],[38.2,24932],[38.2,25015],[38.2,25099],[38.2,25182],[38.2,25266],[38.2,25349],[38.2,25432],[43.2,25517],[49,25599],[55.8,25683],[61.2,25766],[70.1,25850],[71.5,25932],[71.5,26015],[71.5,26099],[71.3,26183]]",0,2,2,2,1,On the ground beside him was a pen that she had mistaken for a knife. Lucy looked for the gunman and saw a suspicious man in black with distinct pointy features darting into an alley across the street. Cops who were nearby chased the man who had fled and arrested him.,"While waiting outside the chief of staff's office, Al heard nondescript shouting and yelling, there was a loud clatter in the room and then an eerie silence. An unfamiliar employee ran hastily out of the office with a terrified look on their face.","Suddenly, Luke heard a woman call out his name and when he turned around he saw Carly, his receptionist, across the road with a gun in her hand. Carly ran to him and explained how she had followed him here to confess her love. She exclaimed if Luke didn't love her back that she would kill him and his family. Carly explained that the only way they could be together is to kill Marta.","This feeling of hate between Amy and Dan was mutual, Dan didn't like how much time his wife spent with her and thought Amy was creating distance between their marriage. That's why Dan decided to try and tarnish Linda's reputation with his wife, in hopes it would get rid of her. He came home one afternoon and exclaimed that Linda had tried to kiss him. Amy was taken aback and immediately called Linda to confront her about these accusations. When Linda arrived she denied having made a move on Dan, but discovered Dan had enlisted the help of his friend Will who said he witnessed it all happen.",,,,,,,,,,
,,,,,,65108d02742b73e5f03efb63,2024-02-08_13h26.45.836,group3.1-3.2-social-tom,2023.2.2,Win32,60.24096386,65c5074098b851296ff0b7ed,65c5439e937cc216a40053ed,,,,,,,,,,,,,,,,,,,,,,,,,,,,,1436.2272,1,audio/Narrative7Situation9.wav,1438.2436,,,,,,,1460.7752,1464.3986,63.93532529,2.7471,"[{""rating"":63.93532528902163,""responseTime"":2.747099999994134}]",space,3.0847,,1460.761,Not at all,0,1460.7752,,,[],,,,,,,,,,,2,2,1,4,,,,,,,,,,,,,,,,,1438.2437,3,1460.7609,"[[67.5,666],[30,750],[7.9,833],[22.1,916],[50.3,1000],[71.8,1250],[51.5,1333],[31.1,1417],[69.1,1500],[63.4,1583],[34,1666],[76.8,1750],[67.9,1834],[30.4,1917],[34.8,2167],[44.8,2417],[65.4,4751],[54.4,4834],[48.8,4917],[49.6,4999],[61.3,5083],[58.7,5167],[41.5,5250],[50,5417],[18.9,5499],[72.8,5583],[51.9,5667],[30,5750]]",0,3,3,3,1,"But Lucy knew the charged man was innocent, which meant the killer was free. Lucy vowed to find out who the real murderer was and to stop him at all costs.","Al explained to the chief of staff that Margaret wanted to be excused from her absences last week. The chief of staff, Susan, revealed that she wanted to fire Margaret and never see her again. Susan and Al had been having an affair and she wanted Margaret ""out of the picture"". Al was conflicted, but agreed it would be for the best.","Luke thought of his child and felt like this was his only option. He agreed to the plan and called his wife to meet him at the swamp to watch the sunset with him. When she arrived, Marta called out for her husband, but found Carly waiting for her. She immediately drew her gun and shot her in the chest, knocking her unconscious.","Since it was their word against her own, she decided to go home and admit defeat. She knew how much it would hurt Amy to know the truth.",,,,,,,,,,
