exp_question,consent.started,consent.stopped,consentResponse.keys,consentResponse.rt,consentResponse.duration,participantID,date,expName,psychopyVersion,OS,frameRate,STUDY_ID,SESSION_ID,opening1.started,opening1.stopped,keyEndingOpening1.keys,keyEndingOpening1.rt,keyEndingOpening1.duration,volumeAdjust.started,volumeAdjust.stopped,endingAdjust.keys,endingAdjust.rt,endingAdjust.duration,opening2.started,opening2.stopped,keyEndingOpening.keys,keyEndingOpening.rt,keyEndingOpening.duration,mouse.x,mouse.y,mouse.leftButton,mouse.midButton,mouse.rightButton,mouse.time,instructionLoop.thisRepN,instructionLoop.thisTrialN,instructionLoop.thisN,instructionLoop.thisIndex,instructionLoop.ran,readyForAudio.started,readyForAudio.stopped,fixation.started,run,audio_played,fixation.stopped,endPractice.keys,audioPre.started,audioPre.stopped,continuousResponses_audio,continuousSlider.response,continuousSlider.rt,intRating.started,intRating.stopped,intQuestionSlider.response,intQuestionSlider.rt,intQuestionSlider.history,confirmResponse.keys,confirmResponse.rt,confirmResponse.duration,catchQuestion.started,catch_label,catch_value,catchQuestion.stopped,catchQuestionSlider.response,catchQuestionSlider.rt,catchQuestionSlider.history,confirmResponse_2.keys,audioRunLoop.thisRepN,audioRunLoop.thisTrialN,audioRunLoop.thisN,audioRunLoop.thisIndex,audioRunLoop.ran,conditions1_1,conditions2_1,conditions1_2,conditions2_2,dur1_1,dur2_1,dur1_2,dur2_2,endPractice.rt,endPractice.duration,confirmResponse_2.rt,confirmResponse_2.duration,runIntervalBreak.started,runIntervalBreak.stopped,endingBreakKey.keys,endingBreakKey.rt,endingBreakKey.duration,connection.started,connection.stopped,connectionEnding.keys,connectionEnding.rt,connectionEnding.duration,readyForText.started,readyForText.stopped,textPre.started,run_dup,textPre.stopped,continuousResponses_text,textRunLoop.thisRepN,textRunLoop.thisTrialN,textRunLoop.thisN,textRunLoop.thisIndex,textRunLoop.ran,text1_1,text1_2,text2_1,text2_2,runBreakText.started,runBreakText.stopped,endingBreakKey_2.keys,endingBreakKey_2.rt,endingBreakKey_2.duration,ending.started,ending.stopped,endingEnding.keys,endingEnding.rt,endingEnding.duration
social,0.0002,14.0626,y,13.7424,,651c68265a8d5b5c6d589acf,2024-02-08_13h05.18.575,group3.1-3.2-social-tom,2023.2.2,MacIntel,59.99880002,65c5074098b851296ff0b7ed,65c5414acb0985acfd94fadc,,,,,,,,,,,,,,,,,,,,,,,,,,,,,,,,,,,,,,,,,,,,,,,,,,,,,,,,,,,,,,,,,,,,,,,,,,,,,,,,,,,,,,,,,,,,,,,,,,,,,,,,,,
,,,,,,651c68265a8d5b5c6d589acf,2024-02-08_13h05.18.575,group3.1-3.2-social-tom,2023.2.2,MacIntel,59.99880002,65c5074098b851296ff0b7ed,65c5414acb0985acfd94fadc,14.0631,19.1785,space,5.0966,,,,,,,,,,,,,,,,,,,,,,,,,,,,,,,,,,,,,,,,,,,,,,,,,,,,,,,,,,,,,,,,,,,,,,,,,,,,,,,,,,,,,,,,,,,,,,,,,,,,,,
,,,,,,651c68265a8d5b5c6d589acf,2024-02-08_13h05.18.575,group3.1-3.2-social-tom,2023.2.2,MacIntel,59.99880002,65c5074098b851296ff0b7ed,65c5414acb0985acfd94fadc,,,,,,19.1786,42.1471,space,22.6576,,,,,,,,,,,,,,,,,,,,,,,,,,,,,,,,,,,,,,,,,,,,,,,,,,,,,,,,,,,,,,,,,,,,,,,,,,,,,,,,,,,,,,,,,,,,,,,,,
,,,,,,651c68265a8d5b5c6d589acf,2024-02-08_13h05.18.575,group3.1-3.2-social-tom,2023.2.2,MacIntel,59.99880002,65c5074098b851296ff0b7ed,65c5414acb0985acfd94fadc,,,,,,,,,,,42.1544,51.4998,space,9.3213,,[],[],[],[],[],[],0,0,0,0,1,,,,,,,,,,,,,,,,,,,,,,,,,,,,,,,,,,,,,,,,,,,,,,,,,,,,,,,,,,,,,,,,,,,,,,,,,,,,,,,,
,,,,,,651c68265a8d5b5c6d589acf,2024-02-08_13h05.18.575,group3.1-3.2-social-tom,2023.2.2,MacIntel,59.99880002,65c5074098b851296ff0b7ed,65c5414acb0985acfd94fadc,,,,,,,,,,,51.5009,77.0494,space,25.4132,,[],[],[],[],[],[],1,0,1,0,1,,,,,,,,,,,,,,,,,,,,,,,,,,,,,,,,,,,,,,,,,,,,,,,,,,,,,,,,,,,,,,,,,,,,,,,,,,,,,,,,
,,,,,,651c68265a8d5b5c6d589acf,2024-02-08_13h05.18.575,group3.1-3.2-social-tom,2023.2.2,MacIntel,59.99880002,65c5074098b851296ff0b7ed,65c5414acb0985acfd94fadc,,,,,,,,,,,77.0499,97.4013,space,20.3019,,[],[],[],[],[],[],2,0,2,0,1,,,,,,,,,,,,,,,,,,,,,,,,,,,,,,,,,,,,,,,,,,,,,,,,,,,,,,,,,,,,,,,,,,,,,,,,,,,,,,,,
,,,,,,651c68265a8d5b5c6d589acf,2024-02-08_13h05.18.575,group3.1-3.2-social-tom,2023.2.2,MacIntel,59.99880002,65c5074098b851296ff0b7ed,65c5414acb0985acfd94fadc,,,,,,,,,,,97.4026,122.0408,space,24.6199,,[],[],[],[],[],[],3,0,3,0,1,,,,,,,,,,,,,,,,,,,,,,,,,,,,,,,,,,,,,,,,,,,,,,,,,,,,,,,,,,,,,,,,,,,,,,,,,,,,,,,,
,,,,,,651c68265a8d5b5c6d589acf,2024-02-08_13h05.18.575,group3.1-3.2-social-tom,2023.2.2,MacIntel,59.99880002,65c5074098b851296ff0b7ed,65c5414acb0985acfd94fadc,,,,,,,,,,,122.0411,143.1724,space,21.113,,[],[],[],[],[],[],4,0,4,0,1,,,,,,,,,,,,,,,,,,,,,,,,,,,,,,,,,,,,,,,,,,,,,,,,,,,,,,,,,,,,,,,,,,,,,,,,,,,,,,,,
,,,,,,651c68265a8d5b5c6d589acf,2024-02-08_13h05.18.575,group3.1-3.2-social-tom,2023.2.2,MacIntel,59.99880002,65c5074098b851296ff0b7ed,65c5414acb0985acfd94fadc,,,,,,,,,,,,,,,,,,,,,,,,,,,143.1766,145.7579,145.793,1,audio/Narrative13Situation2.wav,147.8048,,147.8052,177.5407,"[[999,3],[999,101],[999,181],[999,265],[999,348],[999,432],[999,532],[999,648],[999,718],[999,800],[999,885],[999,968],[999,1059],[999,1148],[999,1236],[999,1315],[999,1400],[999,1489],[999,1569],[999,1648],[999,1732],[999,1818],[999,1898],[999,1982],[999,2065],[999,2149],[999,2232],[999,2315],[999,2399],[999,2481],[999,2565],[999,2648],[999,2735],[999,2816],[999,2898],[999,2983],[999,3067],[999,3149],[999,3232],[999,3318],[999,3398],[999,3482],[999,3566],[999,3649],[999,3732],[999,3816],[999,3899],[999,3983],[999,4066],[999,4151],[999,4236],[999,4315],[999,4399],[999,4486],[999,4566],[999,4649],[999,4732],[999,4816],[999,4899],[999,4983],[999,5066],[999,5152],[999,5232],[999,5316],[999,5419],[999,5482],[999,5569],[999,5649],[999,5732],[999,5815],[999,5899],[999,5982],[999,6068],[999,6148],[999,6234],[999,6317],[999,6401],[999,6486],[999,6567],[999,6650],[999,6733],[999,6815],[999,6899],[57.1,6983],[56.7,7068],[53.5,7157],[49.3,7232],[49.2,7317],[49.6,7403],[50.6,7483],[57.6,7568],[59.6,7649],[59.6,7735],[59.6,7819],[59.6,7899],[59.6,7983],[59.6,8066],[59.6,8150],[59.6,8232],[59.6,8315],[59.6,8399],[59.6,8482],[59.6,8569],[59.6,8650],[59.6,8732],[59.6,8816],[60.1,8901],[61.7,8984],[62.7,9067],[63.2,9149],[63.2,9233],[63.2,9323],[63.2,9399],[63.2,9482],[63.2,9565],[63.2,9649],[63.2,9733],[63.2,9819],[63.2,9899],[63.2,9983],[63.2,10067],[63.2,10149],[63.2,10237],[63.2,10316],[63.2,10405],[63.2,10485],[63.2,10566],[63.2,10649],[71.9,10733],[91.6,10816],[100,10899],[100,10983],[100,11066],[100,11151],[100,11233],[100,11317],[100,11400],[100,11481],[100,11566],[100,11649],[100,11732],[100,11818],[100,11900],[100,11983],[100,12066],[100,12149],[100,12232],[100,12317],[100,12399],[100,12485],[100,12566],[100,12649],[100,12732],[100,12816],[100,12900],[100,12983],[100,13067],[100,13151],[100,13234],[100,13317],[100,13402],[100,13483],[100,13566],[100,13651],[100,13733],[100,13818],[100,13899],[100,13983],[100,14066],[100,14149],[100,14234],[100,14316],[100,14400],[100,14483],[100,14567],[100,14650],[100,14733],[100,14816],[100,14900],[100,14983],[100,15066],[100,15149],[100,15233],[100,15319],[100,15403],[100,15483],[100,15567],[100,15650],[100,15733],[100,15816],[100,15900],[100,15983],[100,16067],[100,16150],[100,16232],[100,16316],[100,16399],[100,16485],[100,16566],[100,16650],[100,16737],[100,16818],[100,16900],[100,16983],[100,17066],[100,17150],[100,17233],[100,17317],[100,17402],[100,17483],[100,17567],[100,17650],[100,17733],[100,17819],[100,17900],[100,17985],[97.2,18066],[88,18148],[80.8,18235],[73.2,18317],[68.2,18400],[65.9,18487],[65.9,18566],[65.9,18650],[65.5,18733],[55.5,18817],[48.5,18901],[48.1,18983],[47.7,19067],[47.6,19151],[47.6,19233],[47.6,19317],[47.6,19400],[47.6,19483],[47.6,19567],[47.6,19650],[47.6,19734],[47.6,19816],[43.1,19900],[37.7,19983],[36.9,20067],[36.5,20150],[36.5,20234],[36.5,20317],[36.5,20399],[36.6,20483],[36.6,20567],[36.6,20650],[36.6,20733],[36.6,20816],[36.6,20901],[36.6,20983],[36.6,21066],[36.6,21150],[36.6,21233],[36.6,21317],[36.6,21402],[36.6,21483],[36.6,21569],[36.6,21650],[36.6,21733],[36.6,21818],[36.6,21900],[36.6,21983],[36.6,22066],[36.6,22149],[36.6,22234],[36.6,22317],[36.6,22400],[36.6,22483],[36.6,22567],[36.6,22650],[36.6,22736],[36.6,22817],[36.7,22900],[36.7,22983],[36.7,23067],[36.7,23151],[36.7,23234],[36.7,23317],[36.7,23403],[36.7,23483],[36.7,23571],[36.7,23653],[36.7,23733],[36.9,23820],[36.9,23900],[36.9,23984],[36.9,24067],[36.9,24150],[36.9,24235],[36.9,24319],[36.9,24403],[36.9,24485],[36.9,24567],[36.9,24650],[37.8,24733],[48,24819],[61.6,24906],[70.3,24983],[73.1,25066],[74.7,25151],[74.9,25234],[74.9,25317],[74.9,25403],[74.9,25483],[74.9,25568],[74.9,25653],[75.2,25734],[78.8,25819],[88.2,25901],[93.8,25984],[100,26074],[100,26152],[100,26235],[100,26320],[100,26401],[100,26486],[100,26570],[100,26650],[100,26734],[100,26817],[100,26901],[100,26987],[100,27068],[100,27151],[100,27234],[100,27317],[100,27401],[100,27484],[100,27568],[100,27650],[100,27742],[100,27817],[100,27900],[100,27984],[100,28067],[100,28150],[100,28234],[100,28319],[100,28400],[100,28484],[100,28570],[100,28651],[100,28734],[100,28817],[100,28901],[100,28986],[100,29068],[100,29151],[100,29233],[100,29317],[100,29400],[100,29484],[100,29567],[100,29651],[100,29734]]",1,0,177.5414,189.2938,73.54528639,8.944,"[{""rating"":73.5452863905165,""responseTime"":8.94399999999996}]",space,11.2019,,189.2941,Not at all,0,189.3061,,,[],,0,0,0,0,1,audio/Narrative13Situation2.wav,audio/Narrative13Situation2.wav,audio/Narrative13Situation2.wav,audio/Narrative13Situation2.wav,2,2,2,2,,,,,,,,,,,,,,,,,,,,,,,,,,,,,,,,,,,,,,,
,,,,,,651c68265a8d5b5c6d589acf,2024-02-08_13h05.18.575,group3.1-3.2-social-tom,2023.2.2,MacIntel,59.99880002,65c5074098b851296ff0b7ed,65c5414acb0985acfd94fadc,,,,,,,,,,,,,,,,,,,,,,,,,,,,,189.3064,1,audio/Narrative8Situation1.wav,192.2267,space,192.2267,208.1758,"[[999,1],[999,80],[999,164],[999,247],[999,330],[999,418],[999,497],[999,581],[999,668],[999,748],[999,832],[999,914],[999,998],[999,1082],[999,1164],[999,1250],[999,1333],[999,1413],[999,1497],[999,1581],[999,1663],[999,1749],[999,1830],[999,1918],[999,1999],[999,2081],[999,2165],[999,2248],[999,2333],[999,2416],[54.6,2497],[57.3,2581],[64.1,2664],[67.2,2748],[67.6,2831],[71.9,2914],[74.2,2999],[74.3,3082],[74.3,3163],[74.3,3250],[74.3,3334],[74.3,3414],[74.3,3498],[74.3,3581],[74.3,3664],[74.3,3748],[74.3,3831],[74.3,3916],[74.3,4000],[74.3,4081],[74.3,4166],[74.3,4250],[74.3,4329],[74.3,4416],[74.3,4498],[74.3,4580],[74.3,4666],[74.3,4747],[74.3,4831],[74.3,4918],[74.3,4997],[74.3,5081],[74.3,5167],[74.3,5249],[74.3,5335],[74.3,5414],[74.3,5497],[74.3,5581],[74.3,5667],[74.3,5750],[74.3,5831],[74.3,5917],[74.3,5999],[74.3,6082],[74.3,6165],[74.3,6251],[74.3,6331],[74.3,6417],[74.3,6500],[74.3,6581],[74.3,6668],[74.3,6751],[74.3,6834],[74.3,6914],[74.3,6998],[74.3,7081],[74.3,7163],[74.3,7247],[74.3,7334],[74.3,7414],[74.3,7498],[74.3,7585],[74.3,7664],[74.3,7749],[74.3,7831],[74.3,7917],[74.3,8000],[74.3,8081],[74.3,8167],[74.3,8251],[74.3,8333],[74.3,8416],[74.3,8500],[74.3,8581],[74.3,8667],[74.3,8748],[74.3,8831],[74.3,8918],[74.3,8998],[74.3,9082],[74.3,9164],[74.3,9248],[74.3,9333],[74.3,9414],[74.3,9498],[87,9586],[100,9668],[100,9750],[100,9830],[100,9917],[100,10000],[100,10093],[100,10167],[100,10251],[100,10331],[100,10416],[100,10501],[100,10582],[100,10667],[100,10747],[100,10831],[100,10919],[100,10998],[100,11082],[100,11168],[100,11248],[100,11334],[100,11417],[100,11498],[100,11585],[100,11664],[100,11749],[100,11831],[100,11915],[100,12000],[100,12081],[100,12165],[100,12250],[100,12331],[100,12417],[100,12498],[100,12581],[100,12668],[100,12747],[100,12831],[100,12917],[100,12998],[100,13082],[100,13168],[100,13248],[100,13334],[100,13415],[100,13498],[100,13585],[100,13665],[100,13748],[100,13831],[100,13916],[100,14001],[100,14081],[100,14165],[100,14250],[100,14331],[100,14417],[100,14497],[100,14581],[100,14668],[100,14747],[100,14834],[100,14935],[100,15015],[100,15101],[100,15184],[100,15265],[100,15348],[100,15431],[100,15514],[100,15600],[100,15685],[100,15764],[100,15850],[100,15932]]",1,0,208.1762,216.2752,99.28227743,6.6239,"[{""rating"":99.2822774251302,""responseTime"":6.623900000095375}]",space,7.5664,,216.2753,Definitely yes,100,216.2907,,,[],,0,1,1,1,1,audio/Narrative7Situation1.wav,audio/Narrative8Situation1.wav,audio/Narrative5Situation1.wav,audio/Narrative6Situation1.wav,2,5,5,2,2.9009,,,,,,,,,,,,,,,,,,,,,,,,,,,,,,,,,,,,,,
,,,,,,651c68265a8d5b5c6d589acf,2024-02-08_13h05.18.575,group3.1-3.2-social-tom,2023.2.2,MacIntel,59.99880002,65c5074098b851296ff0b7ed,65c5414acb0985acfd94fadc,,,,,,,,,,,,,,,,,,,,,,,,,,,,,216.2909,1,audio/Narrative8Situation2.wav,219.2928,,219.2928,229.41,"[[97.9,1500],[92.8,1583],[87.6,1666],[83.1,1750],[82,1834],[77.1,1916],[59.6,2005],[56.2,2083],[55.9,2166],[55.9,2250],[55.9,2336],[55.9,2416],[55.9,2502],[55.9,2583],[55.9,2667],[55.9,2749],[55.9,2833],[55.9,2917],[54.6,3003],[50,3083],[42.2,3170],[40.7,3250],[40.7,3333],[40.7,3419],[41.1,3502],[43.7,3583],[43.9,3666],[42.3,3750],[42,3844],[42.1,3916],[42.1,4000],[42.1,4083],[42.1,4166],[42.1,4251],[39.1,4333],[36.5,4416],[36.2,4502],[36.2,4583],[36.2,4668],[35.9,4751],[35.5,4833],[35.4,4918],[33.4,5001],[27.1,5083],[18.6,5169],[14.4,5250],[14.1,5334],[14.1,5421],[14.1,5500],[14.1,5583],[14.1,5666],[14.1,5749],[14.1,5835],[14,5917],[13.5,6000],[13.3,6082],[13.2,6166],[13.2,6251],[13.2,6337],[13.2,6415],[13.2,6503],[13.2,6582],[13.2,6666],[13.2,6750],[13.2,6833],[29.3,6917],[61.3,7082],[62.1,7167],[62.4,7250],[63.6,7333],[63.6,7419],[63.6,7500],[63.6,7583],[63.6,7669],[63.6,7748],[63.6,7834],[63.6,7916],[63.6,8000],[63.6,8085],[63.6,8167],[63.6,8251],[63.6,8336],[63.6,8416],[63.6,8501],[63.6,8582],[64.8,8667],[67.8,8754],[69.9,8834],[70.8,8917],[70.9,9000],[70.9,9083],[70.9,9168],[69.7,9250],[68.9,9333],[68.5,9420],[67.2,9500],[63.8,9587],[55.3,9669],[51.9,9750],[49.5,9832],[48.5,9917],[48.5,10001],[48.5,10082]]",1,0,229.4101,235.9437,50.45056661,5.5243,"[{""rating"":50.45056660970052,""responseTime"":5.524299999952291}]",space,6.0033,,235.9438,Not at all,0,235.9561,,,[],,0,2,2,2,1,audio/Narrative7Situation2.wav,audio/Narrative8Situation2.wav,audio/Narrative5Situation2.wav,audio/Narrative6Situation2.wav,3,3,3,3,,,,,,,,,,,,,,,,,,,,,,,,,,,,,,,,,,,,,,,
,,,,,,651c68265a8d5b5c6d589acf,2024-02-08_13h05.18.575,group3.1-3.2-social-tom,2023.2.2,MacIntel,59.99880002,65c5074098b851296ff0b7ed,65c5414acb0985acfd94fadc,,,,,,,,,,,,,,,,,,,,,,,,,,,,,235.9564,1,audio/Narrative8Situation3.wav,239.9607,,239.9608,262.3454,"[[41.8,1919],[24.7,2000],[19.3,2084],[16.8,2166],[15.6,2250],[15.6,2334],[15.6,2416],[15.6,2500],[15.6,2583],[15.3,2666],[15.3,2753],[15.3,2833],[15.3,2916],[15.3,2999],[15.3,3084],[15.3,3166],[15.3,3250],[17.5,3333],[25.1,3417],[29,3500],[29.6,3583],[29.6,3670],[29.6,3754],[29.6,3835],[29.6,3916],[29.6,4000],[29.6,4084],[29.6,4166],[29.6,4250],[29.6,4332],[31.4,4416],[44,4500],[57.5,4585],[62.6,4668],[63.3,4752],[63.3,4836],[63.3,4916],[63.3,4999],[62.8,5084],[62.6,5167],[62.6,5254],[62.6,5338],[62.6,5416],[62.6,5500],[62.6,5583],[62.6,5667],[62.6,5751],[62.6,5833],[62.1,5922],[54.7,6000],[48.8,6086],[48.4,6167],[48.4,6250],[48.4,6338],[48.5,6417],[48.5,6501],[48.6,6585],[48.7,6671],[49.1,6751],[49.3,6833],[49.5,6915],[49.5,7002],[49.5,7084],[49.5,7166],[49.5,7250],[49.5,7333],[49.5,7417],[49.5,7500],[49.5,7583],[49.5,7666],[49.5,7750],[49.5,7833],[49.5,7917],[49.5,8000],[49.5,8083],[49.5,8167],[49.5,8250],[49.5,8334],[49.5,8417],[49.5,8500],[49.5,8585],[49.5,8667],[49.9,8755],[61.4,8833],[68.5,8916],[85.8,9916],[87.8,10000],[91.5,10083],[93.6,10166],[96.6,10251],[98.2,10334],[98.3,10416],[98.2,10500],[98.2,10583],[98.2,10666],[98.2,10750],[98.2,10834],[98.2,10916],[98.2,10999],[98.2,11083],[98.2,11166],[98.2,11250],[98.2,11333],[98.2,11417],[98.2,11503],[98.2,11583],[98.2,11667],[98.2,11750],[98.2,11834],[98.2,11920],[98.2,12000],[98.2,12083],[98.2,12170],[98.2,12250],[98.2,12334],[98.2,12417],[98.2,12500],[98.2,12584],[98.2,12667],[98.2,12750],[98.2,12834],[98.2,12917],[98.2,13001],[98.2,13084],[98.2,13167],[98.2,13250],[98.2,13333],[98.2,13418],[98.2,13500],[98.2,13582],[98.2,13669],[98.2,13751],[98.2,13834],[98.2,13920],[98.2,14000],[98.2,14084],[98.2,14167],[98.2,14253],[98.2,14334],[98.2,14417],[98.2,14500],[98.2,14583],[98.2,14667],[98.2,14750],[98.2,14832],[98.2,14917],[98.2,15000],[98.2,15084],[98.2,15168],[98.2,15250],[98.2,15334],[98.2,15417],[98.2,15500],[98.2,15583],[98.2,15667],[98.2,15750],[98.2,15834],[98.2,15920],[98.2,16002],[98.2,16085],[98.2,16166],[98.2,16250],[98.2,16334],[98.2,16417],[98.2,16500],[98.2,16585],[98.2,16667],[98.2,16751],[98.2,16836],[98.2,16917],[98.2,17001],[98.2,17084],[98.2,17167],[98.2,17253],[98.2,17334],[98.2,17417],[98.2,17500],[98.2,17604],[98.2,17667],[98.2,17750],[98.2,17834],[98.2,17917],[98.2,18001],[98.2,18084],[98.2,18169],[98.2,18251],[98.2,18334],[98.2,18417],[98.2,18501],[98.2,18586],[98.2,18668],[98.2,18756],[98.2,18834],[98.2,18918],[98.2,19001],[98.2,19087],[98.2,19168],[98.2,19252],[98.2,19334],[98.2,19417],[98.2,19500],[98.2,19584],[98.2,19667],[98.2,19751],[98.2,19834],[98.2,19918],[98.2,20000],[98.2,20084],[98.2,20167],[98.2,20251],[98.2,20334],[98.2,20418],[98.2,20503],[98.2,20584],[98.2,20667],[98.2,20751],[98.2,20834],[98.2,20937],[98.2,21017],[98.2,21100],[98.2,21184],[98.2,21268],[98.2,21354],[98.2,21435],[98.2,21518],[98.2,21600],[98.2,21684],[98.2,21768],[98.2,21851],[98.2,21934],[98.2,22017],[98.2,22100],[98.2,22184],[98.2,22267],[98.2,22351]]",1,0,262.3457,268.9124,76.43281725,5.1116,"[{""rating"":76.43281724717882,""responseTime"":5.111600000143028}]",space,6.0359,,268.9126,Definitely yes,100,268.9234,,,[],,0,3,3,3,1,audio/Narrative7Situation3.wav,audio/Narrative8Situation3.wav,audio/Narrative5Situation3.wav,audio/Narrative6Situation3.wav,8,4,3,5,,,,,,,,,,,,,,,,,,,,,,,,,,,,,,,,,,,,,,,
,,,,,,651c68265a8d5b5c6d589acf,2024-02-08_13h05.18.575,group3.1-3.2-social-tom,2023.2.2,MacIntel,59.99880002,65c5074098b851296ff0b7ed,65c5414acb0985acfd94fadc,,,,,,,,,,,,,,,,,,,,,,,,,,,,,268.9238,1,audio/Narrative8Situation4.wav,271.9295,,271.9295,286.0969,"[[72.2,2166],[44.6,2251],[30.7,2333],[27.3,2417],[26.5,2499],[26.6,2586],[33.8,2668],[58.3,2750],[66.2,2836],[66.4,2916],[66.4,3002],[66.4,3083],[66.4,3166],[66.4,3251],[66.4,3333],[66.4,3416],[66.4,3499],[66.4,3583],[66.4,3667],[66.4,3750],[66.4,3833],[66.4,3917],[66.4,3999],[66.4,4084],[66.4,4168],[66.4,4249],[66.4,4333],[66.4,4416],[66.4,4500],[66.4,4583],[66.4,4667],[66.4,4750],[66.4,4833],[66.4,4916],[66.4,5000],[66.4,5086],[66.4,5165],[66.4,5252],[66.4,5333],[66.4,5416],[66.4,5499],[66.4,5583],[66.4,5668],[66.4,5754],[66.4,5833],[66.4,5916],[66.4,6000],[68.4,6083],[69.9,6168],[71,6250],[71.7,6334],[73.6,6416],[77.8,6500],[79.4,6586],[79.6,6670],[79.6,6750],[79.6,6835],[79.6,6917],[81.8,7002],[85.8,7085],[86.5,7167],[86.5,7250],[86.5,7332],[88.3,7417],[100,7501],[100,7586],[100,7666],[100,7749],[100,7833],[100,7917],[100,8000],[100,8083],[100,8167],[100,8250],[100,8336],[100,8416],[100,8500],[100,8585],[100,8666],[100,8750],[100,8834],[100,8916],[100,9001],[100,9083],[100,9165],[100,9250],[100,9333],[100,9417],[100,9501],[100,9583],[100,9667],[100,9753],[100,9833],[100,9917],[100,9999],[100,10085],[100,10168],[100,10251],[100,10334],[100,10420],[100,10500],[100,10586],[100,10667],[100,10750],[100,10835],[100,10916],[100,11000],[100,11083],[100,11166],[100,11251],[100,11333],[100,11417],[100,11502],[100,11583],[100,11667],[100,11750],[100,11834],[100,11917],[100,12000],[100,12086],[100,12166],[100,12251],[100,12334],[100,12417],[100,12500],[100,12583],[100,12666],[100,12750],[100,12835],[100,12917],[100,13000],[100,13084],[100,13167],[100,13250],[100,13334],[100,13417],[100,13501],[100,13583],[100,13667],[100,13752],[100,13834],[100,13917],[100,14000],[100,14082],[100,14167]]",1,0,286.0975,290.2805,99.8171658,3.1961,"[{""rating"":99.81716579861111,""responseTime"":3.196099999904618}]",space,3.6512,,290.2806,Not at all,0,290.2941,,,[],,0,4,4,4,1,audio/Narrative7Situation4.wav,audio/Narrative8Situation4.wav,audio/Narrative5Situation4.wav,audio/Narrative6Situation4.wav,3,3,1,2,,,,,,,,,,,,,,,,,,,,,,,,,,,,,,,,,,,,,,,
,,,,,,651c68265a8d5b5c6d589acf,2024-02-08_13h05.18.575,group3.1-3.2-social-tom,2023.2.2,MacIntel,59.99880002,65c5074098b851296ff0b7ed,65c5414acb0985acfd94fadc,,,,,,,,,,,,,,,,,,,,,,,,,,,,,290.2946,1,audio/Narrative8Situation5.wav,292.2976,,292.2976,300.5483,"[[95.1,1251],[78.3,1334],[69.8,1417],[69.8,1500],[70.1,1583],[68.9,1666],[68.8,1749],[68.8,1833],[70.6,1920],[71.2,2000],[71.4,2086],[71.9,2170],[71.9,2250],[71.9,2334],[71.9,2417],[72,2498],[85.4,2583],[92.7,2666],[96.2,2750],[98.8,2833],[99,2916],[99,3003],[99,3084],[99,3166],[99,3250],[99,3333],[99,3416],[99,3500],[99,3583],[99,3666],[99,3749],[99,3833],[99,3916],[99,4000],[99,4083],[99,4166],[99,4250],[99,4333],[99,4417],[99,4499],[99,4584],[99,4667],[99,4750],[99,4833],[99,4916],[99,5000],[99,5083],[99,5166],[99,5250],[99,5333],[99,5416],[99,5501],[99,5583],[99,5666],[99,5750],[99,5834],[99,5917],[99,6000],[99,6083],[99,6166],[99,6250],[99,6334],[99,6417],[99,6500],[99,6584],[99,6667],[99,6750],[99,6833],[99,6916],[99,7000],[99,7083],[99,7166],[99,7250],[99,7333],[99,7417],[99,7499],[99,7583],[99,7667],[99,7753],[99,7832],[99,7917],[99,8000],[99,8083],[99,8167],[99,8250]]",1,0,300.5485,305.3153,99.71950955,2.0435,"[{""rating"":99.71950954861111,""responseTime"":2.0434999999999945}]",space,4.2188,,305.3154,Partially,50,305.3283,,,[],,0,5,5,5,1,audio/Narrative7Situation5.wav,audio/Narrative8Situation5.wav,audio/Narrative5Situation5.wav,audio/Narrative6Situation5.wav,5,2,5,2,,,,,,,,,,,,,,,,,,,,,,,,,,,,,,,,,,,,,,,
,,,,,,651c68265a8d5b5c6d589acf,2024-02-08_13h05.18.575,group3.1-3.2-social-tom,2023.2.2,MacIntel,59.99880002,65c5074098b851296ff0b7ed,65c5414acb0985acfd94fadc,,,,,,,,,,,,,,,,,,,,,,,,,,,,,305.3285,1,audio/Narrative8Situation6.wav,307.3317,,307.3318,313.8319,"[[95.6,1500],[84.8,1585],[78.8,1668],[77.1,1750],[74.5,1833],[74.2,1920],[75.4,2004],[75.6,2085],[76.1,2166],[77,2250],[77.4,2334],[77.5,2416],[77.5,2499],[77.5,2585],[77.5,2666],[77.5,2751],[77.5,2831],[77.5,2915],[77.5,3003],[77.5,3083],[77.5,3169],[77.5,3249],[77.5,3332],[77.5,3416],[77.5,3504],[77.5,3585],[77.5,3667],[77.5,3754],[79.4,3839],[100,3918],[100,3998],[100,4083],[100,4169],[100,4250],[100,4334],[100,4417],[100,4501],[100,4585],[100,4671],[100,4750],[100,4854],[100,4919],[100,5002],[100,5087],[100,5167],[100,5254],[100,5333],[100,5417],[100,5503],[100,5584],[100,5669],[100,5750],[100,5834],[100,5918],[100,6000],[100,6084],[100,6167],[100,6250],[100,6334],[100,6417],[100,6499]]",1,0,313.8321,326.6337,61.78947449,11.7945,"[{""rating"":61.78947448730469,""responseTime"":11.794500000000028}]",space,12.2725,,326.6342,Not at all,0,339.8363,0.139745076,11.0213,"[{""rating"":0.13974507649739398,""responseTime"":11.021300000190706}]",space,0,6,6,6,1,audio/Narrative7Situation6.wav,audio/Narrative8Situation6.wav,audio/Narrative5Situation6.wav,audio/Narrative6Situation6.wav,3,2,3,2,,,12.6693,,,,,,,,,,,,,,,,,,,,,,,,,,,,,,,,,,,,
,,,,,,651c68265a8d5b5c6d589acf,2024-02-08_13h05.18.575,group3.1-3.2-social-tom,2023.2.2,MacIntel,59.99880002,65c5074098b851296ff0b7ed,65c5414acb0985acfd94fadc,,,,,,,,,,,,,,,,,,,,,,,,,,,,,339.8373,1,audio/Narrative8Situation7.wav,342.852,,342.852,354.9517,"[[0.8,3098],[11.8,3182],[25.7,3266],[33.3,3351],[42.2,3433],[51.7,3516],[54,3599],[55,3682],[56.7,3766],[56.9,3849],[56.1,3933],[54.4,4015],[54.4,4100],[54.4,4183],[54.4,4265],[54.4,4349],[54.4,4433],[54.4,4516],[54.4,4598],[54.4,4685],[54.4,4769],[54.4,4849],[54.4,4932],[54.4,5016],[54.4,5100],[54.4,5182],[54.4,5266],[54.4,5348],[54.4,5432],[54.4,5516],[54.4,5599],[54.4,5682],[54.4,5765],[54.4,5848],[54.4,5932],[54.4,6016],[54.4,6099],[54.4,6184],[54.4,6268],[54.4,6348],[54.4,6431],[54.4,6516],[54.4,6598],[54.4,6682],[54.4,6766],[54.4,6849],[52.9,6932],[52.6,7016],[53,7099],[52,7182],[51.2,7266],[50.5,7351],[50.3,7432],[50.3,7516],[50.3,7598],[50.3,7682],[50.3,7765],[50.3,7849],[50.3,7932],[50.3,8014],[50.3,8097],[50.3,8181],[50.3,8264],[50.3,8348],[50.3,8435],[50.3,8516],[50.3,8598],[50.3,8682],[50.3,8766],[50.3,8849],[50.3,8932],[50.3,9015],[50.3,9098],[50.3,9186],[50.3,9268],[50.3,9349],[50.3,9432],[50.3,9516],[50.3,9599],[50.3,9683],[50.3,9766],[50.3,9849],[50.3,9933],[50.3,10017],[50.3,10099],[50.3,10183],[50.3,10264],[50.3,10350],[50.3,10435],[50.3,10516],[50.3,10602],[50.3,10683],[50.3,10766],[50.3,10849],[50.3,10935],[50.3,11015],[50.3,11100],[50.3,11183],[50.3,11268],[50.3,11349],[50.3,11433],[50.3,11516],[50.3,11603],[50.3,11682],[50.3,11765],[50.3,11849],[50.3,11933],[50.3,12016],[50.3,12099]]",1,0,354.9519,362.9882,49.46723938,7.3256,"[{""rating"":49.46723937988281,""responseTime"":7.325599999904625}]",space,7.4901,,362.9884,Definitely yes,100,363.0007,,,[],,0,7,7,7,1,audio/Narrative7Situation7.wav,audio/Narrative8Situation7.wav,audio/Narrative5Situation7.wav,audio/Narrative6Situation7.wav,5,3,4,5,,,,,,,,,,,,,,,,,,,,,,,,,,,,,,,,,,,,,,,
,,,,,,651c68265a8d5b5c6d589acf,2024-02-08_13h05.18.575,group3.1-3.2-social-tom,2023.2.2,MacIntel,59.99880002,65c5074098b851296ff0b7ed,65c5414acb0985acfd94fadc,,,,,,,,,,,,,,,,,,,,,,,,,,,,,363.0009,1,audio/Narrative8Situation8.wav,366.0017,,366.0017,378.8545,"[[45.4,2088],[36.5,2171],[29.9,2253],[27.6,2336],[27.5,2417],[27.5,2517],[27.3,2586],[27.2,2668],[27.2,2750],[27.2,2837],[27.2,2919],[27.2,3001],[27.2,3084],[27.2,3167],[27.2,3250],[27.2,3334],[27.2,3417],[27.2,3500],[27.2,3584],[27.2,3667],[27.2,3751],[27.2,3835],[27.2,3918],[27.2,4000],[27.2,4084],[27.2,4165],[27.2,4250],[27.2,4335],[27.2,4416],[27.2,4501],[27.2,4583],[27.2,4667],[27.2,4750],[27.2,4834],[27.2,4918],[27.2,5001],[27.2,5084],[27.2,5168],[27.2,5250],[27.2,5334],[27.2,5417],[27.2,5499],[27.2,5584],[27.2,5667],[27.2,5751],[27.2,5834],[27.2,5917],[27.2,6001],[27.2,6084],[27.2,6167],[27.2,6251],[27.2,6335],[27.2,6417],[27.2,6500],[27.2,6585],[27.2,6668],[27.2,6751],[27.2,6836],[38.4,6918],[48.6,7001],[54.5,7089],[58.4,7168],[61.5,7252],[62.1,7335],[62.1,7418],[62.1,7500],[62.1,7584],[62.1,7668],[62.1,7754],[62.1,7834],[62.1,7918],[62.1,8001],[62.1,8084],[62.1,8169],[62.1,8251],[62.1,8335],[62.1,8419],[62.1,8502],[62.1,8584],[62.1,8667],[62.1,8750],[62.1,8834],[62.1,8917],[62.1,9001],[62.1,9084],[62.1,9168],[62.1,9251],[62.1,9334],[62.1,9417],[62.1,9503],[62.1,9584],[62.1,9667],[62.1,9751],[62.1,9835],[62.1,9916],[62.1,10001],[62.1,10085],[62.1,10168],[62.1,10251],[62.1,10336],[62.1,10417],[62.1,10501],[62.1,10585],[62.1,10667],[62.1,10751],[62.1,10836],[62.1,10917],[62.1,11001],[62.1,11084],[62.1,11168],[62.1,11251],[66.6,11335],[100,11584],[100,11669],[100,11751],[100,11835],[100,11917],[100,12001],[100,12085],[100,12169],[100,12252],[100,12334],[100,12418],[100,12504],[100,12586],[100,12668],[100,12751],[100,12834]]",1,0,378.8548,382.5717,99.9087694,2.8741,"[{""rating"":99.90876939561633,""responseTime"":2.874099999904672}]",space,3.181,,382.5717,Not at all,0,382.584,,,[],,0,8,8,8,1,audio/Narrative7Situation8.wav,audio/Narrative8Situation8.wav,audio/Narrative5Situation8.wav,audio/Narrative6Situation8.wav,2,3,3,5,,,,,,,,,,,,,,,,,,,,,,,,,,,,,,,,,,,,,,,
,,,,,,651c68265a8d5b5c6d589acf,2024-02-08_13h05.18.575,group3.1-3.2-social-tom,2023.2.2,MacIntel,59.99880002,65c5074098b851296ff0b7ed,65c5414acb0985acfd94fadc,,,,,,,,,,,,,,,,,,,,,,,,,,,,,382.5843,1,audio/Narrative8Situation9.wav,385.5874,,385.5875,396.9038,"[[96.7,2750],[72.7,2837],[58.9,2920],[56.8,2999],[56.7,3082],[56.9,3166],[56.9,3250],[56.9,3333],[56.9,3418],[56.9,3500],[56.9,3582],[56.9,3666],[56.9,3749],[56.9,3832],[56.9,3917],[56.9,3998],[56.9,4083],[56.9,4167],[57,4250],[58,4332],[58.9,4419],[59.7,4500],[61,4583],[62.7,4670],[63.4,4754],[63.8,4833],[63.9,4916],[63.9,5000],[63.9,5085],[63.9,5166],[63.9,5250],[63.9,5335],[63.9,5417],[63.9,5500],[63.9,5583],[63.9,5666],[63.9,5750],[63.9,5833],[63.9,5917],[63.9,5999],[63.9,6083],[63.9,6166],[63.9,6250],[63.9,6332],[63.9,6417],[63.9,6500],[67.4,6583],[72.3,6669],[72.8,6750],[73.5,6834],[74,6917],[74,7000],[74,7083],[74,7166],[74,7251],[74,7335],[74,7417],[74,7501],[74,7583],[74,7666],[74,7749],[74,7833],[74,7916],[74,7999],[74,8083],[74,8167],[74,8249],[74,8332],[74,8416],[74,8500],[74,8583],[75.3,8671],[78.1,8750],[80.5,8834],[85,8919],[91.4,9002],[94,9087],[93.9,9167],[91.6,9255],[90.6,9334],[90.5,9418],[90.5,9501],[90.5,9583],[90.5,9666],[90.5,9751],[90.5,9833],[90.5,9917],[90.5,10000],[90.5,10084],[90.5,10167],[90.5,10249],[90.5,10332],[90.5,10417],[90.5,10500],[90.5,10583],[90.5,10665],[90.5,10750],[90.5,10833],[90.5,10915],[90.5,11001],[90.5,11084],[90.5,11167],[90.5,11250]]",1,0,396.904,411.6891,99.16781955,14.0938,"[{""rating"":99.16781955295139,""responseTime"":14.093799999952353}]",space,14.2586,,411.6891,Not at all,0,411.6979,,,[],,0,9,9,9,1,audio/Narrative7Situation9.wav,audio/Narrative8Situation9.wav,audio/Narrative5Situation9.wav,audio/Narrative6Situation9.wav,2,3,3,4,,,,,,,,,,,,,,,,,,,,,,,,,,,,,,,,,,,,,,,
,,,,,,651c68265a8d5b5c6d589acf,2024-02-08_13h05.18.575,group3.1-3.2-social-tom,2023.2.2,MacIntel,59.99880002,65c5074098b851296ff0b7ed,65c5414acb0985acfd94fadc,,,,,,,,,,,,,,,,,,,,,,,,,,,,,411.698,1,audio/Narrative7Situation1.wav,413.7059,,413.7059,469.5934,"[[88.1,1416],[79.5,1501],[74.2,1583],[73.9,1666],[73.9,1750],[69.7,1833],[59.5,1919],[57.7,1999],[57.7,2081],[57.7,2166],[57.7,2250],[57.7,2334],[57.7,2416],[57.7,2498],[57.7,2582],[57.7,2667],[57.7,2750],[57.7,2832],[57.7,2916],[57.7,3003],[57.7,3084],[57.7,3165],[57.7,3248],[57.7,3332],[57.7,3416],[58.1,3500],[59,3581],[59.5,3667],[59.5,3750],[59.6,3833],[59.6,3915],[59.6,3999],[59.6,4083],[59.6,4167],[59.6,4249],[59.6,4333],[59.6,4417],[59.6,4500],[59.6,4583],[59.6,4667],[59.6,4750],[59.6,4834],[59.6,4919],[59.6,4999],[59.6,5083],[59.7,5167],[59.7,5249],[59.7,5335],[59.7,5415],[59.7,5500],[59.7,5583],[59.7,5667],[59.7,5750],[59.7,5833],[59.7,5916],[59.7,6000],[59.7,6084],[59.7,6166],[59.7,6254],[59.7,6333],[59.7,6416],[59.7,6498],[59.7,6583],[59.7,6669],[59.7,6749],[59.7,6833],[59.7,6919],[59.7,6999],[59.7,7083],[59.7,7171],[59.7,7250],[54.4,7332],[50.3,7422],[47.5,7504],[45.9,7587],[45.8,7668],[45.8,7751],[45.8,7832],[45.8,7917],[45.8,8000],[45.8,8083],[45.8,8166],[45.3,8255],[41.6,8335],[38.4,8417],[36,8505],[34.5,8586],[33.6,8668],[33.6,8750],[33.6,8833],[33.6,8920],[33.6,9000],[33.4,9083],[33.3,9166],[32.6,9250],[32.4,9334],[32.1,9417],[32,9500],[32,9583],[32,9666],[32,9751],[32,9834],[32,9917],[32,10002],[32,10083],[32,10167],[32,10250],[32,10334],[32,10417],[32,10504],[32,10585],[32,10667],[32,10751],[32,10833],[32,10918],[32,11000],[32,11084],[32,11166],[32,11251],[32,11334],[32,11416],[32,11500],[32,11583],[32,11667],[32,11751],[32,11836],[32,11917],[32,12000],[32,12084],[32,12167],[32,12251],[32,12334],[32,12419],[32,12500],[32.1,12584],[32.2,12669],[34.1,12751],[34.5,12834],[34.5,12917],[34.5,13000],[34.5,13084],[35.3,13193],[39.9,13267],[45.9,13353],[49.9,13433],[54.1,13517],[57.9,13601],[59.9,13685],[61.2,13770],[61.5,13851],[61.5,13933],[61.5,14017],[61.5,14103],[61.5,14184],[61.5,14266],[61.5,14351],[61.5,14439],[61.5,14534],[61.5,14620],[61.5,14700],[61.5,14783],[61.5,14870],[61.5,14952],[61.5,15034],[61.5,15117],[61.5,15202],[61.5,15283],[61.5,15366],[61.5,15450],[61.5,15536],[61.5,15616],[61.5,15701],[61.5,15782],[61.5,15868],[61.5,15951],[61.5,16034],[61.5,16117],[61.5,16199],[61.5,16283],[61.5,16367],[61.5,16449],[61.5,16534],[61.5,16618],[61.5,16700],[61.5,16785],[61.5,16867],[61.5,16951],[61.5,17033],[61.5,17117],[62.7,17202],[77.4,17285],[86.4,17368],[93.1,17454],[95.3,17534],[95.6,17617],[95.6,17700],[95.6,17783],[96.5,17868],[97.7,17951],[98.5,18034],[98.6,18116],[98.6,18200],[99.1,18284],[99.6,18370],[100,18451],[100,18534],[100,18620],[100,18701],[100,18784],[100,18868],[100,18951],[100,19034],[100,19118],[100,19202],[100,19286],[100,19367],[100,19451],[100,19534],[100,19617],[100,19703],[100,19784],[100,19870],[100,19953],[100,20034],[100,20118],[100,20200],[100,20284],[100,20368],[100,20454],[100,20534],[100,20617],[100,20701],[100,20784],[100,20868],[100,20951],[100,21035],[100,21117],[100,21203],[100,21286],[100,21367],[100,21451],[100,21534],[100,21618],[100,21701],[100,21785],[100,21868],[100,21951],[100,22034],[100,22118],[100,22203],[100,22284],[100,22369],[100,22449],[100,22534],[100,22619],[100,22700],[100,22785],[100,22868],[100,22951],[100,23034],[100,23118],[100,23203],[100,23284],[100,23368],[100,23453],[100,23533],[100,23618],[100,23701],[100,23784],[100,23868],[100,23951],[100,24034],[100,24118],[100,24201],[100,24285],[100,24370],[100,24451],[100,24537],[100,24618],[100,24701],[100,24784],[100,24871],[100,24950],[100,25034],[100,25118],[100,25200],[100,25284],[100,25367],[100,25452],[100,25533],[100,25620],[100,25703],[100,25784],[100,25868],[100,25949],[100,26034],[100,26118],[100,26200],[100,26285],[100,26369],[100,26451],[100,26534],[100,26618],[100,26701],[100,26785],[100,26868],[100,26952],[100,27036],[100,27118],[100,27201],[100,27283],[100,27368],[100,27452],[100,27534],[100,27617],[100,27701],[100,27785],[100,27868],[100,27951],[100,28034],[100,28120],[100,28202],[100,28285],[100,28370],[100,28451],[100,28535],[100,28619],[100,28702],[100,28785],[100,28868],[100,28952],[100,29035],[100,29118],[100,29201],[100,29286],[100,29368],[100,29452],[100,29535],[100,29618],[100,29705],[100,29784],[100,29868],[100,29953],[100,30034],[100,30120],[100,30204],[100,30285],[100,30368],[100,30451],[100,30534],[100,30620],[100,30701],[100,30785],[100,30868],[100,30952],[100,31035],[100,31118],[100,31202],[100,31285],[100,31368],[100,31452],[100,31533],[100,31618],[100,31702],[100,31784],[100,31869],[100,31951],[100,32035],[100,32120],[100,32200],[100,32285],[100,32370],[100,32451],[100,32535],[100,32618],[100,32701],[100,32784],[100,32868],[100,32950],[100,33035],[100,33118],[100,33201],[100,33284],[100,33368],[100,33451],[100,33537],[100,33619],[100,33702],[100,33785],[100,33869],[100,33951],[100,34035],[100,34119],[100,34202],[100,34285],[100,34369],[100,34452],[100,34536],[100,34620],[100,34704],[100,34784],[100,34868],[100,34951],[100,35035],[100,35118],[100,35201],[100,35286],[100,35368],[100,35452],[100,35535],[100,35619],[100,35702],[100,35785],[100,35869],[100,35952],[100,36035],[100,36119],[100,36204],[100,36285],[100,36369],[100,36450],[100,36536],[100,36620],[100,36700],[100,36786],[100,36868],[100,36952],[100,37035],[100,37119],[100,37202],[100,37285],[100,37372],[100,37452],[100,37535],[100,37619],[100,37704],[100,37784],[100,37867],[100,37952],[100,38035],[100,38119],[100,38203],[100,38285],[100,38371],[100,38454],[100,38536],[100,38620],[100,38702],[100,38786],[100,38868],[100,38952],[100,39036],[100,39121],[100,39201],[100,39286],[100,39369],[100,39452],[100,39536],[100,39618],[100,39702],[100,39787],[100,39869],[100,39952],[100,40035],[100,40119],[100,40202],[100,40286],[100,40369],[100,40455],[100,40536],[100,40619],[100,40702],[100,40784],[100,40868],[100,40952],[100,41036],[100,41119],[100,41204],[100,41286],[100,41369],[100,41452],[100,41536],[100,41619],[100,41702],[100,41788],[100,41869],[100,41952],[100,42035],[100,42118],[100,42205],[100,42285],[100,42370],[100,42452],[100,42535],[100,42620],[100,42702],[100,42786],[100,42869],[100,42952],[100,43035],[100,43117],[100,43201],[100,43286],[100,43368],[100,43453],[100,43536],[100,43619],[100,43703],[100,43785],[100,43868],[100,43952],[100,44035],[100,44118],[100,44203],[100,44286],[100,44369],[100,44452],[100,44536],[100,44620],[100,44703],[100,44784],[100,44870],[100,44953],[100,45036],[100,45119],[100,45202],[100,45286],[100,45368],[100,45451],[100,45536],[100,45620],[100,45702],[100,45786],[100,45869],[100,45952],[100,46035],[100,46118],[100,46206],[100,46284],[100,46370],[100,46452],[100,46536],[100,46620],[100,46703],[100,46786],[100,46871],[100,46953],[100,47035],[100,47119],[100,47202],[100,47286],[100,47372],[100,47451],[100,47536],[100,47619],[100,47702],[100,47786],[100,47870],[100,47953],[100,48034],[100,48118],[100,48203],[100,48286],[100,48370],[100,48454],[100,48536],[100,48620],[100,48703],[100,48786],[100,48871],[100,48952],[100,49036],[100,49121],[100,49203],[100,49286],[100,49372],[100,49452],[100,49536],[100,49620],[100,49702],[100,49786],[100,49870],[100,49953],[100,50036],[100,50119],[100,50203],[100,50286],[100,50370],[100,50454],[100,50536],[100,50620],[100,50705],[100,50786],[100,50870],[100,50953],[100,51037],[100,51121],[100,51202],[100,51286],[100,51372],[100,51453],[100,51536],[100,51618],[100,51703],[100,51788],[100,51870],[100,51953],[100,52036],[100,52120],[100,52202],[100,52286],[100,52371],[100,52454],[100,52536],[100,52623],[100,52705],[100,52786],[100,52871],[100,52953],[100,53037],[100,53121],[100,53203],[100,53286],[100,53369],[100,53452],[100,53537],[100,53620],[100,53704],[100,53786],[100,53870],[100,53953],[100,54036],[100,54120],[100,54204],[100,54287],[100,54369],[100,54452],[100,54537],[100,54620],[100,54703],[100,54786],[100,54870],[100,54953],[100,55035],[100,55120],[100,55202],[100,55286],[100,55370],[100,55452],[100,55537],[100,55620],[100,55704],[100,55787],[100,55869]]",1,0,469.5938,472.0769,99.99642266,1.674,"[{""rating"":99.99642266167534,""responseTime"":1.6739999999999782}]",space,1.9481,,472.077,Definitely yes,100,472.0913,,,[],,0,10,10,10,1,audio/Narrative8Situation1.wav,audio/Narrative7Situation1.wav,audio/Narrative6Situation1.wav,audio/Narrative5Situation1.wav,5,2,2,5,,,,,,,,,,,,,,,,,,,,,,,,,,,,,,,,,,,,,,,
,,,,,,651c68265a8d5b5c6d589acf,2024-02-08_13h05.18.575,group3.1-3.2-social-tom,2023.2.2,MacIntel,59.99880002,65c5074098b851296ff0b7ed,65c5414acb0985acfd94fadc,,,,,,,,,,,,,,,,,,,,,,,,,,,,,472.0916,1,audio/Narrative7Situation2.wav,475.0938,,475.0939,482.5778,"[[92,1499],[65.2,1583],[44.4,2164],[49.1,2252],[49.9,2333],[50.7,2418],[51.8,2498],[51.9,2583],[51.9,2666],[51.9,2749],[51.9,2833],[51.9,2917],[51.9,2999],[51.9,3084],[51.6,3168],[49.7,3250],[49.4,3333],[49.3,3416],[49.3,3498],[49.3,3584],[49.3,3669],[49.3,3749],[49.4,3831],[49.5,3915],[50.6,4000],[55.9,4083],[64.5,4165],[71.5,4250],[74.4,4333],[74,4417],[74,4499],[74,4582],[74,4666],[89.7,4751],[100,4831],[100,4918],[100,5000],[100,5082],[100,5164],[100,5250],[100,5333],[100,5415],[100,5500],[100,5584],[99.3,5666],[99.1,5749],[99,5846],[99,5917],[99.8,6002],[100,6087],[100,6165],[100,6250],[100,6336],[100,6415],[100,6502],[100,6582],[100,6666],[100,6750],[100,6833],[100,6917],[100,7000],[100,7084],[100,7166],[100,7250],[100,7333],[100,7418]]",1,0,482.578,487.8933,99.38997057,4.5262,"[{""rating"":99.38997056749133,""responseTime"":4.526200000047652}]",space,4.7879,,487.8934,Partially,50,487.9057,,,[],,0,11,11,11,1,audio/Narrative8Situation2.wav,audio/Narrative7Situation2.wav,audio/Narrative6Situation2.wav,audio/Narrative5Situation2.wav,3,3,3,3,,,,,,,,,,,,,,,,,,,,,,,,,,,,,,,,,,,,,,,
,,,,,,651c68265a8d5b5c6d589acf,2024-02-08_13h05.18.575,group3.1-3.2-social-tom,2023.2.2,MacIntel,59.99880002,65c5074098b851296ff0b7ed,65c5414acb0985acfd94fadc,,,,,,,,,,,,,,,,,,,,,,,,,,,,,487.9059,1,audio/Narrative7Situation3.wav,495.9099,,495.91,505.1629,"[[999,0],[999,85],[999,166],[999,250],[999,337],[999,421],[999,501],[999,585],[999,668],[999,752],[999,835],[999,917],[999,1000],[999,1088],[999,1168],[999,1256],[999,1335],[999,1419],[999,1502],[999,1585],[50.5,1668],[50.5,1751],[50.2,1835],[49.5,1918],[49.4,2002],[49.4,2085],[49.4,2170],[49.4,2251],[49.4,2334],[49.4,2417],[49.4,2500],[49.4,2587],[49.4,2668],[49.4,2751],[49.4,2835],[49.4,2920],[49.4,3000],[49.4,3084],[47.2,3168],[40,3254],[32.4,3335],[29.1,3418],[27.6,3501],[27.4,3585],[28.6,3667],[28.6,3751],[28.6,3835],[28.5,3919],[26.5,4001],[25.2,4085],[25,4166],[25,4251],[25,4335],[24.6,4419],[24.5,4501],[24.5,4586],[24.5,4668],[24.5,4753],[24.5,4835],[24.5,4918],[24.5,5002],[24.5,5085],[24.5,5168],[24.5,5252],[24.5,5335],[24.5,5418],[24.5,5500],[24.5,5583],[29.2,5668],[47.5,5751],[55.7,5835],[59,5919],[61.3,6005],[62.8,6083],[62.8,6168],[62.8,6252],[62.8,6335],[62.8,6418],[62.8,6501],[62.8,6587],[62.8,6667],[62.8,6751],[62.8,6835],[62.8,6917],[62.8,7001],[62.8,7085],[62.8,7168],[62.8,7251],[62.8,7335],[62.8,7419],[62.8,7505],[62.8,7586],[62.8,7669],[62.8,7750],[62.8,7835],[62.8,7919],[62.8,8002],[64.3,8086],[66,8168],[67.4,8252],[68.8,8335],[70.5,8420],[71.8,8502],[72.2,8586],[72.9,8668],[73.8,8754],[73.9,8839],[73.9,8916],[73.9,9004],[73.9,9085],[73.9,9168],[73.9,9252]]",1,0,505.1632,510.0285,45.32926771,3.6283,"[{""rating"":45.32926771375868,""responseTime"":3.628299999952219}]",space,4.3181,,510.0286,Definitely yes,100,510.0407,,,[],,0,12,12,12,1,audio/Narrative8Situation3.wav,audio/Narrative7Situation3.wav,audio/Narrative6Situation3.wav,audio/Narrative5Situation3.wav,4,8,5,3,,,,,,,,,,,,,,,,,,,,,,,,,,,,,,,,,,,,,,,
,,,,,,651c68265a8d5b5c6d589acf,2024-02-08_13h05.18.575,group3.1-3.2-social-tom,2023.2.2,MacIntel,59.99880002,65c5074098b851296ff0b7ed,65c5414acb0985acfd94fadc,,,,,,,,,,,,,,,,,,,,,,,,,,,,,510.041,1,audio/Narrative7Situation4.wav,513.0462,,513.0462,524.7817,"[[44.2,2001],[41.8,2085],[40.9,2167],[39.9,2250],[38.1,2333],[32.6,2415],[29.9,2502],[29.8,2584],[29.8,2666],[29.8,2750],[29.8,2833],[29.8,2916],[29.8,3000],[29.8,3081],[29.8,3165],[29.8,3249],[29.8,3332],[29.8,3420],[28.6,3502],[25.5,3584],[23.2,3671],[20.6,3752],[20,3836],[19.7,3921],[19.2,4000],[19.2,4099],[19.1,4181],[6.3,4266],[0.5,4354],[0.3,4433],[0.1,4516],[0,4600],[0,4683],[0,4783],[0,4865],[0,4949],[0,5033],[0,5116],[0,5200],[0,5282],[0,5366],[0,5450],[0,5533],[0,5615],[0,5699],[0,5783],[0,5866],[0,5949],[0,6033],[0,6117],[0,6200],[4.3,6285],[25.6,6369],[62.2,6450],[79.1,6536],[81.3,6616],[82.3,6700],[82.4,6783],[82.4,6869],[82.4,6948],[82.4,7033],[82.4,7119],[82.4,7199],[82.2,7284],[72.2,7367],[56.1,7453],[52.4,7534],[52.4,7617],[52.4,7700],[52.4,7784],[44.3,7869],[41.9,7951],[41.9,8032],[41.9,8116],[41.9,8202],[41.9,8282],[41.9,8367],[41.9,8450],[41.9,8535],[41.9,8618],[41.9,8698],[41.9,8783],[41.9,8865],[41.9,8950],[41.9,9033],[41.9,9117],[41.9,9200],[41.9,9284],[41.9,9366],[41.9,9451],[41.9,9533],[41.9,9617],[41.9,9699],[41.9,9782],[41.9,9867],[41.9,9951],[41.9,10033],[41.9,10121],[41.8,10200],[39.1,10284],[32.6,10368],[31.9,10450],[31.9,10533],[31.7,10619],[31.7,10700],[31.7,10783],[31.7,10869],[31.7,10950],[31.7,11033],[31.7,11116],[31.7,11200],[31.7,11284],[31.7,11367],[31.7,11450],[30.9,11534],[29.8,11617],[29.3,11701]]",1,0,524.7821,528.6139,0.702336629,2.8229,"[{""rating"":0.7023366292317701,""responseTime"":2.8229000000953874}]",space,3.2903,,528.6139,Not at all,0,528.6246,,,[],,0,13,13,13,1,audio/Narrative8Situation4.wav,audio/Narrative7Situation4.wav,audio/Narrative6Situation4.wav,audio/Narrative5Situation4.wav,3,3,2,1,,,,,,,,,,,,,,,,,,,,,,,,,,,,,,,,,,,,,,,
,,,,,,651c68265a8d5b5c6d589acf,2024-02-08_13h05.18.575,group3.1-3.2-social-tom,2023.2.2,MacIntel,59.99880002,65c5074098b851296ff0b7ed,65c5414acb0985acfd94fadc,,,,,,,,,,,,,,,,,,,,,,,,,,,,,528.6249,1,audio/Narrative7Situation5.wav,533.6319,,533.632,542.1317,"[[37.9,2083],[34.7,2165],[28.5,2249],[27.8,2332],[27.8,2416],[27.8,2498],[24.4,2583],[16.2,2665],[12.6,2749],[8.6,2832],[2.4,2916],[0.1,3249],[0.4,3334],[0.4,3415],[0.4,3498],[0.4,3582],[0.4,3665],[0.4,3749],[0.5,3832],[0.5,3915],[0.5,4000],[0.5,4082],[0.5,4166],[0.5,4248],[0.5,4332],[0.5,4417],[0.5,4499],[0.5,4582],[0.5,4663],[0.5,4748],[0.5,4832],[0.5,4915],[0.5,4998],[0.5,5083],[0.5,5165],[0.5,5247],[0.5,5332],[0.5,5415],[0.5,5499],[0.5,5582],[0.5,5666],[0.5,5749],[0.5,5831],[0.5,5915],[0.5,5998],[0.5,6082],[0.5,6166],[0.5,6249],[0.5,6332],[0.5,6415],[0.5,6499],[0.5,6581],[0.5,6666],[0.5,6749],[0.5,6833],[0.5,6915],[0.5,6997],[0.5,7082],[0.5,7166],[0.5,7247],[0.5,7332],[0.5,7415],[0.5,7498],[0.5,7580],[0.5,7665],[0.5,7749],[0.5,7831],[0.5,7915],[0.5,7999],[0.5,8082],[0.5,8166],[0.5,8247],[0.5,8330],[0.5,8416],[0.5,8499]]",1,0,542.1318,545.0172,0.454305013,2.0946,"[{""rating"":0.4543050130208337,""responseTime"":2.094600000143032}]",space,2.3412,,545.0173,Not at all,0,545.0258,,,[],,0,14,14,14,1,audio/Narrative8Situation5.wav,audio/Narrative7Situation5.wav,audio/Narrative6Situation5.wav,audio/Narrative5Situation5.wav,2,5,2,5,,,,,,,,,,,,,,,,,,,,,,,,,,,,,,,,,,,,,,,
,,,,,,651c68265a8d5b5c6d589acf,2024-02-08_13h05.18.575,group3.1-3.2-social-tom,2023.2.2,MacIntel,59.99880002,65c5074098b851296ff0b7ed,65c5414acb0985acfd94fadc,,,,,,,,,,,,,,,,,,,,,,,,,,,,,545.026,1,audio/Narrative7Situation6.wav,548.0319,,548.032,557.9989,"[[1.2,1004],[1.5,1088],[1.5,1166],[1.5,1252],[2,1335],[11.9,1417],[30.6,1500],[33.1,1584],[32.6,1666],[32,1755],[32,1833],[32,1915],[32,1999],[32,2083],[32,2166],[32,2249],[27.9,2333],[17.8,2417],[15.5,2500],[15.4,2583],[15.3,2666],[15.6,2749],[66.1,3251],[63.3,3335],[62.3,3417],[62.9,3498],[63.9,3584],[63.9,3666],[63.9,3749],[64.3,3831],[69.5,3914],[72.5,4000],[73.4,4083],[75.9,4168],[78.3,4253],[79,4333],[79.8,4417],[80,4498],[80,4583],[80,4666],[80,4749],[80,4832],[81.1,4916],[91,5004],[98.3,5084],[98.8,5168],[98.8,5249],[98.9,5332],[99.8,5417],[100,5500],[100,5582],[100,5667],[100,5751],[100,5833],[100,5917],[100,6000],[100,6083],[100,6166],[100,6252],[100,6333],[100,6416],[100,6501],[100,6583],[100,6667],[100,6749],[100,6833],[99.9,6917],[99.9,6999],[99.9,7083],[99.9,7166],[99.1,7250],[97.9,7334],[94.4,7417],[90.2,7505],[86.8,7584],[84.7,7666],[84.6,7750],[84.7,7833],[85,7919],[85.3,8000],[85.3,8082],[85.3,8165],[85.3,8248],[85.5,8332],[86.3,8417],[87.5,8504],[88.7,8584],[89.3,8668],[89.6,8753],[89.7,8832],[89.8,8917],[89.8,9001],[89.8,9082],[89.8,9166],[89.8,9249],[89.8,9333],[89.8,9417],[89.8,9498],[89.8,9584],[89.8,9665],[89.8,9749],[89.8,9834],[91.1,9917]]",1,0,557.9991,560.1661,94.69884237,1.6747,"[{""rating"":94.69884236653645,""responseTime"":1.6747000000476646}]",space,1.6358,,560.1662,Partially,50,560.1782,,,[],,0,15,15,15,1,audio/Narrative8Situation6.wav,audio/Narrative7Situation6.wav,audio/Narrative6Situation6.wav,audio/Narrative5Situation6.wav,2,3,2,3,,,,,,,,,,,,,,,,,,,,,,,,,,,,,,,,,,,,,,,
,,,,,,651c68265a8d5b5c6d589acf,2024-02-08_13h05.18.575,group3.1-3.2-social-tom,2023.2.2,MacIntel,59.99880002,65c5074098b851296ff0b7ed,65c5414acb0985acfd94fadc,,,,,,,,,,,,,,,,,,,,,,,,,,,,,560.1784,1,audio/Narrative7Situation7.wav,565.1824,,565.1824,582.3506,"[[79.1,2503],[50.8,2669],[50,2750],[50,2835],[47.6,2917],[34.3,2999],[29,3084],[29,3168],[42.7,3251],[55.6,3333],[58,3417],[59.7,3500],[60.7,3584],[60.8,3665],[60.8,3750],[60.8,3833],[60.8,3916],[60.8,4003],[60.8,4084],[63.6,4167],[67.6,4254],[69.3,4333],[70.1,4418],[70.1,4500],[70.1,4584],[69.8,4666],[69.8,4750],[69.8,4834],[69.8,4917],[69.8,4999],[69.8,5084],[69.8,5167],[69.8,5251],[69.8,5336],[69.8,5417],[69.8,5500],[69.8,5582],[69.8,5667],[69.8,5751],[69.8,5832],[69.8,5917],[69.8,5999],[69.8,6084],[69.8,6167],[69.8,6250],[69.8,6333],[69.8,6416],[69.8,6500],[69.8,6583],[69.8,6669],[69.8,6750],[69.8,6834],[69.8,6918],[69.8,7000],[69.8,7085],[69.8,7166],[69.8,7249],[87.2,7332],[100,7418],[100,7501],[100,7584],[100,7666],[100,7752],[100,7833],[100,7917],[100,8001],[100,8084],[100,8167],[100,8250],[100,8333],[100,8418],[100,8504],[100,8584],[100,8668],[100,8751],[100,8834],[100,8918],[100,9001],[100,9086],[100,9166],[100,9251],[100,9334],[100,9418],[100,9501],[100,9585],[100,9671],[100,9751],[100,9839],[100,9918],[100,10003],[100,10084],[100,10168],[100,10250],[100,10334],[100,10417],[100,10500],[100,10584],[100,10668],[100,10751],[100,10835],[100,10919],[100,11001],[100,11085],[100,11170],[100,11249],[100,11335],[100,11416],[100,11500],[100,11584],[100,11667],[100,11751],[100,11832],[100,11916],[100,12001],[100,12084],[100,12168],[100,12250],[100,12335],[100,12417],[100,12501],[100,12585],[100,12668],[100,12753],[100,12836],[100,12918],[100,13001],[100,13085],[100,13167],[100,13249],[100,13334],[100,13417],[100,13500],[100,13584],[100,13668],[100,13751],[100,13836],[100,13916],[100,14002],[100,14085],[100,14168],[100,14252],[100,14334],[100,14417],[100,14499],[100,14585],[100,14668],[100,14751],[100,14834],[100,14918],[100,15001],[100,15085],[100,15168],[100,15251],[100,15334],[100,15417],[100,15500],[100,15585],[100,15666],[100,15753],[100,15833],[100,15918],[100,16001],[100,16083],[100,16168],[100,16250],[100,16334],[100,16418],[100,16501],[100,16584],[100,16668],[100,16751],[100,16833],[100,16919],[100,17001],[100,17084],[100,17168]]",1,0,582.3509,588.9526,99.57249959,5.2268,"[{""rating"":99.57249959309895,""responseTime"":5.226799999952391}]",space,6.0844,,588.9526,Not at all,0,588.9625,,,[],,0,16,16,16,1,audio/Narrative8Situation7.wav,audio/Narrative7Situation7.wav,audio/Narrative6Situation7.wav,audio/Narrative5Situation7.wav,3,5,5,4,,,,,,,,,,,,,,,,,,,,,,,,,,,,,,,,,,,,,,,
,,,,,,651c68265a8d5b5c6d589acf,2024-02-08_13h05.18.575,group3.1-3.2-social-tom,2023.2.2,MacIntel,59.99880002,65c5074098b851296ff0b7ed,65c5414acb0985acfd94fadc,,,,,,,,,,,,,,,,,,,,,,,,,,,,,588.9627,1,audio/Narrative7Situation8.wav,590.9688,,590.9689,600.9881,"[[99.1,1833],[92.1,1919],[45.2,2499],[34.8,2585],[29.9,2667],[29,2752],[27.8,2832],[22.1,2920],[20.9,3000],[20.9,3081],[20.9,3168],[20.9,3250],[20.9,3332],[20.9,3416],[20.9,3501],[20.9,3582],[20.9,3666],[20.9,3749],[20.9,3833],[20.9,3919],[20.9,3999],[20.9,4084],[20.9,4168],[20.9,4249],[20.9,4335],[20.9,4416],[20.9,4499],[20.9,4583],[20.9,4667],[20.9,4752],[20.9,4835],[20.9,4916],[20.9,5002],[20.9,5082],[20.9,5167],[20.9,5250],[20.9,5336],[20.9,5417],[20.9,5500],[20.9,5582],[20.9,5668],[20.9,5749],[20.9,5833],[20.9,5917],[20.9,6003],[20.9,6083],[20.9,6168],[20.9,6249],[20.9,6333],[20.9,6415],[20.9,6498],[20.9,6583],[20.9,6665],[20.9,6750],[20.9,6833],[20.9,6916],[20.9,7002],[20.9,7083],[20.9,7166],[20.9,7250],[20.9,7333],[20.9,7416],[20.9,7500],[20.9,7583],[20.9,7667],[20.9,7755],[20.9,7832],[20.9,7918],[20.9,7999],[20.9,8083],[20.9,8170],[20.9,8251],[20.9,8331],[20.9,8419],[20.9,8500],[20.9,8583],[20.9,8666],[20.9,8749],[20.9,8833],[20.9,8916],[20.9,9000],[20.9,9085],[20.9,9167],[20.9,9250],[20.9,9333],[20.9,9416],[20.9,9499],[20.9,9583],[20.9,9669],[20.9,9747],[20.9,9833],[20.9,9917],[20.9,10000]]",1,0,600.9885,615.6717,49.73061456,8.5545,"[{""rating"":49.730614556206596,""responseTime"":2.187999999999988},{""rating"":49.730614556206596,""responseTime"":8.554500000000075}]",space,14.1373,,615.6718,Definitely yes,100,615.6835,,,[],,0,17,17,17,1,audio/Narrative8Situation8.wav,audio/Narrative7Situation8.wav,audio/Narrative6Situation8.wav,audio/Narrative5Situation8.wav,3,2,5,3,,,,,,,,,,,,,,,,,,,,,,,,,,,,,,,,,,,,,,,
,,,,,,651c68265a8d5b5c6d589acf,2024-02-08_13h05.18.575,group3.1-3.2-social-tom,2023.2.2,MacIntel,59.99880002,65c5074098b851296ff0b7ed,65c5414acb0985acfd94fadc,,,,,,,,,,,,,,,,,,,,,,,,,,,,,615.6839,1,audio/Narrative7Situation9.wav,617.6862,,617.6863,626.3067,"[[999,0],[999,84],[999,167],[999,252],[999,333],[999,417],[999,501],[999,586],[999,669],[999,753],[999,837],[999,917],[999,1003],[999,1084],[999,1168],[999,1250],[999,1336],[999,1418],[999,1500],[999,1584],[999,1670],[999,1751],[999,1834],[999,1917],[999,2001],[999,2084],[999,2167],[999,2251],[999,2335],[999,2417],[999,2501],[999,2584],[999,2667],[999,2753],[36.3,2834],[28.6,2918],[27.9,3003],[27.9,3084],[27.7,3170],[27.7,3250],[28,3336],[49.1,3419],[57.2,3501],[59.8,3585],[62.6,3668],[68.4,3749],[75.4,3835],[82.7,3919],[87.5,4004],[92.1,4088],[99.3,4168],[100,4335],[100,4418],[100,4501],[100,4584],[100,4669],[100,4752],[100,4834],[100,4920],[100,5005],[100,5084],[100,5170],[100,5253],[100,5334],[100,5420],[100,5503],[100,5586],[100,5669],[100,5750],[100,5834],[100,5917],[100,6000],[100,6084],[100,6167],[100,6254],[100,6335],[100,6417],[100,6501],[100,6582],[100,6668],[100,6754],[100,6837],[100,6918],[100,7002],[100,7083],[100,7167],[100,7253],[100,7334],[100,7418],[100,7500],[100,7584],[100,7668],[100,7751],[100,7834],[100,7917],[100,8001],[100,8084],[100,8168],[100,8251],[100,8336],[100,8418],[100,8503],[100,8586]]",1,0,626.307,630.0886,99.5451355,3.2379,"[{""rating"":99.54513549804688,""responseTime"":3.2379000000954647}]",space,3.238,,630.0887,Partially,50,630.1122,,,[],,0,18,18,18,1,audio/Narrative8Situation9.wav,audio/Narrative7Situation9.wav,audio/Narrative6Situation9.wav,audio/Narrative5Situation9.wav,3,2,4,3,,,,,,,,,,,,,,,,,,,,,,,,,,,,,,,,,,,,,,,
,,,,,,651c68265a8d5b5c6d589acf,2024-02-08_13h05.18.575,group3.1-3.2-social-tom,2023.2.2,MacIntel,59.99880002,65c5074098b851296ff0b7ed,65c5414acb0985acfd94fadc,,,,,,,,,,,,,,,,,,,,,,,,,,,673.7757,676.358,676.3767,2,audio/Narrative13Situation2.wav,676.377,,676.377,706.1263,"[[96.7,784],[82,871],[73,954],[71.5,1031],[70.6,1143],[62.8,1299],[62.6,1380],[62.6,1463],[62.6,1549],[62.6,1631],[57.5,1719],[44.5,1797],[40.3,1880],[39.5,1967],[39.5,2047],[39.5,2136],[39.5,2212],[38,2297],[31.2,2380],[27.7,2463],[27,2545],[27,2630],[27,2714],[27,2797],[27,2880],[27,2963],[27,3047],[27,3133],[27,3215],[24.1,3302],[18.1,3383],[17.7,3462],[17.6,3549],[15.5,3635],[7.7,3714],[8.1,8380],[42.1,8468],[57.9,8547],[65.6,8631],[69.8,8714],[71.3,8796],[71.1,8881],[70.4,8963],[70.2,9047],[70,9130],[69.7,9212],[69.5,9297],[69.5,9380],[69.5,9464],[69.5,9548],[69.5,9630],[69.5,9713],[69.5,9797],[69.5,9880],[69.5,9965],[69.5,10047],[69.5,10131],[69.5,10215],[69.5,10297],[69.5,10379],[69.8,10465],[74.4,10548],[90.2,10633],[99.5,10713],[100,10797],[100,10880],[100,10964],[100,11046],[100,11133],[100,11214],[100,11297],[100,11379],[100,11464],[100,11548],[100,11630],[100,11715],[100,11797],[100,11880],[100,11964],[100,12047],[100,12131],[100,12214],[100,12297],[100,12381],[100,12465],[100,12547],[100,12630],[100,12712],[100,12797],[100,12881],[100,12964],[100,13046],[100,13129],[100,13214],[100,13297],[100,13381],[100,13463],[100,13547],[100,13630],[100,13713],[100,13797],[100,13880],[100,13964],[100,14046],[100,14129],[100,14214],[100,14297],[100,14381],[100,14465],[100,14547],[100,14631],[100,14714],[100,14798],[100,14881],[100,14963],[100,15049],[100,15132],[100,15212],[100,15297],[100,15379],[100,15463],[100,15549],[100,15631],[100,15714],[100,15797],[100,15881],[100,15964],[100,16046],[100,16129],[100,16215],[100,16297],[100,16379],[100,16465],[100,16548],[94.6,16631],[76.6,16717],[59,16798],[56.4,16881],[56.4,16967],[56.4,17047],[56.4,17134],[52.7,17214],[42.5,17298],[39.2,17381],[38.7,17463],[38.6,17549],[38.6,17629],[38.6,17713],[38.6,17798],[38.6,17881],[35.7,17966],[28.2,18048],[24.4,18131],[24.1,18215],[24,18298],[22.5,18383],[12.5,18466],[10.7,18548],[10.7,18634],[10.7,18714],[8.3,18799],[4.2,18881],[4,18963],[4,19052],[2.6,19132],[1.1,19217],[0.7,19298],[0.7,19381],[0.7,19463],[0.7,19548],[0.7,19630],[0.7,19713],[0.7,19798],[0.7,19881],[0.7,19964],[0.7,20048],[0.7,20131],[0.7,20215],[0.7,20297],[0.7,20381],[0.7,20465],[0.7,20548],[0.7,20631],[0.7,20716],[0.7,20798],[0.7,20881],[0.7,20967],[0.7,21048],[0.7,21132],[0.7,21214],[0.7,21298],[0.7,21379],[0.7,21465],[0.7,21548],[0.7,21634],[0.7,21715],[0.7,21797],[0.7,21881],[0.7,21965],[0.7,22048],[0.7,22131],[0.7,22215],[0.7,22297],[0.7,22379],[0.7,22464],[0.7,22547],[12.9,22630],[14.8,22716],[29.3,22798],[46.6,22881],[49.1,22963],[49.2,23046],[49.2,23133],[49.2,23215],[49.2,23297],[49.6,23383],[57.1,23465],[59.6,23548],[59.7,23630],[59.7,23715],[59.7,23798],[59.7,23881],[59.6,23964],[59.5,24049],[59.5,24132],[59.5,24215],[59.5,24297],[59.5,24381],[59.5,24466],[59.5,24548],[59.5,24634],[59.5,24716],[61.1,24802],[63.7,24882],[64.7,24964],[64.7,25048],[64.7,25132],[64.7,25215],[64.7,25297],[64.7,25379],[64.7,25465],[64.7,25548],[64.7,25630],[64.7,25716],[64.7,25798],[64.7,25880],[64.7,25964],[64.7,26049],[64.7,26131],[64.6,26215],[64.6,26298],[64.6,26382],[64.6,26466],[64.6,26548],[64.6,26630],[64.6,26717],[64.6,26804],[64.6,26882],[64.6,26965],[64.6,27049],[64.6,27132],[64.6,27215],[64.6,27297],[64.6,27383],[64.6,27465],[64.7,27548],[66.6,27630],[67,27716],[67.2,27801],[68.3,27882],[68.7,27964],[68.7,28048],[68.7,28132],[68.6,28217],[68.5,28299],[68.5,28381],[68.5,28465],[68.5,28547],[68.5,28633],[68.5,28716],[68.5,28798],[68.5,28881],[68.5,28965],[68.5,29049],[68.5,29132],[68.5,29215],[68.5,29298],[68.5,29382],[68.5,29465],[68.5,29547],[68.5,29632],[68.5,29715]]",1,0,706.1265,706.1359,,,[],,,,706.1359,Definitely yes,100,706.1462,,,[],,0,0,0,0,1,audio/Narrative13Situation2.wav,audio/Narrative13Situation2.wav,audio/Narrative13Situation2.wav,audio/Narrative13Situation2.wav,2,2,2,2,,,,,630.1133,673.7751,space,43.1428,,,,,,,,,,,,,,,,,,,,,,,,,,,,,,,
,,,,,,651c68265a8d5b5c6d589acf,2024-02-08_13h05.18.575,group3.1-3.2-social-tom,2023.2.2,MacIntel,59.99880002,65c5074098b851296ff0b7ed,65c5414acb0985acfd94fadc,,,,,,,,,,,,,,,,,,,,,,,,,,,,,706.1465,2,audio/Narrative6Situation1.wav,708.1593,,708.1593,734.7471,"[[67.7,2185],[59.7,2265],[45.7,2349],[33.8,2432],[30.9,2518],[31.3,2599],[31.3,2683],[31.3,2764],[31.3,2850],[30,2936],[27.6,3016],[26.7,3101],[20.8,3182],[17,3267],[16.4,3350],[15.6,3431],[14.5,3516],[14.4,3600],[14.4,3683],[14.2,3766],[0.9,4935],[6.2,5017],[17.8,5100],[21.1,5185],[21.2,5267],[21.2,5349],[21.2,5432],[31.1,5517],[62.8,5601],[68.6,5685],[71.2,5768],[71.8,5850],[71.8,5933],[71.8,6016],[71.8,6100],[71.8,6183],[71.8,6267],[71.8,6350],[71.8,6434],[71.8,6517],[71.8,6600],[71.8,6683],[71.8,6769],[71.8,6850],[71.8,6934],[71.8,7016],[71.8,7100],[84.8,7184],[100,7267],[100,7350],[100,7436],[100,7517],[100,7601],[100,7684],[100,7767],[100,7851],[100,7933],[100,8017],[100,8102],[100,8184],[100,8266],[100,8349],[100,8433],[100,8517],[100,8600],[100,8682],[100,8767],[100,8850],[100,8934],[100,9017],[100,9099],[100,9185],[100,9266],[100,9350],[100,9434],[100,9517],[100,9602],[100,9683],[100,9766],[100,9851],[100,9932],[100,10017],[100,10100],[100,10183],[100,10267],[100,10350],[100,10432],[100,10517],[100,10600],[100,10682],[100,10768],[100,10850],[100,10934],[100,11019],[92.2,11101],[44.2,11685],[42.7,11771],[40.1,11855],[36.3,11936],[35.6,12017],[35.6,12099],[35.6,12184],[29.5,12266],[16.9,12351],[11.9,12435],[6.5,12517],[5.4,12601],[5.4,12682],[4.5,12766],[4.9,21221],[15.1,21302],[20.5,21386],[43.1,21469],[49.5,22220],[52.3,22302],[54.4,22387],[55.1,22470],[56.3,22552],[57.5,22636],[58,22718],[58,22803],[58,22885],[58,22968],[58,23052],[58.8,23134],[59.1,23218],[59.2,23302],[59.2,23386],[59.3,23469],[59.3,23553],[58.5,23636],[56.6,23719],[53.8,23800],[52.6,23886],[52.5,23968],[52.5,24051],[52.4,24135],[50.1,24219],[49.6,24302],[49.6,24385],[49.6,24469],[49.6,24550],[49.6,24636],[49.6,24722],[49.6,24802],[49.6,24885],[49.6,24971],[49.6,25054],[49.6,25135],[49.6,25218],[49.6,25302],[49.6,25387],[49.6,25469],[49.6,25552],[49.6,25635],[49.6,25721],[49.6,25803],[49.6,25885],[49.6,25968],[49.6,26052],[49.6,26137],[49.6,26220],[49.6,26302],[49.6,26385],[49.6,26470],[49.6,26552]]",1,0,734.7475,745.763,33.22632684,10.5076,"[{""rating"":33.226326836480034,""responseTime"":10.507599999904642}]",space,10.4728,,745.7632,Definitely yes,100,745.7718,,,[],,0,1,1,1,1,audio/Narrative7Situation1.wav,audio/Narrative8Situation1.wav,audio/Narrative5Situation1.wav,audio/Narrative6Situation1.wav,2,5,5,2,,,,,,,,,,,,,,,,,,,,,,,,,,,,,,,,,,,,,,,
,,,,,,651c68265a8d5b5c6d589acf,2024-02-08_13h05.18.575,group3.1-3.2-social-tom,2023.2.2,MacIntel,59.99880002,65c5074098b851296ff0b7ed,65c5414acb0985acfd94fadc,,,,,,,,,,,,,,,,,,,,,,,,,,,,,745.7721,2,audio/Narrative6Situation2.wav,748.7789,,748.7793,777.2984,"[[28.1,1681],[20.7,1766],[18.9,1850],[18.4,1932],[12.6,2016],[4.5,2100],[2.5,2182],[2.1,2266],[3,5098],[4.7,5184],[5.4,5265],[5.7,5348],[5.7,5435],[5.7,5517],[5.7,5600],[5.6,5681],[7,5766],[35.3,5852],[45.7,5934],[49.2,6016],[50.5,6101],[53,6183],[56,6269],[56.7,6353],[56.3,6432],[55.9,6516],[55.9,6600],[54.1,6683],[53.4,6767],[53.1,6850],[52.5,6932],[52.3,7018],[51.1,7098],[50.3,7184],[50.2,7267],[49.8,7350],[49.6,7432],[49.6,7514],[49.5,7601],[49.5,7682],[49.5,7766],[49.5,7852],[49.5,7933],[49.5,8016],[49.5,8100],[49.5,8183],[49.5,8266],[49.5,8349],[49.5,8431],[49.5,8516],[49.5,8598],[49.5,8682],[49.5,8766],[49.5,8849],[49.5,8933],[49.5,9017],[49.5,9100],[49.5,9183],[49.5,9266],[49.5,9350],[49.5,9431],[49.5,9521],[49.5,9602],[49.5,9685],[49.5,9766],[49.5,9850],[49.5,9934],[49.5,10017],[49.5,10099],[49.5,10183],[49.5,10267],[49.5,10349],[49.5,10433],[49.5,10516],[49.5,10598],[49.5,10684],[49.5,10767],[49.5,10850],[49.5,10933],[49.5,11016],[49.5,11098],[49.5,11183],[49.5,11265],[49.5,11349],[49.5,11434],[49.5,11516],[49.5,11598],[49.5,11683],[49.5,11766],[49.5,11849],[49.5,11933],[49.5,12016],[49.5,12100],[49.5,12183],[49.5,12267],[49.5,12351],[49.5,12433],[49.5,12517],[49.5,12598],[49.5,12682],[49.5,12766],[49.5,12849],[49.5,12934],[49.5,13015],[49.5,13099],[49.5,13183],[49.5,13265],[49.5,13350],[49.5,13434],[49.5,13515],[49.5,13598],[49.7,13682],[54.5,13766],[59.1,13849],[60.2,13932],[60.4,14016],[60.4,14100],[60.4,14184],[60.4,14267],[60.4,14351],[60.4,14434],[60.4,14517],[61.4,14607],[65.6,14685],[69,14768],[71.3,14850],[72.7,14932],[76.5,15017],[93.8,15099],[98.4,15184],[98.5,15267],[98.4,15350],[98.3,15433],[98.3,15517],[98.6,15601],[99.2,15686],[99.6,15767],[99.6,15850],[99.6,15934],[99.6,16017],[99.6,16101],[99.6,16184],[99.6,16267],[99.6,16351],[99.6,16433],[99.6,16517],[99.6,16600],[99.6,16683],[99.6,16767],[99.6,16849],[99.3,16934],[99.1,17017],[99,17100],[99,17182],[99,17266],[99,17350],[99,17434],[99,17515],[99,17601],[99,17684],[99,17766],[99,17851],[99,17934],[99,18016],[99,18101],[99,18184],[99,18267],[99,18351],[99,18433],[99,18516],[99,18598],[99,18684],[99,18767],[99,18849],[99,18934],[99,19015],[99,19100],[99,19182],[99,19265],[99,19351],[99,19434],[99,19517],[99,19600],[99,19685],[99,19766],[99,19849],[99,19934],[99,20018],[99,20100],[99,20182],[99,20267],[99,20351],[99,20433],[99,20517],[99,20598],[99,20684],[99,20767],[99,20849],[99,20932],[99,21017],[99,21101],[99,21185],[99,21270],[99,21350],[99,21434],[99,21515],[99,21600],[99,21683],[99,21766],[99,21851],[99,21933],[99,22017],[99,22101],[99,22182],[99,22267],[99,22351],[99,22434],[99,22517],[99,22600],[99,22683],[99,22767],[99,22849],[99,22934],[99,23017],[99,23100],[99,23183],[99,23268],[99,23351],[99,23433],[99,23517],[99,23598],[99,23685],[99,23766],[99,23849],[99,23934],[99,24017],[99,24100],[99,24185],[99,24267],[99,24352],[99,24433],[99,24518],[99,24601],[99,24684],[99,24766],[99,24853],[99,24934],[99,25018],[99,25101],[99,25183],[99,25267],[99,25351],[99,25433],[99,25519],[99,25600],[99,25685],[99,25768],[99,25851],[99,25934],[99,26018],[99,26101],[99,26185],[99,26267],[99,26351],[99,26434],[99,26517],[99,26602],[99,26684],[99,26767],[99,26852],[99,26934],[99,27017],[99,27100],[99,27183],[99,27268],[99,27350],[99,27433],[99,27519],[99,27601],[99,27685],[99,27769],[99,27852],[99,27934],[99,28018],[99,28101],[99,28185],[99,28268],[99,28351],[99,28433],[99,28518]]",1,0,777.2988,782.1141,83.85232713,4.1421,"[{""rating"":83.85232713487414,""responseTime"":4.142099999904644}]",space,4.273,,782.1141,Partially,50,782.1257,,,[],,0,2,2,2,1,audio/Narrative7Situation2.wav,audio/Narrative8Situation2.wav,audio/Narrative5Situation2.wav,audio/Narrative6Situation2.wav,3,3,3,3,,,,,,,,,,,,,,,,,,,,,,,,,,,,,,,,,,,,,,,
,,,,,,651c68265a8d5b5c6d589acf,2024-02-08_13h05.18.575,group3.1-3.2-social-tom,2023.2.2,MacIntel,59.99880002,65c5074098b851296ff0b7ed,65c5414acb0985acfd94fadc,,,,,,,,,,,,,,,,,,,,,,,,,,,,,782.1259,2,audio/Narrative6Situation3.wav,787.1322,,787.1324,799.7497,"[[82.3,2168],[60.9,2249],[38.5,2333],[34.9,2414],[29.4,2499],[27.6,2581],[27.6,2666],[27.6,2750],[21.3,2832],[3.6,2915],[23.6,7083],[41.8,7166],[55.7,7251],[64.8,7334],[66.3,7418],[66.3,7502],[66.3,7583],[66.3,7668],[88.1,7752],[100,7834],[100,7918],[100,8000],[100,8084],[100,8166],[100,8252],[100,8335],[100,8416],[100,8502],[100,8585],[100,8666],[100,8751],[100,8832],[100,8916],[100,9001],[100,9083],[100,9167],[100,9251],[100,9334],[100,9417],[100,9500],[100,9581],[100,9668],[100,9750],[100,9833],[100,9918],[100,9998],[100,10083],[100,10166],[100,10249],[100,10334],[100,10416],[100,10500],[100,10584],[100,10664],[100,10750],[100,10833],[100,10918],[100,11000],[100,11083],[100,11167],[100,11252],[100,11333],[100,11417],[100,11499],[100,11583],[100,11667],[100,11750],[100,11833],[100,11918],[100,12000],[100,12083],[100,12168],[100,12250],[100,12336],[100,12417],[100,12500],[100,12582]]",1,0,799.7499,809.6338,99.6391805,9.1064,"[{""rating"":99.63918050130208,""responseTime"":9.106400000095391}]",space,9.3506,,809.634,Not at all,0,809.6448,,,[],,0,3,3,3,1,audio/Narrative7Situation3.wav,audio/Narrative8Situation3.wav,audio/Narrative5Situation3.wav,audio/Narrative6Situation3.wav,8,4,3,5,,,,,,,,,,,,,,,,,,,,,,,,,,,,,,,,,,,,,,,
,,,,,,651c68265a8d5b5c6d589acf,2024-02-08_13h05.18.575,group3.1-3.2-social-tom,2023.2.2,MacIntel,59.99880002,65c5074098b851296ff0b7ed,65c5414acb0985acfd94fadc,,,,,,,,,,,,,,,,,,,,,,,,,,,,,809.6449,2,audio/Narrative6Situation4.wav,811.6502,,811.6504,824.2515,"[[93.7,3335],[73.7,3419],[58.9,3504],[53.7,3584],[53.7,3667],[50.9,3755],[19.1,3837],[7.1,3920],[5.9,4004],[5.9,4085],[5.9,4168],[5.9,4254],[6.5,4334],[6.5,4417],[6.5,4500],[6.5,4585],[6.5,4668],[6.5,4750],[6.5,4833],[6.5,4918],[6.5,5000],[6.5,5084],[6.5,5171],[6.5,5254],[6.5,5333],[6.5,5416],[6.5,5500],[6.5,5582],[6.5,5666],[6.5,5749],[6.5,5832],[6.5,5918],[6.5,6000],[6.5,6083],[6.5,6169],[6.5,6257],[6.5,6334],[6.5,6417],[6.5,6500],[6.5,6585],[6.5,6666],[6.5,6750],[6.5,6834],[6.5,6917],[6.5,7001],[6.5,7081],[6.5,7165],[6.5,7253],[6.5,7334],[6.5,7417],[6.5,7500],[6.5,7583],[6.5,7667],[6.5,7748],[6.5,7832],[6.5,7918],[7.5,8001],[13.3,8084],[33.1,8920],[31.2,9003],[30.3,9085],[30.6,9167],[31.6,9256],[32,9336],[32.3,9418],[32.4,9498],[32.4,9584],[32.4,9667],[32.4,9750],[32.4,9834],[32.4,9914],[32.4,10003],[32.4,10083],[32.4,10165],[32.4,10253],[32.4,10334],[32.4,10418],[32.4,10499],[32.4,10585],[32.4,10667],[32.4,10750],[32.4,10834],[32.4,10917],[32.4,11001],[32.4,11082],[32.4,11166],[32.4,11257],[32.4,11333],[32.4,11417],[32.4,11498],[32.4,11584],[32.4,11667],[32.4,11750],[32.4,11832],[32.4,11918],[32.4,12004],[32.4,12086],[32.4,12168],[32.4,12256],[32.4,12333],[32.4,12420],[32.4,12500],[32.4,12586]]",1,0,824.2518,839.7061,23.39164734,2.3603,"[{""rating"":23.391647338867188,""responseTime"":2.3602999999523036}]",space,14.9029,,839.7062,Partially,50,839.7231,,,[],,0,4,4,4,1,audio/Narrative7Situation4.wav,audio/Narrative8Situation4.wav,audio/Narrative5Situation4.wav,audio/Narrative6Situation4.wav,3,3,1,2,,,,,,,,,,,,,,,,,,,,,,,,,,,,,,,,,,,,,,,
,,,,,,651c68265a8d5b5c6d589acf,2024-02-08_13h05.18.575,group3.1-3.2-social-tom,2023.2.2,MacIntel,59.99880002,65c5074098b851296ff0b7ed,65c5414acb0985acfd94fadc,,,,,,,,,,,,,,,,,,,,,,,,,,,,,839.7235,2,audio/Narrative6Situation5.wav,841.7361,,841.7364,849.7171,"[[19.3,1766],[18.9,1849],[18.7,1932],[20.1,2019],[25.9,2097],[28.8,2181],[29,2264],[29,2348],[29,2431],[29,2514],[29,2598],[29,2682],[29,2764],[29,2848],[29,2932],[29,3015],[29,3096],[28.8,3182],[26.8,3266],[32.8,3766],[39,3850],[44.3,3931],[46.7,4016],[48.1,4099],[49.9,4184],[51.2,4266],[51.2,4349],[50.4,4432],[50.4,4514],[50.4,4599],[50.4,4683],[50.4,4766],[50.4,4849],[50.4,4932],[50.4,5016],[50.4,5097],[50.4,5182],[50.4,5266],[50.4,5348],[50.4,5431],[50.4,5514],[50.4,5599],[50.4,5681],[50.4,5769],[50.4,5849],[50.4,5932],[50.4,6014],[50.4,6099],[50.4,6180],[50.4,6265],[50.4,6349],[50.4,6432],[50.4,6514],[50.4,6599],[50.4,6683],[50.4,6764],[50.4,6849],[50.4,6932],[50.4,7015],[50.4,7100],[50.4,7180],[50.4,7266],[50.4,7348],[50.4,7431],[50.4,7513],[50.4,7599],[50.4,7682],[50.4,7764],[50.4,7847],[50.4,7932]]",1,0,849.7173,857.4679,17.92708503,3.026,"[{""rating"":17.92708502875434,""responseTime"":3.0259999999999536}]",space,7.2178,,857.468,Partially,50,857.4783,,,[],,0,5,5,5,1,audio/Narrative7Situation5.wav,audio/Narrative8Situation5.wav,audio/Narrative5Situation5.wav,audio/Narrative6Situation5.wav,5,2,5,2,,,,,,,,,,,,,,,,,,,,,,,,,,,,,,,,,,,,,,,
,,,,,,651c68265a8d5b5c6d589acf,2024-02-08_13h05.18.575,group3.1-3.2-social-tom,2023.2.2,MacIntel,59.99880002,65c5074098b851296ff0b7ed,65c5414acb0985acfd94fadc,,,,,,,,,,,,,,,,,,,,,,,,,,,,,857.4786,2,audio/Narrative6Situation6.wav,859.4883,,859.4885,870.571,"[[14.2,1915],[9.5,1996],[9.1,2078],[9.1,2163],[9,2248],[8.9,2329],[8.9,2413],[9.5,2498],[13.7,2581],[28,2663],[40.1,2747],[41,2831],[40.7,2913],[40.7,2996],[40.7,3083],[42.1,3165],[46.9,3247],[48.3,3336],[49.1,3416],[50.1,3498],[50.1,3580],[50,3663],[50,3750],[50,3830],[50,3914],[50,3999],[50,4081],[50,4165],[50,4248],[50,4329],[50,4415],[50,4497],[50,4580],[50,4665],[50,4747],[50,4831],[50,4915],[50,4996],[50,5082],[50,5166],[59.1,5268],[72.7,5337],[76.9,5416],[76.9,5499],[76.9,5580],[76.9,5663],[76.9,5749],[76.9,5830],[76.9,5915],[76.9,5998],[76.9,6081],[76.8,6164],[76.8,6246],[76.5,6331],[76.5,6416],[76.4,6497],[76.4,6581],[76.4,6665],[76.4,6748],[76.2,6836],[75.8,6916],[75.8,6998],[75.8,7079],[75.8,7165],[75.5,7249],[75,7336],[74.5,7415],[74.1,7496],[74.1,7583],[74.1,7663],[74.1,7748],[74,7830],[74,7913],[74,7997],[74,8082],[74,8163],[74,8246],[74,8330],[74,8418],[74,8498],[74,8580],[74,8663],[74,8748],[74,8831],[74,8913],[74,8998],[74,9081],[74,9164],[74,9249],[74,9333],[74,9413],[74,9497],[73.9,9584],[73.6,9667],[73.6,9749],[73.6,9831],[73.6,9915],[73.6,9996],[73.6,10081],[73.6,10165],[73.6,10248],[73.6,10329],[73.6,10415],[73.6,10497],[73.6,10580],[73.6,10665],[73.6,10748],[73.6,10832],[73.6,10913],[73.6,10998],[73.6,11082]]",1,0,870.5713,881.6024,99.9889289,9.9572,"[{""rating"":99.98892890082465,""responseTime"":9.957200000047578}]",space,10.4919,,881.6025,Partially,50,881.6112,,,[],,0,6,6,6,1,audio/Narrative7Situation6.wav,audio/Narrative8Situation6.wav,audio/Narrative5Situation6.wav,audio/Narrative6Situation6.wav,3,2,3,2,,,,,,,,,,,,,,,,,,,,,,,,,,,,,,,,,,,,,,,
,,,,,,651c68265a8d5b5c6d589acf,2024-02-08_13h05.18.575,group3.1-3.2-social-tom,2023.2.2,MacIntel,59.99880002,65c5074098b851296ff0b7ed,65c5414acb0985acfd94fadc,,,,,,,,,,,,,,,,,,,,,,,,,,,,,881.6114,2,audio/Narrative6Situation7.wav,886.6213,,886.6214,911.4907,"[[98.1,2252],[80.4,2333],[27.5,2917],[23.8,3001],[20.6,3084],[14.3,3165],[13.8,3251],[13.8,3332],[10,3415],[1.3,3500],[3.8,7585],[61,8083],[70.3,8167],[75.5,8250],[77,8334],[77,8417],[77,8500],[90.9,8584],[97.9,8667],[100,8750],[100,8835],[100,8917],[100,8999],[100,9083],[100,9170],[100,9252],[100,9334],[100,9417],[100,9500],[100,9582],[100,9666],[99.8,9752],[99.7,9834],[99.7,9915],[99.7,10001],[99.7,10085],[99.7,10168],[99.7,10250],[99.7,10332],[99.7,10419],[99.7,10500],[99.7,10583],[99.7,10668],[99.7,10748],[99.7,10833],[99.7,10917],[99.7,11001],[99.7,11084],[99.7,11166],[99.7,11250],[99.7,11332],[99.7,11418],[99.7,11501],[99.7,11584],[99.7,11667],[99.7,11751],[99.7,11834],[99.7,11916],[99.7,11999],[99.7,12082],[99.7,12168],[99.7,12249],[99.7,12334],[99.7,12415],[99.7,12501],[99.7,12583],[99.7,12667],[99.7,12749],[99.7,12834],[99.7,12918],[99.7,13000],[99.7,13085],[99.7,13167],[99.7,13250],[99.7,13335],[99.7,13416],[99.7,13501],[99.7,13583],[99.7,13666],[99.7,13751],[99.7,13834],[99.7,13916],[99.7,13999],[99.7,14084],[99.7,14167],[99.7,14249],[99.7,14332],[99.7,14417],[99.7,14501],[99.7,14583],[99.7,14667],[99.7,14751],[99.7,14834],[99.7,14916],[99.7,15001],[99.7,15084],[99.7,15167],[99.7,15249],[99.7,15332],[99.7,15417],[99.7,15499],[99.7,15583],[99.7,15668],[99.7,15752],[99.7,15833],[99.7,15918],[99.7,16001],[99.7,16083],[99.7,16168],[99.7,16251],[99.7,16334],[99.7,16418],[99.7,16500],[99.7,16585],[99.7,16668],[99.7,16749],[99.7,16834],[99.7,16916],[99.7,17000],[99.7,17084],[99.7,17167],[99.7,17250],[99.7,17335],[99.7,17418],[99.7,17503],[99.7,17583],[99.7,17666],[99.7,17754],[99.7,17834],[99.7,17918],[99.7,17999],[99.7,18085],[99.7,18167],[99.7,18250],[99.7,18334],[99.7,18419],[99.7,18501],[99.7,18583],[99.7,18667],[99.7,18750],[99.7,18835],[99.7,18916],[99.7,19000],[99.7,19084],[99.7,19168],[99.7,19250],[99.7,19335],[99.7,19418],[99.7,19501],[99.7,19583],[99.7,19667],[99.7,19752],[99.7,19835],[99.7,19916],[99.7,20002],[99.7,20082],[99.7,20167],[99.7,20249],[99.7,20335],[99.7,20417],[99.7,20501],[99.7,20583],[99.7,20667],[99.7,20751],[99.7,20834],[99.7,20916],[99.7,21002],[99.7,21083],[99.7,21168],[99.7,21250],[99.7,21333],[99.7,21416],[99.7,21501],[99.7,21585],[99.7,21668],[99.7,21753],[99.7,21833],[99.7,21917],[99.7,22003],[99.7,22084],[99.7,22168],[99.7,22250],[99.7,22332],[99.7,22418],[99.7,22503],[99.7,22583],[99.7,22666],[99.7,22751],[99.7,22835],[99.7,22916],[99.7,23000],[99.7,23085],[99.7,23168],[99.7,23252],[99.7,23335],[99.7,23418],[99.7,23500],[99.7,23583],[99.7,23667],[99.7,23751],[99.7,23833],[99.7,23916],[99.7,24000],[99.7,24084],[99.7,24167],[99.7,24250],[99.7,24334],[99.7,24418],[99.7,24500],[99.7,24587],[99.7,24668],[99.7,24751],[99.7,24834]]",1,0,911.4909,914.6554,96.41847399,2.1101,"[{""rating"":96.41847398546007,""responseTime"":2.1101000001430066}]",space,2.62,,914.6555,Not at all,0,914.6688,,,[],,0,7,7,7,1,audio/Narrative7Situation7.wav,audio/Narrative8Situation7.wav,audio/Narrative5Situation7.wav,audio/Narrative6Situation7.wav,5,3,4,5,,,,,,,,,,,,,,,,,,,,,,,,,,,,,,,,,,,,,,,
,,,,,,651c68265a8d5b5c6d589acf,2024-02-08_13h05.18.575,group3.1-3.2-social-tom,2023.2.2,MacIntel,59.99880002,65c5074098b851296ff0b7ed,65c5414acb0985acfd94fadc,,,,,,,,,,,,,,,,,,,,,,,,,,,,,914.669,2,audio/Narrative6Situation8.wav,919.6746,,919.6746,926.5414,"[[999,0],[999,82],[999,164],[999,247],[999,334],[999,414],[999,498],[999,580],[999,667],[999,749],[999,832],[999,914],[999,999],[999,1082],[999,1164],[999,1249],[999,1332],[999,1416],[999,1499],[999,1581],[999,1666],[999,1749],[999,1833],[3.6,1999],[5.3,2083],[5.4,2166],[4.1,2250],[3.8,2331],[2.5,2416],[1.9,2499],[1.7,2582],[1.7,2663],[1.7,2747],[1.7,2832],[1.7,2914],[1.7,2999],[1.7,3081],[1.7,3165],[1.7,3250],[1.7,3330],[1.7,3417],[1.7,3498],[1.7,3584],[1.7,3666],[1.7,3749],[1.7,3831],[1.7,3916],[1.7,4001],[1.7,4082],[1.7,4165],[1.7,4250],[1.7,4331],[1.7,4416],[1.7,4499],[1.7,4580],[1.7,4666],[1.7,4748],[1.7,4831],[1.7,4917],[1.7,5000],[1.7,5082],[1.7,5166],[1.7,5249],[1.7,5333],[1.7,5416],[1.7,5498],[1.7,5583],[1.7,5666],[1.7,5749],[1.7,5831],[1.7,5914],[1.7,5999],[1.7,6082],[1.7,6166],[1.7,6248],[1.7,6333],[1.7,6416],[1.7,6498],[1.7,6581],[1.7,6666],[1.7,6749],[1.7,6831]]",1,0,926.5416,931.976,0.026571486,4.6481,"[{""rating"":0.026571485731335942,""responseTime"":4.648100000143131}]",space,4.8999,,931.9762,Partially,50,931.9893,,,[],,0,8,8,8,1,audio/Narrative7Situation8.wav,audio/Narrative8Situation8.wav,audio/Narrative5Situation8.wav,audio/Narrative6Situation8.wav,2,3,3,5,,,,,,,,,,,,,,,,,,,,,,,,,,,,,,,,,,,,,,,
,,,,,,651c68265a8d5b5c6d589acf,2024-02-08_13h05.18.575,group3.1-3.2-social-tom,2023.2.2,MacIntel,59.99880002,65c5074098b851296ff0b7ed,65c5414acb0985acfd94fadc,,,,,,,,,,,,,,,,,,,,,,,,,,,,,931.9896,2,audio/Narrative6Situation9.wav,935.992,,935.9921,945.9268,"[[0.3,1335],[0.6,1416],[0.5,1503],[0.4,1583],[0.4,1666],[0.4,1750],[0.4,1833],[0.4,1914],[0.4,1999],[0.4,2083],[0.4,2169],[0.4,2249],[0.4,2333],[0.4,2416],[0.4,2500],[0.4,2583],[0.4,2666],[0.4,2750],[0.4,2834],[0.4,2917],[0.4,3000],[0.4,3082],[0.4,3167],[0.4,3250],[0.4,3333],[0.4,3417],[0.4,3502],[0.4,3583],[0.4,3666],[0.4,3750],[0.4,3834],[0.4,3917],[0.4,4002],[0.4,4085],[0.4,4165],[0.4,4250],[0.4,4333],[0.4,4415],[0.4,4500],[0.4,4583],[0.4,4667],[0.4,4750],[0.4,4831],[0.4,4916],[0.4,5000],[0.4,5085],[0.4,5168],[0.4,5250],[0.4,5333],[0.4,5419],[0.4,5502],[0.4,5581],[0.4,5668],[0.4,5750],[0.4,5835],[0.4,5918],[0.4,6002],[0.4,6083],[0.4,6168],[0.4,6250],[0.4,6334],[0.4,6421],[0.4,6500],[0.4,6583],[0.4,6666],[0.4,6751],[0.4,6831],[0.4,6917],[0.4,7000],[0.4,7082],[0.4,7167],[0.4,7250],[0.4,7334],[0.4,7415],[0.4,7502],[0.4,7582],[0.4,7666],[0.4,7748],[0.4,7834],[0.4,7921],[0.4,7999],[0.4,8084],[0.4,8168],[0.4,8249],[0.4,8334],[0.4,8418],[0.4,8500],[0.4,8584],[0.4,8666],[0.4,8750],[0.4,8833],[0.4,8918],[0.4,9000],[0.4,9085],[0.4,9168],[0.4,9250],[0.4,9334],[0.4,9417],[0.4,9501],[0.4,9584],[0.4,9668],[0.4,9751],[0.4,9834],[0.4,9919]]",1,0,945.9271,948.6622,0.22661421,1.7409,"[{""rating"":0.22661421034071427,""responseTime"":1.7409000000953938}]",space,2.2019,,948.6622,Definitely yes,100,948.6712,,,[],,0,9,9,9,1,audio/Narrative7Situation9.wav,audio/Narrative8Situation9.wav,audio/Narrative5Situation9.wav,audio/Narrative6Situation9.wav,2,3,3,4,,,,,,,,,,,,,,,,,,,,,,,,,,,,,,,,,,,,,,,
,,,,,,651c68265a8d5b5c6d589acf,2024-02-08_13h05.18.575,group3.1-3.2-social-tom,2023.2.2,MacIntel,59.99880002,65c5074098b851296ff0b7ed,65c5414acb0985acfd94fadc,,,,,,,,,,,,,,,,,,,,,,,,,,,,,948.6714,2,audio/Narrative5Situation1.wav,953.6765,,953.6765,966.9766,"[[0.4,3168],[0.8,3250],[0.8,3331],[0.8,3417],[0.8,3499],[0.8,3581],[0.8,3667],[10.8,3749],[19.8,3833],[23.1,3915],[23.1,4000],[23.1,4084],[23.1,4165],[23.1,4248],[23.1,4333],[23.1,4415],[23.1,4499],[23.1,4581],[23.1,4666],[23.1,4750],[23.1,4832],[23.1,4916],[23.1,5000],[23.1,5082],[23.1,5166],[25.7,5250],[31.2,5331],[33.1,5416],[33.5,5498],[33.5,5583],[33,5667],[32.4,5754],[31.9,5832],[32.1,5918],[34,5998],[36.5,6084],[38.7,6166],[40,6248],[40.3,6335],[40.3,6416],[40.3,6499],[40.3,6582],[40.3,6667],[40.3,6748],[40.3,6833],[40.3,6917],[40.3,7000],[40.3,7083],[40.3,7165],[40.2,7248],[40.2,7333],[40.2,7416],[40.2,7497],[40.2,7581],[40.2,7667],[40.2,7750],[40.2,7832],[40.2,7914],[40.2,7998],[40.2,8083],[40.2,8170],[40.2,8249],[40.2,8334],[40.2,8416],[40.2,8498],[40.2,8584],[40.2,8665],[40.2,8749],[40.2,8832],[40.2,8915],[40.2,9000],[40.2,9083],[40.2,9165],[40.2,9250],[40.2,9333],[40.2,9416],[40.2,9499],[40.2,9581],[40.2,9667],[40.2,9749],[40.2,9832],[40.2,9915],[40.2,10000],[40.2,10083],[40.2,10165],[40.2,10250],[40.2,10334],[40.2,10417],[40.2,10500],[40.2,10581],[40.2,10665],[40.2,10749],[40.2,10833],[40.2,10917],[40.2,10999],[40.2,11086],[40.2,11167],[40.2,11250],[40.2,11332],[40.2,11417],[40.2,11499],[40.2,11581],[40.2,11668],[40.2,11749],[40.2,11834],[40.2,11917],[40.2,12001],[40.2,12084],[40.2,12170],[40.2,12250],[40.2,12334],[40.2,12416],[40.2,12498],[40.2,12584],[40.2,12666],[40.2,12749],[40.2,12835],[40.2,12917],[40.2,13000],[40.2,13083],[40.2,13167],[40.2,13249]]",1,0,966.9769,972.9942,16.14823235,3.6597,"[{""rating"":16.148232354058162,""responseTime"":3.6597000000476783}]",space,5.488,,972.9942,Partially,50,973.0063,,,[],,0,10,10,10,1,audio/Narrative8Situation1.wav,audio/Narrative7Situation1.wav,audio/Narrative6Situation1.wav,audio/Narrative5Situation1.wav,5,2,2,5,,,,,,,,,,,,,,,,,,,,,,,,,,,,,,,,,,,,,,,
,,,,,,651c68265a8d5b5c6d589acf,2024-02-08_13h05.18.575,group3.1-3.2-social-tom,2023.2.2,MacIntel,59.99880002,65c5074098b851296ff0b7ed,65c5414acb0985acfd94fadc,,,,,,,,,,,,,,,,,,,,,,,,,,,,,973.0066,2,audio/Narrative5Situation2.wav,976.0104,,976.0105,1005.4645,"[[16.1,754],[10.1,833],[2.8,915],[1.8,1004],[1.8,1082],[1.6,1167],[1.6,1249],[1.6,1332],[1.6,1418],[1.6,1498],[1.6,1584],[1.6,1666],[1.6,1749],[1.6,1834],[1.6,1917],[1.6,1999],[1.6,2081],[1.6,2165],[1.6,2251],[1.6,2334],[1.6,2415],[1.6,2501],[1.6,2583],[1.6,2666],[1.6,2749],[1.6,2832],[1.6,2915],[1.6,3000],[1.6,3082],[1.6,3167],[1.6,3250],[1.6,3333],[1.6,3419],[1.6,3500],[1.6,3584],[1.6,3667],[1.6,3750],[1.6,3834],[1.6,3917],[1.6,3999],[1.6,4085],[1.6,4166],[1.6,4250],[1.6,4334],[1.6,4417],[1.6,4499],[1.6,4583],[1.6,4666],[1.6,4748],[1.6,4836],[1.6,4918],[1.6,4999],[1.6,5082],[1.6,5169],[1.6,5253],[1.6,5334],[1.6,5415],[1.6,5501],[1.6,5583],[1.6,5666],[1.6,5749],[1.6,5834],[1.6,5917],[1.6,5999],[1.6,6084],[1.6,6168],[1.6,6249],[1.6,6332],[1.6,6417],[1.6,6501],[1.6,6583],[1.6,6666],[1.6,6748],[1.6,6834],[1.6,6916],[1.6,6999],[1.6,7084],[1.6,7167],[1.6,7251],[1.6,7333],[1.6,7416],[1.6,7501],[1.6,7584],[1.6,7669],[1.6,7749],[1.6,7834],[1.6,7919],[1.6,7999],[1.6,8084],[1.6,8168],[1.6,8250],[1.6,8336],[1.6,8417],[1.6,8501],[1.6,8583],[1.6,8666],[5.4,8752],[14.9,8835],[20.4,8918],[20.7,9004],[20.7,9084],[20.5,9168],[20.5,9250],[21,9333],[21,9418],[21.1,9501],[20.7,9583],[20.7,9666],[20.7,9751],[20.7,9834],[20.7,9917],[20.7,10003],[20.7,10085],[20.7,10167],[20.7,10251],[20.7,10334],[20.7,10418],[20.7,10501],[20.7,10584],[20.7,10666],[20.7,10750],[20.7,10833],[20.7,10916],[20.7,11003],[20.7,11085],[20.7,11167],[20.7,11250],[20.7,11334],[20.7,11418],[20.7,11499],[20.7,11583],[20.7,11669],[20.7,11749],[20.7,11834],[20.7,11918],[20.7,12002],[20.7,12084],[20.7,12166],[20.7,12250],[20.7,12335],[20.7,12417],[20.7,12501],[29.9,12583],[38.8,12666],[41,12754],[41.1,12834],[41.1,12918],[40.6,12999],[39.7,13084],[39,13166],[38.6,13253],[37.8,13333],[36.4,13419],[34,13501],[22.6,13584],[19.5,14003],[19.5,14085],[19.5,14171],[21.2,14252],[22.9,14336],[23.8,14416],[24.2,14501],[24.2,14582],[24.2,14666],[24.2,14751],[24.2,14833],[24.2,14919],[24.2,15003],[24.2,15085],[24.2,15168],[24.2,15250],[24.2,15333],[24.2,15418],[24.2,15501],[24.2,15583],[24.2,15670],[24.2,15754],[24.2,15834],[24.2,15920],[24.2,15999],[24.2,16085],[24.2,16168],[24.2,16252],[24.2,16333],[24.2,16418],[24.2,16500],[24.2,16585],[24.2,16666],[24.2,16752],[24.2,16834],[24.2,16915],[24.2,16999],[24.2,17083],[24.2,17166],[24.2,17250],[24.2,17333],[24.2,17417],[24.2,17501],[24.2,17583],[24.2,17666],[24.2,17752],[24.2,17835],[24.2,17920],[24.2,18001],[24.2,18085],[24.2,18166],[24.2,18250],[24.2,18334],[24.2,18417],[24.2,18501],[24.2,18584],[24.2,18668],[24.2,18752],[24.2,18835],[24.2,18918],[24.2,19001],[24.2,19085],[24.2,19168],[24.2,19250],[24.2,19333],[24.2,19417],[24.2,19502],[24.2,19585],[24.2,19667],[24.2,19751],[24.2,19834],[24.2,19916],[24.2,20000],[24.2,20085],[24.2,20168],[24.2,20252],[24.2,20336],[24.2,20417],[24.2,20500],[24.2,20586],[24.2,20668],[24.2,20752],[24.2,20833],[24.2,20918],[24.2,21003],[24.2,21085],[24.2,21168],[24.2,21254],[24.2,21336],[24.2,21419],[24.2,21501],[24.2,21586],[24.2,21670],[24.2,21750],[24.2,21834],[24.2,21921],[24.2,22006],[24.2,22086],[24.2,22169],[24.2,22252],[24.2,22337],[24.2,22418],[24.2,22502],[24.2,22585],[38.4,22669],[62.2,22753],[74.6,22834],[80.1,22920],[78.9,23008],[74.7,23085],[73.4,23166],[69.9,23254],[67.8,23336],[67.8,23419],[67.8,23502],[67.8,23586],[67.8,23670],[67.8,23750],[67.8,23835],[67.8,23921],[67.8,24002],[67.8,24086],[67.8,24170],[67.8,24258],[67.8,24336],[67.8,24419],[67.8,24503],[67.8,24583],[67.8,24669],[67.8,24753],[67.8,24836],[67.8,24920],[67.8,25004],[67.8,25086],[67.8,25168],[67.8,25253],[67.8,25337],[67.8,25419],[67.8,25503],[67.8,25586],[67.8,25669],[67.8,25751],[67.8,25836],[67.8,25921],[67.8,26002],[67.8,26086],[67.8,26172],[67.8,26252],[67.8,26336],[67.8,26419],[67.8,26502],[67.8,26586],[67.8,26669],[67.8,26754],[67.8,26834],[67.8,26918],[67.8,27004],[67.8,27083],[67.8,27177],[67.8,27255],[67.8,27335],[67.8,27420],[67.8,27504],[67.8,27583],[67.8,27670],[67.8,27750],[67.8,27836],[67.8,27920],[67.8,28004],[67.8,28088],[67.8,28170],[67.8,28253],[67.8,28336],[67.8,28419],[67.8,28503],[67.8,28586],[67.8,28669],[67.8,28753],[67.8,28836],[67.8,28918],[67.8,29003],[67.8,29086],[67.8,29169],[67.8,29253],[67.8,29336],[67.8,29419]]",1,0,1005.4649,1007.9307,67.60798136,1.8063,"[{""rating"":67.6079813639323,""responseTime"":1.8062999999522162}]",space,1.9399,,1007.9307,Definitely yes,100,1007.9407,,,[],,0,11,11,11,1,audio/Narrative8Situation2.wav,audio/Narrative7Situation2.wav,audio/Narrative6Situation2.wav,audio/Narrative5Situation2.wav,3,3,3,3,,,,,,,,,,,,,,,,,,,,,,,,,,,,,,,,,,,,,,,
,,,,,,651c68265a8d5b5c6d589acf,2024-02-08_13h05.18.575,group3.1-3.2-social-tom,2023.2.2,MacIntel,59.99880002,65c5074098b851296ff0b7ed,65c5414acb0985acfd94fadc,,,,,,,,,,,,,,,,,,,,,,,,,,,,,1007.941,2,audio/Narrative5Situation3.wav,1010.9475,,1010.9475,1024.848,"[[61.1,1180],[25.2,1265],[14.2,1347],[12.4,1432],[0.7,1848],[0.8,1932],[0.8,2014],[0.8,2099],[0.8,2180],[0.8,2265],[0.8,2349],[0.8,2430],[0.8,2514],[0.8,2598],[0.8,2681],[0.8,2764],[0.8,2849],[0.8,2932],[0.8,3014],[0.8,3100],[0.8,3182],[0.8,3265],[0.8,3347],[0.8,3433],[0.8,3516],[0.8,3599],[0.8,3681],[0.8,3766],[0.8,3849],[0.8,3931],[0.8,4017],[0.8,4100],[0.8,4183],[0.8,4266],[0.8,4348],[0.8,4432],[0.8,4516],[0.8,4600],[0.8,4681],[0.8,4767],[0.8,4848],[0.8,4936],[0.8,5015],[0.8,5099],[0.8,5183],[0.8,5265],[0.8,5347],[0.8,5431],[0.8,5517],[0.8,5598],[0.8,5682],[0.8,5766],[0.8,5849],[0.8,5932],[0.8,6017],[0.8,6100],[0.8,6183],[0.8,6265],[0.8,6348],[0.8,6433],[0.8,6515],[0.8,6598],[0.8,6681],[0.8,6765],[0.8,6847],[0.8,6933],[0.8,7014],[0.8,7099],[0.8,7182],[0.8,7265],[0.8,7349],[0.8,7432],[0.8,7516],[0.8,7598],[0.8,7683],[6,7767],[27.6,7848],[51.2,8198],[61.5,8283],[63.3,8365],[59.9,8451],[57.7,8531],[57.7,8616],[57.7,8698],[57.6,8782],[57.3,8867],[57.2,8947],[57.2,9031],[57.2,9116],[57.2,9198],[57.2,9281],[57.2,9366],[57.2,9449],[57.2,9532],[57.2,9614],[57.2,9700],[57.2,9784],[57.2,9865],[57.2,9948],[57.2,10033],[57.2,10115],[57.2,10198],[57.2,10283],[57.2,10367],[57.2,10448],[57.2,10532],[57.2,10617],[57.2,10700],[57.2,10783],[57.2,10867],[57.2,10948],[57.2,11031],[59.9,11117],[66.1,11197],[68,11284],[68.2,11365],[68.2,11449],[68.5,11533],[69,11617],[69,11700],[68.6,11784],[68.6,11868],[68.6,11950],[68.6,12034],[68.6,12115],[68.6,12198],[68.6,12282],[68.6,12364],[68.6,12449],[68.6,12531],[68.6,12616],[68.6,12698],[68.6,12783],[68.6,12865],[68.6,12950],[68.6,13033],[68.6,13116],[68.6,13198],[68.6,13281],[68.6,13366],[68.6,13449],[68.6,13533],[68.6,13617],[68.6,13700],[68.6,13782],[68.6,13865]]",1,0,1024.8482,1029.0153,98.82025825,3.5583,"[{""rating"":98.82025824652779,""responseTime"":3.5582999999523963}]",space,3.6217,,1029.0154,Partially,50,1029.0298,,,[],,0,12,12,12,1,audio/Narrative8Situation3.wav,audio/Narrative7Situation3.wav,audio/Narrative6Situation3.wav,audio/Narrative5Situation3.wav,4,8,5,3,,,,,,,,,,,,,,,,,,,,,,,,,,,,,,,,,,,,,,,
,,,,,,651c68265a8d5b5c6d589acf,2024-02-08_13h05.18.575,group3.1-3.2-social-tom,2023.2.2,MacIntel,59.99880002,65c5074098b851296ff0b7ed,65c5414acb0985acfd94fadc,,,,,,,,,,,,,,,,,,,,,,,,,,,,,1029.03,2,audio/Narrative5Situation4.wav,1030.0496,,1030.0497,1050.4496,"[[4.9,1586],[3.7,1665],[3.7,1747],[3.7,1829],[3.7,1913],[3.7,1997],[3.4,2080],[0.7,2163],[0.2,2245],[0.2,2330],[0.2,2413],[0.5,2500],[0.5,2582],[0.5,2664],[0.5,2747],[0.5,2829],[0.5,2915],[0.5,2998],[0.5,3080],[0.5,3163],[0.5,3246],[0.5,3331],[0.5,3413],[0.5,3496],[0.5,3582],[0.5,3664],[0.5,3748],[0.5,3832],[0.5,3915],[0.5,3999],[0.5,4083],[0.5,4165],[0.5,4248],[0.5,4331],[0.5,4414],[0.5,4515],[0.5,4597],[0.5,4680],[0.5,4763],[0.5,4848],[0.5,4931],[0.5,5015],[0.5,5098],[0.5,5182],[0.5,5264],[0.5,5347],[0.5,5431],[0.5,5514],[0.5,5597],[0.5,5684],[0.5,5764],[0.5,5855],[0.5,5930],[0.5,6014],[0.5,6097],[0.5,6182],[0.5,6264],[0.5,6347],[0.5,6430],[0.5,6514],[0.5,6597],[0.5,6682],[0.5,6765],[0.5,6848],[0.5,6932],[0.5,7013],[0.5,7098],[0.5,7182],[0.5,7264],[0.5,7348],[0.5,7432],[0.5,7514],[0.5,7599],[0.5,7680],[0.5,7765],[0.5,7849],[0.5,7931],[0.5,8014],[0.5,8100],[0.5,8181],[0.5,8264],[0.5,8348],[0.5,8432],[0.5,8515],[0.5,8599],[0.5,8682],[0.5,8765],[0.5,8847],[0.5,8931],[0.5,9016],[0.5,9098],[0.5,9182],[0.5,9263],[0.5,9347],[0.8,9435],[17.6,9514],[36.1,9601],[38.6,9684],[39.7,9764],[43.5,9847],[46.1,9931],[47,10013],[48.9,10099],[49.3,10182],[49.1,10266],[49,10349],[49,10431],[49,10515],[49,10597],[49,10681],[49,10765],[49,10849],[49,10931],[49,11014],[49,11096],[49,11181],[49,11264],[49,11348],[49,11432],[49,11516],[49,11597],[49,11683],[49,11763],[49,11847],[49,11931],[49,12014],[49,12099],[49,12181],[49,12264],[49,12347],[49,12432],[49,12514],[49,12597],[49,12681],[49,12765],[48.3,12853],[42.3,12930],[36.5,13014],[32.8,13096],[26.7,13180],[25.4,13266],[25.2,13349],[23.9,13430],[23,13516],[22.9,13597],[22.9,13684],[22.9,13765],[22.9,13848],[22.9,13932],[22.9,14016],[22.9,14100],[22.9,14181],[22.9,14264],[22.9,14347],[22.9,14432],[22.9,14516],[22.9,14597],[22.9,14681],[22.9,14767],[28.5,14854],[53.4,14931],[65.1,15016],[70.8,15097],[73.7,15184],[73.8,15270],[73.4,15354],[72.5,15436],[71.8,15518],[71.8,15600],[71.8,15681],[71.7,15766],[71.7,15848],[71.7,15931],[71.7,16016],[71.7,16099],[71.7,16183],[71.7,16266],[71.7,16350],[71.7,16432],[71.7,16514],[71.7,16600],[71.7,16681],[84.5,16766],[100,16849],[100,16933],[100,17014],[100,17102],[100,17183],[100,17267],[100,17349],[100,17431],[99.8,17516],[99.7,17597],[99.7,17683],[99.7,17765],[99.7,17849],[99.7,17934],[99.7,18016],[99.7,18107],[99.7,18183],[99.7,18266],[99.7,18350],[99.7,18432],[99.7,18516],[99.7,18602],[99.7,18685],[99.7,18766],[99.7,18855],[99.7,18931],[99.7,19016],[99.7,19099],[99.7,19183],[99.7,19267],[99.7,19350],[99.7,19433],[99.7,19517],[99.7,19600],[99.7,19684],[99.7,19767],[99.7,19854],[99.7,19931],[99.7,20017],[99.7,20100],[99.7,20182],[99.7,20266],[99.7,20350]]",1,0,1050.4498,1052.1016,99.72546048,1.2291,"[{""rating"":99.72546047634549,""responseTime"":1.2291000001430348}]",space,1.1159,,1052.1017,Partially,50,1052.1132,,,[],,0,13,13,13,1,audio/Narrative8Situation4.wav,audio/Narrative7Situation4.wav,audio/Narrative6Situation4.wav,audio/Narrative5Situation4.wav,3,3,2,1,,,,,,,,,,,,,,,,,,,,,,,,,,,,,,,,,,,,,,,
,,,,,,651c68265a8d5b5c6d589acf,2024-02-08_13h05.18.575,group3.1-3.2-social-tom,2023.2.2,MacIntel,59.99880002,65c5074098b851296ff0b7ed,65c5414acb0985acfd94fadc,,,,,,,,,,,,,,,,,,,,,,,,,,,,,1052.1136,2,audio/Narrative5Situation5.wav,1057.1177,,1057.1177,1072.5348,"[[90.7,499],[1.3,1347],[1.5,1430],[1,1514],[0.9,1599],[0.9,1685],[0.9,1765],[0.9,1849],[0.9,1933],[0.9,2019],[0.9,2098],[0.9,2183],[0.9,2266],[0.9,2348],[0.9,2436],[0.9,2514],[0.9,2599],[0.9,2682],[0.9,2763],[0.9,2850],[0.9,2932],[0.9,3016],[0.9,3101],[0.9,3182],[0.9,3266],[0.9,3349],[0.9,3431],[0.9,3516],[0.9,3599],[0.9,3683],[0.9,3764],[0.9,3849],[0.9,3931],[0.9,4016],[0.9,4097],[0.9,4183],[0.9,4265],[0.9,4350],[0.9,4435],[0.9,4516],[0.9,4599],[0.9,4682],[0.9,4765],[0.9,4847],[0.9,4933],[0.9,5016],[0.9,5100],[0.9,5183],[0.9,5266],[0.9,5349],[0.9,5431],[0.9,5513],[0.9,5600],[0.9,5683],[0.9,5767],[0.9,5850],[0.9,5935],[0.9,6016],[0.9,6099],[0.9,6180],[0.9,6264],[0.9,6348],[0.9,6431],[0.9,6516],[0.9,6599],[0.9,6683],[0.9,6766],[0.9,6847],[0.9,6932],[0.9,7018],[0.9,7100],[0.9,7182],[0.9,7267],[0.9,7349],[0.9,7432],[0.9,7516],[0.9,7599],[0.9,7683],[0.9,7767],[0.9,7850],[0.9,7933],[0.9,8016],[0.9,8100],[0.9,8184],[0.9,8267],[0.9,8351],[0.9,8435],[0.9,8517],[0.9,8600],[0.9,8680],[0.9,8767],[0.9,8850],[0.9,8934],[0.9,9018],[0.9,9101],[0.9,9183],[0.9,9268],[0.9,9352],[0.9,9433],[0.9,9517],[1,9599],[1,9683],[1,9769],[1,9851],[1,9934],[1,10014],[1,10100],[1,10184],[1,10264],[1,10348],[1,10434],[1,10517],[1,10599],[1,10683],[1,10767],[1,10849],[1,10932],[1,11015],[1,11098],[1,11183],[1,11266],[1,11347],[1,11433],[1,11518],[1,11599],[1,11682],[1,11767],[1,11852],[1,11933],[1,12017],[1,12101],[1,12184],[1,12266],[1,12351],[1,12434],[1,12517],[1,12599],[1,12685],[1,12767],[1,12849],[1,12933],[1,13017],[1,13098],[1,13183],[1,13267],[1,13348],[1,13434],[1,13516],[1,13601],[1,13684],[1,13767],[1,13850],[1,13933],[1,14015],[1,14098],[1,14183],[1,14265],[1,14350],[1,14432],[1,14518],[1,14598],[1,14684],[1,14768],[1,14850],[1,14933],[1,15017],[1,15097],[1,15183],[1,15268],[1,15348]]",1,0,1072.535,1073.9687,0.963367886,0.691,"[{""rating"":0.9633678860134554,""responseTime"":0.6910000000000309}]",space,0.9029,,1073.9688,Not at all,0,1073.9789,,,[],,0,14,14,14,1,audio/Narrative8Situation5.wav,audio/Narrative7Situation5.wav,audio/Narrative6Situation5.wav,audio/Narrative5Situation5.wav,2,5,2,5,,,,,,,,,,,,,,,,,,,,,,,,,,,,,,,,,,,,,,,
,,,,,,651c68265a8d5b5c6d589acf,2024-02-08_13h05.18.575,group3.1-3.2-social-tom,2023.2.2,MacIntel,59.99880002,65c5074098b851296ff0b7ed,65c5414acb0985acfd94fadc,,,,,,,,,,,,,,,,,,,,,,,,,,,,,1073.9792,2,audio/Narrative5Situation6.wav,1076.9859,,1076.986,1082.6718,"[[999,1],[999,83],[999,163],[999,249],[999,333],[999,417],[999,499],[999,582],[999,667],[999,750],[999,833],[999,918],[999,999],[999,1083],[999,1168],[15.3,2664],[46.9,3165],[47.7,3248],[47.7,3331],[47.7,3416],[47.7,3499],[47.7,3581],[50.4,3666],[52,3751],[52.2,3836],[52.2,3920],[52.1,4000],[51.6,4085],[50.7,4165],[50.3,4248],[50.3,4334],[50.3,4416],[50.3,4499],[50.3,4583],[50.3,4668],[50.3,4746],[50.3,4832],[50.3,4913],[50.3,4998],[50.3,5083],[50.3,5166],[50.3,5247],[50.3,5330],[50.3,5416],[50.3,5499],[50.3,5583],[50.3,5666]]",1,0,1082.6724,1087.2353,49.61830139,4.1709,"[{""rating"":49.61830139160156,""responseTime"":4.170899999857056}]",space,4.0218,,1087.2353,Not at all,0,1087.2431,,,[],,0,15,15,15,1,audio/Narrative8Situation6.wav,audio/Narrative7Situation6.wav,audio/Narrative6Situation6.wav,audio/Narrative5Situation6.wav,2,3,2,3,,,,,,,,,,,,,,,,,,,,,,,,,,,,,,,,,,,,,,,
,,,,,,651c68265a8d5b5c6d589acf,2024-02-08_13h05.18.575,group3.1-3.2-social-tom,2023.2.2,MacIntel,59.99880002,65c5074098b851296ff0b7ed,65c5414acb0985acfd94fadc,,,,,,,,,,,,,,,,,,,,,,,,,,,,,1087.2434,2,audio/Narrative5Situation7.wav,1091.2541,,1091.2541,1112.3204,"[[46.3,830],[14.6,918]]",1,0,1112.3205,1115.5387,1.014484829,2.4435,"[{""rating"":1.0144848293728304,""responseTime"":2.4435000000000855}]",space,2.685,,1115.5388,Partially,50,1115.5525,,,[],,0,16,16,16,1,audio/Narrative8Situation7.wav,audio/Narrative7Situation7.wav,audio/Narrative6Situation7.wav,audio/Narrative5Situation7.wav,3,5,5,4,,,,,,,,,,,,,,,,,,,,,,,,,,,,,,,,,,,,,,,
,,,,,,651c68265a8d5b5c6d589acf,2024-02-08_13h05.18.575,group3.1-3.2-social-tom,2023.2.2,MacIntel,59.99880002,65c5074098b851296ff0b7ed,65c5414acb0985acfd94fadc,,,,,,,,,,,,,,,,,,,,,,,,,,,,,1115.5527,2,audio/Narrative5Situation8.wav,1118.5551,,1118.5551,1127.3891,"[[0.7,1415],[0.6,1499],[0.8,1581],[0.8,1666],[0.9,1749],[0.9,1830],[0.9,1917],[0.9,1999],[0.9,2083],[0.9,2165],[0.9,2246],[0.9,2333],[0.9,2416],[0.9,2500],[0.9,2584],[0.9,2668],[0.9,2748],[0.9,2833],[0.9,2917],[0.9,3000],[0.9,3084],[0.9,3168],[0.9,3249],[0.9,3334],[0.9,3416],[0.9,3499],[0.9,3583],[0.9,3666],[0.9,3748],[0.9,3831],[0.9,3915],[0.9,4000],[0.9,4082],[0.9,4164],[0.9,4250],[0.9,4331],[0.9,4416],[0.9,4500],[0.9,4582],[0.9,4666],[0.9,4749],[0.9,4831],[0.9,4917],[0.9,4998],[0.9,5083],[0.9,5167],[0.9,5249],[0.9,5332],[0.9,5416],[0.9,5500],[0.9,5586],[0.9,5668],[0.9,5751],[0.9,5836],[0.9,5916],[0.9,5999],[0.9,6081],[0.9,6166],[0.9,6249],[0.9,6333],[0.9,6416],[0.9,6500],[0.9,6583],[0.9,6666],[0.9,6748],[0.9,6833],[0.9,6915],[0.9,6999],[0.9,7083],[0.9,7168],[0.9,7250],[0.9,7333],[0.9,7418],[0.9,7500],[0.9,7584],[0.9,7666],[0.9,7749],[0.9,7833],[0.9,7916],[0.9,7999],[0.9,8083],[0.9,8166],[0.9,8250],[0.9,8335],[0.9,8416],[0.9,8500],[0.9,8583],[0.9,8666],[0.9,8750],[0.9,8833]]",1,0,1127.3898,1129.0725,0.911971198,0.7594,"[{""rating"":0.911971198187933,""responseTime"":0.7594000000954111}]",space,1.1376,,1129.0726,Definitely yes,100,1129.0818,,,[],,0,17,17,17,1,audio/Narrative8Situation8.wav,audio/Narrative7Situation8.wav,audio/Narrative6Situation8.wav,audio/Narrative5Situation8.wav,3,2,5,3,,,,,,,,,,,,,,,,,,,,,,,,,,,,,,,,,,,,,,,
,,,,,,651c68265a8d5b5c6d589acf,2024-02-08_13h05.18.575,group3.1-3.2-social-tom,2023.2.2,MacIntel,59.99880002,65c5074098b851296ff0b7ed,65c5414acb0985acfd94fadc,,,,,,,,,,,,,,,,,,,,,,,,,,,,,1129.0821,2,audio/Narrative5Situation9.wav,1132.0885,,1132.0885,1171.6264,"[[17.2,9102],[26.8,9185],[29,9266],[30.3,9349],[31.8,9434],[32.4,9518],[32.4,9599],[32.4,9682],[32.4,9767],[32.4,9852],[32.4,9934],[32.4,10017],[32.4,10101],[32.7,10186],[35.9,10266],[39.9,10352],[43.5,10435],[44.3,10518],[44.3,10599],[44.3,10684],[44.3,10766],[45.3,10863],[46.8,10933],[48,11018],[49.4,11102],[49.5,11182],[49.6,11265],[49.6,11351],[49.6,11433],[49.6,11520],[50.1,11600],[50.2,11684],[50.2,11767],[50.2,11850],[50.2,11933],[50.2,12017],[50.2,12101],[50.2,12184],[50.2,12268],[50.2,12351],[50.2,12434],[50.2,12519],[50.2,12601],[50.2,12685],[50.2,12767],[50.2,12853],[50.2,12935],[50.2,13018],[50.2,13101],[50.2,13184],[50.2,13267],[50.2,13352],[50.2,13434],[50.2,13518],[50.2,13602],[50.2,13685],[50.2,13768],[50.2,13849],[50.2,13934],[50.2,14019],[50.2,14101],[50.2,14184],[50.2,14269],[50.2,14352],[50.2,14434],[50.2,14519],[50.2,14601],[50.2,14685],[50.2,14767],[50.2,14849],[50.2,14935],[50.2,15021],[50.2,15101],[50.2,15186],[50.2,15266],[50.2,15353],[50.2,15434],[50.2,15518],[50.2,15599],[50.2,15684],[50.2,15768],[50.2,15854],[50.2,15932],[50.9,16019],[56.4,16104],[59.5,16185],[59.8,16268],[59.8,16351],[60.6,16435],[61.4,16516],[61.7,16599],[61.7,16685],[61.7,16767],[61.7,16852],[61.7,16932],[61.7,17021],[61.7,17101],[61.7,17185],[61.7,17267],[61.7,17352],[61.7,17436],[61.7,17518],[61.7,17604],[61.7,17684],[61.7,17767],[61.7,17849],[61.7,17933],[61.7,18019],[61.7,18100],[61.7,18185],[61.7,18268],[61.7,18351],[61.7,18435],[61.7,18516],[61.7,18602],[61.7,18685],[61.7,18767],[61.7,18852],[61.7,18932],[61.7,19018],[61.7,19101],[61.7,19185],[61.7,19268],[61.7,19351],[61.7,19435],[61.7,19518],[61.7,19602],[61.7,19683],[61.7,19768],[61.7,19849],[61.7,19935],[61.7,20019],[61.7,20102],[61.7,20185],[61.7,20268],[61.7,20351],[61.7,20435],[61.7,20519],[61.7,20599],[61.7,20685],[61.7,20768],[61.7,20851],[61.7,20936],[61.7,21021],[61.7,21100],[61.7,21185],[61.7,21268],[61.7,21352],[61.7,21433],[61.7,21518],[61.7,21601],[61.7,21685],[61.7,21767],[61.7,21852],[61.7,21935],[61.7,22019],[61.7,22100],[61.7,22184],[61.7,22268],[61.7,22352],[61.7,22435],[61.7,22519],[61.7,22602],[61.7,22685],[61.7,22768],[61.7,22852],[61.7,22935],[61.7,23019],[61.7,23102],[61.7,23183],[61.7,23268],[61.7,23352],[61.7,23435],[61.7,23519],[61.7,23603],[61.7,23684],[61.7,23767],[61.7,23853],[61.7,23933],[58.9,24018],[54.3,24102],[52,24182],[49,24270],[44.8,24351],[44.2,24434],[44.2,24519],[44.2,24602],[42,24684],[31.7,24768],[29.3,24852],[28.1,24936],[27.5,25019],[27.5,25102],[27.5,25186],[24.1,25268],[17.2,25352],[15.8,25437],[15.8,25520],[15.8,25602],[15.8,25684],[15.8,25767],[15.8,25853],[15.8,25935],[15.8,26017],[15.8,26101],[16,26187],[20.3,26269],[13.5,27269],[13.7,27352],[24.7,27435],[37,27519],[39.5,27604],[39.5,27685],[39.5,27769],[39.6,27856],[45.2,27940],[46.9,28020],[47.4,28105],[48.4,28183],[48.8,28270],[49.8,28352],[50.2,28434],[50.2,28519],[50.2,28600],[50.2,28685],[50.2,28766],[50.2,28852],[50.2,28935],[50.2,29018],[50.2,29100],[50.2,29183],[50.2,29268],[50.2,29352],[50.2,29436],[50.2,29518],[50.2,29603],[50.2,29684],[50.2,29767],[50.2,29852],[50.2,29934],[50.2,30019],[50.2,30103],[50.2,30183],[50.2,30269],[50.2,30352],[56.3,30434],[65.6,30517],[71.8,30602],[72.9,30685],[72.9,30767],[72.9,30849],[72.9,30935],[73.3,31020],[82.8,31104],[89.7,31185],[96.7,31274],[98.1,31353],[98.9,31433],[98.9,31520],[99,31602],[99,31683],[99,31769],[99.2,31850],[99.2,31936],[99.2,32017],[99.2,32103],[99.2,32183],[99.2,32269],[99.2,32354],[99.8,32436],[99.9,32520],[99.9,32602],[99.9,32686],[99.9,32767],[99.9,32851],[99.9,32935],[99.9,33021],[99.9,33100],[99.9,33186],[99.9,33269],[99.9,33352],[99.9,33435],[99.9,33519],[99.9,33603],[99.9,33688],[99.9,33769],[99.9,33852],[99.9,33936],[99.9,34020],[99.9,34103],[99.9,34183],[99.9,34269],[99.9,34352],[99.9,34436],[99.9,34519],[99.9,34603],[99.9,34686],[99.9,34770],[99.9,34852],[99.9,34936],[99.9,35017],[99.9,35103],[99.9,35186],[99.9,35268],[99.9,35353],[99.9,35436],[99.9,35518],[99.9,35603],[99.9,35688],[99.9,35769],[98.9,35853],[95.5,35936],[93.7,36021],[93.6,36105],[93.6,36186],[93.7,36270],[93.7,36354],[93.7,36436],[93.7,36519],[93.7,36603],[90.6,36687],[78.8,36769],[75.7,36853],[75.2,36936],[75.5,37017],[75.5,37104],[75.5,37186],[67.2,37269],[52.5,37352],[49.7,37442],[50.5,37518],[50.5,37602],[50.5,37687],[50.5,37769],[50.5,37853],[48.6,37937],[41.2,38020],[38.3,38100],[38,38186],[39.1,38268],[39.1,38354],[39.1,38436],[39.1,38519],[37.9,38602],[32.4,38689],[31.4,38769],[31.3,38853],[31.3,38938],[31.3,39020],[31.3,39102],[31.3,39186],[31.3,39268],[31.2,39353],[31.2,39436],[31.2,39519]]",1,0,1171.6274,1176.7239,59.97688293,3.638,"[{""rating"":59.976882934570305,""responseTime"":3.63799999999992}]",space,4.5654,,1176.724,Definitely yes,100,1183.7396,99.97531467,5.8598,"[{""rating"":99.97531467013889,""responseTime"":5.859799999952429}]",space,0,18,18,18,1,audio/Narrative8Situation9.wav,audio/Narrative7Situation9.wav,audio/Narrative6Situation9.wav,audio/Narrative5Situation9.wav,3,2,4,3,,,6.4737,,,,,,,,,,,,,,,,,,,,,,,,,,,,,,,,,,,,
,,,,,,651c68265a8d5b5c6d589acf,2024-02-08_13h05.18.575,group3.1-3.2-social-tom,2023.2.2,MacIntel,59.99880002,65c5074098b851296ff0b7ed,65c5414acb0985acfd94fadc,,,,,,,,,,,,,,,,,,,,,,,,,,,,,,,,,,,,,,,,,,,,,,,,,,,,,,,,,,,,,,,,,,,,,,,,1183.7398,1243.7296,,,,1243.7307,1264.0175,space,19.9566,,,,,,,,,,,,,,,,,,,,,,,,,,
