exp_question,consent.started,consent.stopped,consentResponse.keys,consentResponse.rt,consentResponse.duration,participantID,date,expName,psychopyVersion,OS,frameRate,STUDY_ID,SESSION_ID,opening1.started,opening1.stopped,keyEndingOpening1.keys,keyEndingOpening1.rt,keyEndingOpening1.duration,volumeAdjust.started,volumeAdjust.stopped,endingAdjust.keys,endingAdjust.rt,endingAdjust.duration,opening2.started,opening2.stopped,keyEndingOpening.keys,keyEndingOpening.rt,keyEndingOpening.duration,mouse.x,mouse.y,mouse.leftButton,mouse.midButton,mouse.rightButton,mouse.time,instructionLoop.thisRepN,instructionLoop.thisTrialN,instructionLoop.thisN,instructionLoop.thisIndex,instructionLoop.ran,readyForAudio.started,readyForAudio.stopped,fixation.started,run,audio_played,fixation.stopped,endPractice.keys,audioPre.started,audioPre.stopped,continuousResponses_audio,continuousSlider.response,continuousSlider.rt,intRating.started,intRating.stopped,intQuestionSlider.response,intQuestionSlider.rt,intQuestionSlider.history,confirmResponse.keys,confirmResponse.rt,confirmResponse.duration,catchQuestion.started,catch_label,catch_value,catchQuestion.stopped,catchQuestionSlider.response,catchQuestionSlider.rt,catchQuestionSlider.history,confirmResponse_2.keys,audioRunLoop.thisRepN,audioRunLoop.thisTrialN,audioRunLoop.thisN,audioRunLoop.thisIndex,audioRunLoop.ran,conditions1_1,conditions2_1,conditions1_2,conditions2_2,dur1_1,dur2_1,dur1_2,dur2_2,endPractice.rt,endPractice.duration,confirmResponse_2.rt,confirmResponse_2.duration,runIntervalBreak.started,runIntervalBreak.stopped,endingBreakKey.keys,endingBreakKey.rt,endingBreakKey.duration,connection.started,connection.stopped,connectionEnding.keys,connectionEnding.rt,connectionEnding.duration,readyForText.started,readyForText.stopped,textPre.started,run_dup,textPre.stopped,continuousResponses_text,textRunLoop.thisRepN,textRunLoop.thisTrialN,textRunLoop.thisN,textRunLoop.thisIndex,textRunLoop.ran,text1_1,text1_2,text2_1,text2_2,runBreakText.started,runBreakText.stopped,endingBreakKey_2.keys,endingBreakKey_2.rt,endingBreakKey_2.duration,ending.started,ending.stopped,endingEnding.keys,endingEnding.rt,endingEnding.duration
social,0.0001,13.1761,y,12.8514,,651f877f99a86ed3d73471c5,2024-02-08_13h02.03.958,group3.1-3.2-social-tom,2023.2.2,MacIntel,59.88023952,65c5074098b851296ff0b7ed,65c5412c80ce2dd1a4552231,,,,,,,,,,,,,,,,,,,,,,,,,,,,,,,,,,,,,,,,,,,,,,,,,,,,,,,,,,,,,,,,,,,,,,,,,,,,,,,,,,,,,,,,,,,,,,,,,,,,,,,,,,
,,,,,,651f877f99a86ed3d73471c5,2024-02-08_13h02.03.958,group3.1-3.2-social-tom,2023.2.2,MacIntel,59.88023952,65c5074098b851296ff0b7ed,65c5412c80ce2dd1a4552231,13.1765,19.2764,space,6.0728,,,,,,,,,,,,,,,,,,,,,,,,,,,,,,,,,,,,,,,,,,,,,,,,,,,,,,,,,,,,,,,,,,,,,,,,,,,,,,,,,,,,,,,,,,,,,,,,,,,,,,
,,,,,,651f877f99a86ed3d73471c5,2024-02-08_13h02.03.958,group3.1-3.2-social-tom,2023.2.2,MacIntel,59.88023952,65c5074098b851296ff0b7ed,65c5412c80ce2dd1a4552231,,,,,,19.2765,62.7437,space,43.15,,,,,,,,,,,,,,,,,,,,,,,,,,,,,,,,,,,,,,,,,,,,,,,,,,,,,,,,,,,,,,,,,,,,,,,,,,,,,,,,,,,,,,,,,,,,,,,,,
,,,,,,651f877f99a86ed3d73471c5,2024-02-08_13h02.03.958,group3.1-3.2-social-tom,2023.2.2,MacIntel,59.88023952,65c5074098b851296ff0b7ed,65c5412c80ce2dd1a4552231,,,,,,,,,,,62.7492,76.0266,space,13.2563,,[],[],[],[],[],[],0,0,0,0,1,,,,,,,,,,,,,,,,,,,,,,,,,,,,,,,,,,,,,,,,,,,,,,,,,,,,,,,,,,,,,,,,,,,,,,,,,,,,,,,,
,,,,,,651f877f99a86ed3d73471c5,2024-02-08_13h02.03.958,group3.1-3.2-social-tom,2023.2.2,MacIntel,59.88023952,65c5074098b851296ff0b7ed,65c5412c80ce2dd1a4552231,,,,,,,,,,,76.0357,93.4098,space,17.2716,,[],[],[],[],[],[],1,0,1,0,1,,,,,,,,,,,,,,,,,,,,,,,,,,,,,,,,,,,,,,,,,,,,,,,,,,,,,,,,,,,,,,,,,,,,,,,,,,,,,,,,
,,,,,,651f877f99a86ed3d73471c5,2024-02-08_13h02.03.958,group3.1-3.2-social-tom,2023.2.2,MacIntel,59.88023952,65c5074098b851296ff0b7ed,65c5412c80ce2dd1a4552231,,,,,,,,,,,93.4196,114.0089,space,20.546,,[],[],[],[],[],[],2,0,2,0,1,,,,,,,,,,,,,,,,,,,,,,,,,,,,,,,,,,,,,,,,,,,,,,,,,,,,,,,,,,,,,,,,,,,,,,,,,,,,,,,,
,,,,,,651f877f99a86ed3d73471c5,2024-02-08_13h02.03.958,group3.1-3.2-social-tom,2023.2.2,MacIntel,59.88023952,65c5074098b851296ff0b7ed,65c5412c80ce2dd1a4552231,,,,,,,,,,,114.0193,140.9595,space,26.9151,,[],[],[],[],[],[],3,0,3,0,1,,,,,,,,,,,,,,,,,,,,,,,,,,,,,,,,,,,,,,,,,,,,,,,,,,,,,,,,,,,,,,,,,,,,,,,,,,,,,,,,
,,,,,,651f877f99a86ed3d73471c5,2024-02-08_13h02.03.958,group3.1-3.2-social-tom,2023.2.2,MacIntel,59.88023952,65c5074098b851296ff0b7ed,65c5412c80ce2dd1a4552231,,,,,,,,,,,140.97,161.4591,space,20.4659,,[],[],[],[],[],[],4,0,4,0,1,,,,,,,,,,,,,,,,,,,,,,,,,,,,,,,,,,,,,,,,,,,,,,,,,,,,,,,,,,,,,,,,,,,,,,,,,,,,,,,,
,,,,,,651f877f99a86ed3d73471c5,2024-02-08_13h02.03.958,group3.1-3.2-social-tom,2023.2.2,MacIntel,59.88023952,65c5074098b851296ff0b7ed,65c5412c80ce2dd1a4552231,,,,,,,,,,,,,,,,,,,,,,,,,,,161.4685,164.0427,164.0631,1,audio/Narrative13Situation2.wav,166.0762,,166.0765,195.8267,"[[999,1],[999,86],[999,167],[999,249],[999,332],[999,416],[999,499],[999,582],[999,665],[999,750],[999,835],[999,916],[999,1000],[999,1083],[23.6,1166],[23.6,1249],[23.6,1332],[25.3,1416],[29.5,1502],[31.3,1583],[32.7,1667],[33.4,1749],[33.6,1833],[33.6,1917],[33.6,2001],[36,2082],[38.4,2165],[41.5,2250],[41.6,2333],[41.6,2416],[41.6,2498],[41.6,2583],[41.6,2666],[41.6,2749],[41.6,2833],[41.6,2916],[41.6,2999],[41.6,3082],[41.6,3166],[41.6,3249],[41.6,3334],[41.6,3416],[41.6,3501],[42.8,3582],[44.2,3667],[44.4,3749],[44.7,3832],[45.1,3917],[45.1,3999],[45.1,4083],[45.1,4165],[45.2,4250],[45.7,4335],[46.4,4416],[46.4,4498],[46.5,4582],[47.2,4669],[47.5,4749],[48,4832],[48.8,4917],[49.4,5000],[50.1,5084],[50.5,5166],[50.9,5251],[51.8,5332],[52,5417],[52.4,5500],[53,5583],[53.1,5665],[53.1,5749],[53.1,5832],[53.1,5916],[53.1,5999],[53.1,6083],[53.1,6165],[53.1,6249],[53.1,6332],[53.1,6416],[53.1,6498],[53.1,6585],[53.1,6666],[53.1,6749],[53.1,6832],[53.1,6915],[53.1,6999],[53.1,7082],[53.1,7165],[53.1,7249],[53.1,7332],[53.1,7415],[53.1,7499],[53.1,7582],[53.1,7666],[53.1,7750],[53.9,7833],[54.2,7916],[54.2,7999],[54.2,8082],[54.2,8165],[54.2,8249],[54.2,8334],[57,8416],[86.4,9251],[87.3,9333],[87.9,9415],[88.4,9499],[88.9,9582],[88.9,9665],[88.9,9749],[88.9,9831],[88.9,9915],[88.9,9999],[88.9,10081],[88.9,10168],[88.9,10250],[88.9,10331],[88.9,10415],[88.9,10499],[88.9,10582],[88.9,10665],[88.9,10748],[88.9,10833],[88.9,10917],[88.9,10999],[88.9,11082],[88.9,11167],[88.9,11248],[88.9,11332],[88.9,11417],[88.9,11498],[88.9,11582],[88.9,11665],[88.9,11749],[88.9,11833],[88.9,11915],[88.9,12000],[88.9,12082],[88.9,12167],[88.9,12249],[88.9,12332],[88.9,12418],[88.9,12498],[88.9,12582],[88.9,12665],[88.9,12748],[88.9,12833],[88.9,12915],[88.9,12999],[88.9,13081],[88.9,13165],[88.9,13248],[88.9,13332],[88.9,13416],[88.9,13499],[88.9,13582],[88.9,13666],[88.9,13749],[88.9,13832],[88.9,13915],[88.9,13999],[88.9,14082],[88.9,14166],[88.9,14249],[88.9,14332],[88.9,14415],[88.9,14499],[88.9,14582],[88.9,14666],[88.9,14748],[88.9,14833],[88.9,14917],[88.9,14998],[88.9,15082],[88.9,15166],[88.9,15252],[88.9,15334],[88.9,15415],[88.9,15498],[88.9,15582],[88.9,15665],[88.9,15749],[88.9,15831],[88.9,15915],[88.9,15998],[88.9,16083],[88.9,16165],[88.9,16250],[85.9,16331],[82.1,16415],[81.6,16498],[80.4,16583],[78.5,16666],[75,16749],[74.3,16832],[73.4,16917],[70.3,17001],[69.3,17082],[68.5,17165],[66.2,17248],[61.8,17333],[60.6,17416],[59.9,17498],[57.9,17583],[57.3,17666],[56.7,17750],[55.9,17834],[55,17915],[54.2,18000],[52.8,18084],[52.1,18166],[51.6,18248],[50.8,18331],[50.3,18417],[49.3,18499],[47.9,18583],[45.4,18666],[44.5,18748],[43.5,18832],[42.6,18917],[41.7,19001],[40.8,19083],[40.6,19166],[40.3,19250],[39.3,19335],[39,19417],[38.4,19500],[33.7,19582],[32.5,19667],[32.5,19749],[31.6,19834],[29.5,19917],[29.4,19999],[28.7,20082],[24.9,20166],[23.4,20249],[20.9,20334],[15,20416],[14.4,20500],[12.7,20583],[11.6,20670],[11.5,20751],[11.5,20832],[11.5,20919],[11.5,20999],[11.5,21082],[10.9,21169],[10.3,21248],[10.2,21332],[9.6,21416],[9,21500],[8.3,21583],[7.7,21668],[7.7,21749],[7.1,21835],[6.1,21915],[6,21999],[6,22082],[6,22165],[6,22249],[6,22333],[6,22415],[6,22499],[6,22582],[7.6,22665],[21.5,22749],[32.6,22832],[43.7,22915],[55.3,23000],[65.7,23084],[81.4,23165],[94.9,23249],[96.8,23334],[100,23415],[100,23499],[100,23582],[100,23668],[100,23749],[100,23833],[100,23915],[100,24000],[100,24082],[100,24166],[100,24250],[100,24332],[100,24418],[100,24499],[100,24584],[100,24668],[100,24751],[100,24833],[100,24916],[100,24998],[100,25082],[100,25165],[100,25248],[100,25335],[100,25415],[100,25499],[100,25582],[100,25665],[100,25748],[100,25832],[100,25916],[100,25999],[97,26083],[84.2,26168],[67.4,26250],[44.6,26334],[24.8,26415],[6.3,26499],[4.3,26585],[4.3,26665],[4.3,26749],[4.3,26833],[4.3,26917],[4.3,27001],[4.3,27081],[4.3,27165],[4.3,27249],[4.3,27332],[4.3,27415],[4.3,27498],[4.3,27581],[4.3,27665],[4.3,27749],[4.3,27832],[4.3,27915],[4.3,28000],[4.3,28082],[4.3,28168],[4.3,28250],[4.3,28332],[4.3,28416],[4.3,28498],[4.3,28582],[4.3,28665],[4.3,28749],[4.3,28832],[4.3,28915],[4.3,28999],[4.3,29082],[4.3,29165],[4.3,29252],[4.3,29332],[4.3,29415],[4.3,29499],[4.3,29582],[4.3,29665],[4.3,29749]]",1,0,195.8271,203.9766,5.039037069,5.1521,"[{""rating"":5.039037068684898,""responseTime"":5.15209999999405}]",space,7.5995,,203.9874,Partially,50,203.9894,,,[],,0,0,0,0,1,audio/Narrative13Situation2.wav,audio/Narrative13Situation2.wav,audio/Narrative13Situation2.wav,audio/Narrative13Situation2.wav,2,2,2,2,,,,,,,,,,,,,,,,,,,,,,,,,,,,,,,,,,,,,,,
,,,,,,651f877f99a86ed3d73471c5,2024-02-08_13h02.03.958,group3.1-3.2-social-tom,2023.2.2,MacIntel,59.88023952,65c5074098b851296ff0b7ed,65c5412c80ce2dd1a4552231,,,,,,,,,,,,,,,,,,,,,,,,,,,,,203.9896,1,audio/Narrative8Situation1.wav,207.5088,space,207.5088,223.4257,"[[19.1,1333],[41.2,1417],[43,1500],[43.8,1583],[48.5,1666],[50.3,1750],[50,1836],[49.8,1917],[49.7,2000],[38.7,2082],[14.6,2167],[8.2,2250],[8.2,2335],[8.2,2416],[8.2,2500],[20.4,2584],[37.6,2667],[38.3,2750],[38.3,2833],[38.3,2916],[32.3,2999],[27.7,3085],[27.2,3166],[27.2,3250],[27.2,3333],[27.2,3417],[27.2,3503],[27.2,3583],[27.2,3667],[31.4,3750],[44.7,3833],[45.2,3917],[45.9,3999],[50.7,4083],[52.5,4167],[52.5,4249],[52.5,4332],[52.5,4419],[52.5,4499],[52.5,4583],[53.1,4666],[81.4,5332],[81.8,5417],[83.1,5500],[87.4,5584],[88.5,5668],[92,5751],[92.4,5833],[92.4,5916],[92.4,6001],[92.6,6085],[93.2,6167],[93.6,6249],[93.7,6335],[93.7,6415],[93.7,6502],[93.7,6583],[93.6,6666],[93.6,6750],[93.6,6833],[93.6,6919],[93.6,6999],[93.6,7084],[93.6,7168],[93.6,7249],[93.6,7332],[93.6,7416],[93.4,7499],[76.9,7583],[69.7,7666],[62,7751],[45.1,7833],[27.8,7916],[12.8,8000],[3,8084],[5.6,9250],[48,9336],[72.8,9418],[75.3,9500],[80.1,9583],[89.7,9666],[94.6,9751],[99.4,9833],[99.4,9918],[99.4,10001],[99.4,10083],[99.4,10166],[99.4,10250],[99.4,10333],[99.4,10419],[99.4,10499],[99.4,10583],[99.4,10667],[99.4,10750],[99.4,10832],[99.4,10916],[99.4,11001],[99.4,11084],[99.4,11166],[99.4,11253],[99.4,11332],[99.4,11419],[99.4,11500],[99.4,11583],[99.4,11667],[99.4,11751],[99.3,11833],[99.3,11919],[99.3,12001],[99.3,12084],[99.3,12166],[99.3,12249],[99.3,12333],[99.3,12415],[99.3,12500],[99.3,12582],[99.3,12666],[99.3,12750],[99.3,12834],[99.3,12920],[99.3,13000],[99.3,13083],[99.3,13166],[99.3,13250],[99.3,13332],[99.3,13417],[99.3,13499],[99.3,13582],[99.3,13667],[99.3,13750],[99.3,13833],[99.3,13916],[99.3,13999],[99.3,14084],[99.3,14166],[99.3,14250],[99.3,14332],[99.3,14417],[99.3,14500],[99.3,14583],[99.3,14666],[99.3,14750],[99.3,14833],[99.3,14916],[99.3,14998],[99.3,15083],[99.3,15166],[99.3,15250],[99.3,15332],[99.3,15416],[99.3,15499],[99.3,15584],[99.3,15666],[99.3,15750],[99.3,15832],[99.3,15916]]",1,0,223.4259,226.9749,99.33663686,2.2536,"[{""rating"":99.33663686116536,""responseTime"":2.2536000000014837}]",space,3.0001,,226.975,Partially,50,226.9763,,,[],,0,1,1,1,1,audio/Narrative7Situation1.wav,audio/Narrative8Situation1.wav,audio/Narrative5Situation1.wav,audio/Narrative6Situation1.wav,2,5,5,2,3.498,,,,,,,,,,,,,,,,,,,,,,,,,,,,,,,,,,,,,,
,,,,,,651f877f99a86ed3d73471c5,2024-02-08_13h02.03.958,group3.1-3.2-social-tom,2023.2.2,MacIntel,59.88023952,65c5074098b851296ff0b7ed,65c5412c80ce2dd1a4552231,,,,,,,,,,,,,,,,,,,,,,,,,,,,,226.9765,1,audio/Narrative8Situation2.wav,229.9923,,229.9924,240.1443,"[[68.2,499],[33.7,585],[22.6,669],[20,749],[9.1,833],[2.2,916],[2,999],[1.9,1083],[1.9,1166],[1.9,1249],[1.9,1333],[1.9,1415],[1.9,1499],[3.3,1583],[17.9,1665],[31.7,1752],[33.6,1833],[33.6,1915],[33.6,2001],[33.6,2086],[24.9,2166]]",1,0,240.1444,242.6257,1.290225983,1.4035,"[{""rating"":1.2902259826660156,""responseTime"":1.4035000000000366}]",space,1.9325,,242.6258,Definitely yes,100,242.6286,,,[],,0,2,2,2,1,audio/Narrative7Situation2.wav,audio/Narrative8Situation2.wav,audio/Narrative5Situation2.wav,audio/Narrative6Situation2.wav,3,3,3,3,,,,,,,,,,,,,,,,,,,,,,,,,,,,,,,,,,,,,,,
,,,,,,651f877f99a86ed3d73471c5,2024-02-08_13h02.03.958,group3.1-3.2-social-tom,2023.2.2,MacIntel,59.88023952,65c5074098b851296ff0b7ed,65c5412c80ce2dd1a4552231,,,,,,,,,,,,,,,,,,,,,,,,,,,,,242.6287,1,audio/Narrative8Situation3.wav,246.6426,,246.6426,269.0092,"[[2.1,1250],[2.3,1334],[2.3,1416],[2.3,1500],[2.3,1583],[2.3,1666],[2.3,1749],[2.3,1836],[2.3,1916],[2.3,1999],[2.3,2083],[2.3,2166],[2.3,2250],[2.3,2332],[2.3,2415],[2.3,2499],[2.3,2583],[2.3,2666],[2.3,2749],[2.3,2833],[2.3,2916],[2.3,3001],[2.3,3085],[2.3,3169],[2.3,3249],[2.3,3334],[2.3,3416],[3.9,3500],[12.2,3582],[17.8,3666],[34.6,3750],[46.5,3834],[50.5,3919],[53.6,3999],[56.3,4086],[56,4166],[52.1,4249],[51.5,4334],[51.5,4416],[51.5,4499],[51.5,4582],[51.5,4666],[51.5,4749],[51.5,4833],[51.5,4916],[51.5,5001],[51.5,5082],[51.5,5166],[51.5,5250],[51.5,5331],[51.5,5418],[51.5,5502],[51.5,5581],[51.5,5666],[51.5,5750],[51.5,5833],[51.5,5917],[51.5,5999],[51.5,6081],[51.5,6167],[51.5,6250],[51.5,6333],[51.5,6415],[51.5,6499],[51.5,6582],[51.5,6666],[51.5,6749],[51.5,6835],[51.5,6917],[51.5,7000],[51.5,7084],[51.5,7166],[51.5,7249],[62.5,7332],[77.3,7420],[90.6,7498],[92.7,7583],[96.1,7665],[100,7749],[100,7833],[99.2,7916],[99.1,7998],[99,8082],[99,8165],[99,8250],[99,8333],[99,8417],[99,8499],[99,8582],[99,8665],[99,8753],[99,8833],[99,8916],[99,8999],[99,9083],[99,9168],[99,9253],[99,9333],[99,9415],[99,9500],[99,9582],[99,9668],[99,9749],[99,9835],[99,9916],[99,9999],[99,10083],[99,10165],[99,10249],[99,10333],[99,10415],[99,10499],[99,10583],[99,10666],[99,10749],[99,10835],[99,10916],[99,11000],[99,11084],[99,11168],[99,11249],[99,11335],[99,11416],[99,11499],[99,11582],[99,11665],[99,11749],[99,11832],[99,11915],[99,11998],[99,12082],[99,12166],[99,12249],[99,12333],[99,12416],[99,12500],[99,12582],[99,12665],[99,12749],[99,12833],[99,12916],[99,13002],[99,13082],[99,13165],[99,13249],[99,13332],[99,13417],[99,13499],[99,13583],[99,13665],[99,13748],[99,13832],[99,13916],[99,13998],[99,14083],[99,14166],[99,14249],[99,14332],[99,14416],[99,14499],[99,14585],[99,14666],[99,14749],[99,14834],[99,14915],[99,14999],[99,15082],[99,15165],[99,15249],[99,15332],[99,15418],[99,15499],[99,15583],[99,15665],[99,15749],[99,15833],[99,15916],[99,15999],[99,16082],[99,16166],[99,16249],[99,16332],[99,16415],[99,16498],[99,16582],[99,16665],[99,16748],[99,16832],[99,16915],[99,16999],[99,17083],[99,17165],[99,17252],[99,17332],[99,17416],[99,17502],[99,17582],[99,17665],[99,17749],[99,17832],[99,17916],[99,17999],[99,18082],[99,18166],[99,18248],[99,18332],[99,18415],[99,18498],[99,18584],[99,18665],[99,18749],[99,18832],[99,18917],[99,18998],[99,19084],[99,19166],[99,19249],[99,19336],[99,19416],[99,19499],[99,19583],[99,19667],[99,19752],[99,19833],[99,19916],[99,19999],[99,20082],[99,20166],[99,20248],[99,20331],[99,20415],[99,20499],[99,20584],[99,20667],[99,20749],[99,20832],[99,20916],[99,20999],[99,21082],[99,21166],[99,21249],[99,21332],[99,21415],[99,21500],[99,21583],[99,21666],[99,21748],[99,21832],[99,21917],[99,21998],[99,22082],[99,22166],[99,22249],[99,22331]]",1,0,269.0093,271.0082,99.00770823,0.6215,"[{""rating"":99.00770823160808,""responseTime"":0.6214999999999691}]",space,1.4494,,271.0083,Not at all,0,271.0104,,,[],,0,3,3,3,1,audio/Narrative7Situation3.wav,audio/Narrative8Situation3.wav,audio/Narrative5Situation3.wav,audio/Narrative6Situation3.wav,8,4,3,5,,,,,,,,,,,,,,,,,,,,,,,,,,,,,,,,,,,,,,,
,,,,,,651f877f99a86ed3d73471c5,2024-02-08_13h02.03.958,group3.1-3.2-social-tom,2023.2.2,MacIntel,59.88023952,65c5074098b851296ff0b7ed,65c5412c80ce2dd1a4552231,,,,,,,,,,,,,,,,,,,,,,,,,,,,,271.0105,1,audio/Narrative8Situation4.wav,274.025,,274.0251,288.1955,"[[96.8,1166],[6.6,1418],[8.2,3084],[35.7,3167],[73.6,3251],[87.2,3334],[95,3418],[100,3500],[100,3584],[100,3669],[100,3750],[100,3833],[100,3917],[100,4001],[100,4083],[100,4166],[100,4251],[100,4336],[100,4417],[100,4500],[100,4583],[100,4669],[100,4750],[100,4832],[100,4916],[100,5001],[100,5083],[100,5166],[100,5250],[100,5334],[100,5418],[100,5499],[100,5583],[100,5666],[100,5749],[100,5833],[100,5916],[100,5999],[100,6083],[100,6166],[100,6251],[100,6332],[100,6416],[100,6500],[100,6583],[100,6667],[100,6750],[100,6833],[100,6917],[100,7000],[100,7087],[100,7167],[100,7250],[100,7332],[100,7418],[100,7499],[100,7582],[100,7667],[100,7750],[100,7833],[100,7916],[100,8000],[100,8083],[100,8167],[100,8251],[100,8333],[100,8416],[100,8500],[100,8583],[100,8666],[100,8750],[100,8833],[100,8916],[100,9000],[100,9083],[100,9167],[100,9250],[100,9333],[100,9418],[100,9500],[100,9583],[100,9666],[100,9749],[100,9832],[100,9916],[100,10000],[100,10084],[100,10166],[100,10250],[100,10332],[100,10417],[100,10499],[100,10582],[100,10666],[100,10749],[100,10834],[100,10916],[100,11000],[100,11084],[100,11168],[100,11250],[100,11333],[100,11416],[100,11500],[100,11583],[100,11667],[100,11749],[100,11833],[100,11916],[100,12000],[100,12082],[100,12166],[100,12251],[100,12334],[100,12420],[100,12503],[100,12583],[100,12667],[100,12750],[100,12833],[100,12919],[100,13000],[100,13084],[100,13166],[100,13250],[100,13333],[100,13417],[100,13500],[100,13583],[100,13667],[100,13749],[100,13833],[100,13916],[100,14000],[100,14084],[100,14170]]",1,0,288.1955,289.8087,99.90984599,0.5346,"[{""rating"":99.90984598795573,""responseTime"":0.5346000000014897}]",space,1.0675,,289.8087,Partially,50,289.8113,,,[],,0,4,4,4,1,audio/Narrative7Situation4.wav,audio/Narrative8Situation4.wav,audio/Narrative5Situation4.wav,audio/Narrative6Situation4.wav,3,3,1,2,,,,,,,,,,,,,,,,,,,,,,,,,,,,,,,,,,,,,,,
,,,,,,651f877f99a86ed3d73471c5,2024-02-08_13h02.03.958,group3.1-3.2-social-tom,2023.2.2,MacIntel,59.88023952,65c5074098b851296ff0b7ed,65c5412c80ce2dd1a4552231,,,,,,,,,,,,,,,,,,,,,,,,,,,,,289.8116,1,audio/Narrative8Situation5.wav,291.8271,,291.8272,300.0921,"[[20.8,167],[20.8,248],[20.8,331],[19.1,417],[0.3,497],[17.7,1499],[57.8,1581],[83.6,1664],[86.8,1747],[92.8,1831],[100,1917],[100,1998],[100,2081],[100,2164],[100,2247],[100,2331],[100,2413],[100,2497],[100,2580],[100,2665],[100,2748],[100,2830],[100,2915],[100,2997],[100,3081],[100,3164],[100,3249],[100,3332],[100,3414],[100,3501],[100,3580],[100,3665],[100,3748],[100,3831],[100,3914],[100,3998],[100,4081],[100,4164],[100,4249],[100,4331],[100,4414],[100,4498],[100,4581],[100,4665],[100,4749],[100,4833],[100,4914],[100,4997],[100,5081],[100,5167],[100,5249],[100,5331],[100,5414],[100,5498],[100,5581],[100,5667],[100,5748],[100,5831],[100,5915],[100,5997],[100,6080],[100,6164],[100,6249],[100,6331],[100,6414],[100,6498],[100,6581],[100,6664],[100,6749],[100,6833],[100,6914],[100,6998],[100,7082],[100,7164],[100,7247],[100,7330],[100,7414],[100,7498],[100,7581],[100,7664],[100,7748],[100,7831],[100,7915],[100,7997],[100,8081],[100,8165],[100,8248]]",1,0,300.0922,302.192,99.55641429,0.9202,"[{""rating"":99.55641428629558,""responseTime"":0.9201999999955319}]",space,1.568,,302.1922,Definitely yes,100,314.0085,100,10.4965,"[{""rating"":99.65329488118489,""responseTime"":9.73020000000298},{""rating"":100,""responseTime"":10.496499999999969}]",space,0,5,5,5,1,audio/Narrative7Situation5.wav,audio/Narrative8Situation5.wav,audio/Narrative5Situation5.wav,audio/Narrative6Situation5.wav,5,2,5,2,,,11.2823,,,,,,,,,,,,,,,,,,,,,,,,,,,,,,,,,,,,
,,,,,,651f877f99a86ed3d73471c5,2024-02-08_13h02.03.958,group3.1-3.2-social-tom,2023.2.2,MacIntel,59.88023952,65c5074098b851296ff0b7ed,65c5412c80ce2dd1a4552231,,,,,,,,,,,,,,,,,,,,,,,,,,,,,314.009,1,audio/Narrative8Situation6.wav,316.009,,316.009,322.4616,"[[999,0],[999,84],[999,166],[999,249],[999,334],[999,416],[999,500],[999,583],[999,666],[999,751],[999,833],[999,916],[999,999],[999,1082],[999,1166],[999,1250],[999,1333],[999,1415],[999,1499],[999,1581],[999,1666],[999,1749],[999,1833],[999,1916],[999,1999],[999,2082],[999,2168],[999,2250],[11.5,2415],[36.8,2502],[65.3,2586],[84.4,2666],[97.3,2750],[100,2836],[100,2915],[100,2999],[100,3085],[100,3167],[100,3250],[100,3332],[100,3415],[100,3498],[100,3586],[100,3666],[100,3751],[100,3832],[100,3917],[100,3999],[100,4084],[100,4166],[100,4248],[100,4332],[100,4415],[100,4500],[100,4583],[100,4665],[100,4748],[100,4832],[100,4916],[100,4999],[100,5082],[100,5165],[100,5249],[100,5335],[100,5417],[100,5499],[100,5582],[100,5665],[100,5750],[100,5833],[100,5915],[100,6001],[100,6082],[100,6166],[100,6252],[100,6336],[100,6416]]",1,0,322.4618,327.8418,100,4.1011,"[{""rating"":98.62890879313152,""responseTime"":3.2671000000015056},{""rating"":100,""responseTime"":4.101100000001509}]",space,4.835,,327.8419,Not at all,0,327.8449,,,[],,0,6,6,6,1,audio/Narrative7Situation6.wav,audio/Narrative8Situation6.wav,audio/Narrative5Situation6.wav,audio/Narrative6Situation6.wav,3,2,3,2,,,,,,,,,,,,,,,,,,,,,,,,,,,,,,,,,,,,,,,
,,,,,,651f877f99a86ed3d73471c5,2024-02-08_13h02.03.958,group3.1-3.2-social-tom,2023.2.2,MacIntel,59.88023952,65c5074098b851296ff0b7ed,65c5412c80ce2dd1a4552231,,,,,,,,,,,,,,,,,,,,,,,,,,,,,327.8451,1,audio/Narrative8Situation7.wav,330.859,,330.8591,342.958,"[[999,0],[999,83],[999,166],[999,249],[999,332],[999,415],[999,499],[999,582],[999,666],[999,749],[999,833],[999,915],[999,998],[999,1083],[999,1166],[999,1248],[999,1332],[999,1415],[999,1502],[999,1583],[999,1666],[999,1749],[999,1833],[999,1915],[999,1998],[999,2082],[999,2166],[999,2250],[1.5,2332],[11.9,2415],[12.6,2498],[12.6,2584],[12.6,2666],[15.8,2752],[43.2,2833],[73.8,2915],[79,3000],[92.7,3082],[98.5,3165],[100,3248],[100,3331],[100,3415],[100,3499],[100,3584],[100,3665],[100,3748],[100,3833],[100,3917],[100,3999],[100,4082],[100,4167],[100,4248],[100,4331],[100,4415],[100,4500],[100,4582],[100,4666],[100,4748],[100,4832],[100,4916],[100,4998],[100,5084],[100,5166],[100,5248],[100,5332],[100,5415],[100,5500],[100,5583],[100,5665],[100,5749],[100,5833],[100,5917],[100,5999],[100,6083],[100,6166],[100,6249],[100,6332],[100,6415],[100,6500],[100,6582],[100,6665],[100,6749],[100,6832],[100,6918],[100,7000],[100,7082],[100,7165],[100,7249],[100,7333],[100,7416],[100,7498],[100,7583],[100,7667],[100,7748],[100,7832],[100,7917],[100,7998],[100,8082],[100,8165],[100,8251],[100,8333],[100,8416],[100,8499],[100,8583],[100,8666],[100,8748],[100,8832],[100,8915],[100,8999],[100,9082],[100,9166],[100,9248],[100,9333],[100,9417],[100,9499],[100,9582],[100,9665],[100,9748],[100,9832],[100,9915],[100,10002],[100,10082],[100,10165],[100,10253],[100,10332],[100,10415],[100,10499],[100,10582],[100,10665],[100,10749],[100,10834],[100,10916],[100,10998],[100,11082],[100,11165],[100,11249],[100,11333],[100,11415],[100,11498],[100,11585],[100,11665],[100,11748],[100,11833],[100,11915],[100,11998],[100,12082]]",1,0,342.9581,345.9578,99.94678497,1.2379,"[{""rating"":99.94678497314453,""responseTime"":1.2378999999984899}]",space,2.4672,,345.9579,Not at all,0,345.9596,,,[],,0,7,7,7,1,audio/Narrative7Situation7.wav,audio/Narrative8Situation7.wav,audio/Narrative5Situation7.wav,audio/Narrative6Situation7.wav,5,3,4,5,,,,,,,,,,,,,,,,,,,,,,,,,,,,,,,,,,,,,,,
,,,,,,651f877f99a86ed3d73471c5,2024-02-08_13h02.03.958,group3.1-3.2-social-tom,2023.2.2,MacIntel,59.88023952,65c5074098b851296ff0b7ed,65c5412c80ce2dd1a4552231,,,,,,,,,,,,,,,,,,,,,,,,,,,,,345.9599,1,audio/Narrative8Situation8.wav,348.9745,,348.9745,361.8249,"[[999,8],[999,83],[999,166],[999,250],[999,333],[999,417],[999,501],[999,584],[999,667],[999,750],[999,834],[999,917],[999,1000],[999,1083],[999,1166],[999,1250],[999,1333],[999,1417],[999,1500],[999,1587],[999,1669],[999,1751],[999,1833],[999,1917],[999,2000],[999,2084],[999,2166],[999,2250],[999,2333],[999,2417],[1.1,2500],[2,2583],[2,2667],[2,2750],[2,2836],[2,2916],[2,2999],[2,3084],[2,3167],[2,3251],[2,3334],[2,3417],[2,3500],[2,3583],[2,3666],[2,3750],[2,3833],[2,3917],[2,4001],[2,4084],[2,4167],[2,4249],[2,4334],[2,4416],[2,4500],[2,4584],[2,4666],[2,4751],[2,4834],[2,4917],[2,5000],[2,5083],[2,5167],[2,5249],[2,5333],[2,5417],[2,5501],[2,5583],[2,5667],[2,5751],[2,5832],[2,5916],[2,5999],[2,6084],[2,6167],[2,6249],[2,6333],[2.1,6421],[10.5,6500],[19.5,6583],[25.2,6668],[31.3,6752],[53.4,7500],[53.1,7585],[53,7667],[53,7750],[53,7834],[53,7920],[52.8,8003],[52.4,8084],[51.9,8169],[51.4,8250],[51.4,8333],[51.4,8417],[51.4,8499],[51.4,8584],[51.4,8666],[51.4,8751],[51.4,8834],[51.4,8920],[51.4,9001],[54.4,9086],[62.2,9167],[64.3,9251],[64.3,9333],[64.3,9416],[64.3,9500],[64.3,9584],[68,9668],[83.9,9752],[89.6,9833],[92.6,9917],[93.1,10000],[95.4,10083],[100,10168],[100,10250],[100,10336],[100,10416],[100,10500],[100,10583],[100,10667],[100,10751],[100,10833],[100,10916],[100,11000],[100,11083],[100,11167],[100,11250],[100,11335],[100,11417],[100,11503],[100,11584],[100,11667],[100,11750],[100,11833],[100,11918],[100,12000],[100,12083],[100,12168],[100,12251],[100,12334],[100,12418],[100,12500],[100,12583],[100,12667],[100,12750],[100,12834]]",1,0,361.8251,366.0579,99.15164948,0.7813,"[{""rating"":99.15164947509766,""responseTime"":0.7812999999970316}]",space,3.6989,,366.0579,Definitely yes,100,366.0672,,,[],,0,8,8,8,1,audio/Narrative7Situation8.wav,audio/Narrative8Situation8.wav,audio/Narrative5Situation8.wav,audio/Narrative6Situation8.wav,2,3,3,5,,,,,,,,,,,,,,,,,,,,,,,,,,,,,,,,,,,,,,,
,,,,,,651f877f99a86ed3d73471c5,2024-02-08_13h02.03.958,group3.1-3.2-social-tom,2023.2.2,MacIntel,59.88023952,65c5074098b851296ff0b7ed,65c5412c80ce2dd1a4552231,,,,,,,,,,,,,,,,,,,,,,,,,,,,,366.0673,1,audio/Narrative8Situation9.wav,369.0754,,369.0755,380.3913,"[[2.8,2000],[14,2083],[26.2,2168],[31.8,2252],[34.3,2332],[38.6,2417],[39.4,2501],[39.5,2582],[40.2,2666],[41.5,2751],[42.1,2832],[44.2,2917],[46.3,3001],[46.6,3085],[47.5,3166],[48.1,3249],[48.1,3332],[48.6,3415],[49.4,3500],[52.3,3582],[57.8,3668],[65.1,3750],[74.1,3833],[82.5,3918],[86.5,3999],[90.7,4083],[94.3,4169],[97.1,4250],[98,4332],[98,4416],[98,4499],[98,4582],[98,4665],[98,4749],[98,4832],[98,4916],[98,4999],[98,5082],[98,5166],[98,5248],[98,5332],[98,5415],[98,5499],[98,5584],[98,5666],[98,5749],[98,5832],[98,5919],[98,5999],[98,6082],[98,6165],[98,6249],[98,6333],[98,6415],[98,6499],[98,6582],[98,6666],[98,6748],[98,6833],[98,6916],[98,6998],[98,7082],[98,7165],[98,7248],[98,7333],[98,7415],[98,7499],[98,7582],[98,7668],[98,7751],[98,7834],[98,7916],[98,8000],[98,8083],[98,8167],[98,8251],[98,8333],[98,8416],[98,8501],[98,8583],[98,8666],[98,8750],[98,8833],[98,8917],[98,9000],[98,9084],[98,9165],[98,9250],[98,9333],[98,9416],[98,9499],[98,9583],[98,9665],[98,9749],[98,9834],[98,9916],[98,9999],[98,10083],[98,10167],[98,10249],[98,10332],[98,10417],[98,10499],[98,10583],[98,10665],[98,10748],[98,10833],[98,10915],[98,10999],[98,11082],[98,11165],[98,11248]]",1,0,380.3915,382.0944,97.99870809,0.5045,"[{""rating"":97.9987080891927,""responseTime"":0.5045000000000073}]",space,1.1668,,382.0944,Not at all,0,382.0967,,,[],,0,9,9,9,1,audio/Narrative7Situation9.wav,audio/Narrative8Situation9.wav,audio/Narrative5Situation9.wav,audio/Narrative6Situation9.wav,2,3,3,4,,,,,,,,,,,,,,,,,,,,,,,,,,,,,,,,,,,,,,,
,,,,,,651f877f99a86ed3d73471c5,2024-02-08_13h02.03.958,group3.1-3.2-social-tom,2023.2.2,MacIntel,59.88023952,65c5074098b851296ff0b7ed,65c5412c80ce2dd1a4552231,,,,,,,,,,,,,,,,,,,,,,,,,,,,,382.097,1,audio/Narrative7Situation1.wav,384.1081,,384.1081,440.0077,"[[88.1,751],[52.5,833],[4.2,919],[17.2,8593],[52.7,8666],[73.1,8751],[85,8834],[94.8,8917],[98.3,9000],[100,9084],[100,9166],[100,9250],[100,9336],[100,9416],[100,9501],[100,9586],[100,9667],[100,9749],[100,9832],[100,9916],[100,9999],[100,10083],[100,10166],[100,10249],[100,10333],[100,10416],[100,10499],[100,10583],[100,10666],[100,10751],[100,10833],[100,10919],[100,10999],[100,11083],[100,11167],[100,11249],[100,11333],[100,11417],[100,11502],[100,11583],[100,11666],[100,11750],[100,11832],[100,11916],[100,12001],[100,12082],[100,12169],[100,12249],[100,12335],[100,12416],[100,12499],[100,12584],[100,12669],[100,12750],[100,12834],[100,12917],[100,12999],[100,13084],[100,13168],[100,13253],[100,13333],[100,13416],[100,13500],[100,13585],[79,13667],[8.3,13750],[16.6,20000],[52.1,20083],[68.7,20167],[79.8,20250],[90.1,20334],[94.7,20420],[100,20499],[100,20583],[100,20666],[100,20749],[100,20833],[100,20916],[100,21001],[100,21083],[100,21166],[100,21251],[100,21333],[100,21416],[100,21501],[100,21585],[100,21666],[100,21750],[100,21832],[100,21916],[100,21999],[100,22083],[100,22166],[100,22249],[100,22334],[100,22419],[100,22500],[100,22582],[100,22666],[100,22750],[100,22834],[100,22920],[100,23000],[100,23083],[100,23166],[100,23251],[100,23333],[100,23417],[100,23500],[100,23583],[100,23666],[100,23750],[100,23833],[100,23917],[100,24000],[100,24087],[100,24166],[100,24250],[100,24333],[100,24416],[100,24500],[100,24584],[100,24667],[100,24751],[100,24833],[100,24916],[100,24999],[100,25083],[100,25165],[100,25250],[100,25335],[100,25418],[100,25500],[100,25583],[100,25665],[100,25750],[100,25833],[100,25918],[100,26000],[100,26083],[100,26165],[100,26250],[100,26333],[100,26417],[100,26499],[100,26584],[100,26666],[100,26750],[100,26836],[100,26916],[100,27001],[100,27083],[100,27166],[100,27249],[100,27333],[100,27416],[100,27499],[100,27584],[100,27666],[100,27750],[100,27832],[100,27916],[100,27999],[100,28083],[100,28166],[100,28252],[100,28336],[100,28416],[100,28500],[80.8,28586],[70.2,28667],[67.9,28750],[58.5,28835],[54.1,28916],[42.9,29002],[42.1,29084],[42.6,29167],[44.6,29252],[47.5,29334],[47.9,29416],[50.2,29503],[50.2,29582],[50.2,29666],[50.2,29749],[50.2,29832],[50.2,29916],[50.2,29999],[50.2,30082],[50.2,30166],[50.2,30249],[50.2,30333],[50.2,30417],[50.2,30500],[50.2,30583],[50.2,30666],[50.2,30753],[50.2,30833],[50.2,30919],[50.2,31000],[50.2,31082],[50.2,31167],[50.2,31249],[50.2,31334],[50.2,31419],[50.2,31499],[50.2,31583],[50.2,31666],[50.2,31750],[50.2,31832],[50.2,31916],[50.2,32002],[50.2,32083],[50.2,32165],[50.2,32249],[50.2,32333],[50.2,32418],[50.2,32501],[50.2,32584],[50.2,32668],[57.6,32752],[64.2,32832],[92.2,32917],[100,33003],[100,33083],[100,33166],[100,33250],[93.7,33334],[94.9,33418],[97.1,33501],[100,33585],[100,33666],[100,33750],[100,33833],[100,33916],[100,33999],[100,34083],[100,34167],[99.8,34253],[99.8,34333],[99.8,34417],[99.8,34501],[99.8,34584],[99.8,34666],[99.8,34750],[99.8,34834],[99.8,34919],[99.8,35000],[99.8,35083],[99.8,35166],[99.8,35250],[99.8,35333],[99.8,35415],[99.8,35500],[99.8,35583],[99.8,35666],[99.8,35752],[99.8,35832],[99.8,35917],[99.8,36000],[99.8,36082],[99.8,36166],[99.8,36249],[99.8,36334],[99.8,36416],[99.8,36499],[99.8,36582],[99.8,36665],[99.8,36751],[99.8,36834],[99.8,36916],[99.8,37003],[99.8,37083],[99.8,37166],[99.8,37249],[99.8,37333],[99.8,37417],[99.8,37502],[99.8,37583],[99.8,37668],[99.8,37749],[99.8,37832],[99.8,37918],[99.7,38001],[99.7,38083],[99.7,38166],[99.7,38249],[99.7,38333],[99.6,38416],[99.6,38500],[99.5,38583],[99.5,38666],[99.5,38751],[99.5,38833],[99.5,38916],[99.5,39000],[98.8,39082],[98.8,39166],[98.8,39249],[98.8,39332],[98.8,39416],[98.8,39499],[99.5,39582],[99.7,39666],[99.9,39749],[99.9,39833],[99.9,39916],[99.9,39999],[99.9,40083],[99.9,40166],[99.9,40249],[99.9,40332],[99.9,40416],[99.8,40499],[99.7,40584],[99.7,40666],[99.7,40749],[99.7,40832],[99.7,40918],[99.7,40999],[99.7,41084],[99.7,41168],[99.7,41249],[99.7,41333],[99.7,41416],[99.7,41499],[99.7,41582],[99.7,41666],[99.7,41751],[99.7,41832],[99.7,41916],[99.7,41999],[99.7,42082],[99.7,42166],[99.7,42249],[99.7,42333],[99.7,42419],[99.7,42499],[100,42583],[100,42666],[100,42749],[100,42833],[100,42916],[100,42999],[100,43083],[100,43166],[100,43250],[100,43332],[100,43417],[100,43502],[100,43583],[100,43667],[100,43749],[100,43833],[100,43916],[100,44000],[100,44083],[100,44166],[100,44250],[100,44333],[100,44419],[100,44503],[100,44584],[100,44666],[100,44750],[100,44834],[100,44919],[100,45000],[100,45082],[100,45167],[100,45249],[100,45335],[100,45416],[100,45500],[100,45582],[100,45668],[100,45750],[100,45836],[100,45916],[100,46000],[100,46083],[100,46167],[100,46249],[100,46332],[100,46416],[100,46500],[100,46584],[100,46668],[100,46753],[100,46833],[100,46917],[100,47000],[100,47082],[100,47165],[100,47252],[100,47334],[100,47417],[100,47499],[100,47582],[100,47667],[100,47749],[100,47833],[100,47916],[100,47999],[100,48082],[100,48166],[100,48251],[100,48333],[100,48419],[100,48500],[100,48582],[100,48667],[100,48753],[100,48832],[100,48916],[100,48999],[100,49083],[100,49166],[100,49249],[100,49332],[100,49416],[100,49500],[100,49583],[100,49667],[100,49750],[100,49832],[100,49916],[100,50000],[100,50083],[100,50166],[100,50249],[100,50335],[100,50418],[100,50499],[100,50582],[100,50666],[100,50749],[100,50836],[100,50915],[100,51003],[100,51082],[100,51166],[100,51250],[100,51332],[100,51416],[100,51498],[100,51582],[100,51666],[100,51750],[100,51832],[100,51916],[100,52001],[100,52083],[100,52166],[100,52250],[100,52332],[100,52417],[100,52499],[100,52583],[100,52666],[100,52749],[100,52836],[100,52916],[100,53001],[100,53083],[100,53166],[100,53251],[100,53336],[100,53416],[100,53500],[100,53583],[100,53669],[100,53749],[100,53834],[100,53917],[100,53999],[100,54082],[100,54166],[100,54249],[100,54333],[100,54416],[100,54499],[100,54583],[100,54667],[100,54750],[100,54834],[100,54917],[100,55001],[100,55083],[100,55166],[100,55249],[100,55336],[100,55416],[100,55500],[100,55582],[100,55667],[100,55750],[100,55833]]",1,0,440.008,442.1409,99.34071859,1.4547,"[{""rating"":99.34071858723958,""responseTime"":1.4547000000029584}]",space,1.6005,,442.141,Definitely yes,100,442.1432,,,[],,0,10,10,10,1,audio/Narrative8Situation1.wav,audio/Narrative7Situation1.wav,audio/Narrative6Situation1.wav,audio/Narrative5Situation1.wav,5,2,2,5,,,,,,,,,,,,,,,,,,,,,,,,,,,,,,,,,,,,,,,
,,,,,,651f877f99a86ed3d73471c5,2024-02-08_13h02.03.958,group3.1-3.2-social-tom,2023.2.2,MacIntel,59.88023952,65c5074098b851296ff0b7ed,65c5412c80ce2dd1a4552231,,,,,,,,,,,,,,,,,,,,,,,,,,,,,442.1434,1,audio/Narrative7Situation2.wav,445.1577,,445.1577,452.6414,"[[90.6,750],[86.1,833],[86.1,916],[33.1,2167],[38.1,2250],[39.2,2334],[50.7,2418],[54.2,2501],[59.8,2583],[92.6,2668],[95.1,2753],[95.5,2834],[96.2,2917],[96.8,3000],[97.1,3083],[97.1,3167],[97.1,3249],[97.3,3333],[97.3,3417],[97.3,3501],[97.3,3583],[97.3,3667],[97.3,3749],[97.3,3834],[97.3,3916],[97.3,4000],[97.3,4084],[97.3,4166],[97.3,4250],[97.3,4333],[97.3,4418],[97.3,4500],[97.3,4583],[97.3,4667],[97.3,4750],[97.3,4833],[97.3,4916],[97.3,5000],[97.3,5083],[97.3,5167],[97.3,5250],[97.3,5335],[97.3,5416],[97.3,5500],[97.3,5583],[97.3,5666],[97.3,5749],[97.3,5833],[97.3,5917],[97.3,6000],[97.3,6083],[97.3,6166],[97.3,6249],[97.3,6334],[97.3,6417],[97.3,6503],[97.3,6583],[97.3,6667],[97.3,6750],[97.3,6833],[97.3,6917],[97.3,7000],[97.3,7082],[97.3,7166],[97.3,7250],[97.3,7333],[97.3,7416]]",1,0,452.6416,455.341,99.4084549,1.9192,"[{""rating"":99.40845489501953,""responseTime"":1.9191999999955556}]",space,2.1512,,455.341,Definitely yes,100,455.3429,,,[],,0,11,11,11,1,audio/Narrative8Situation2.wav,audio/Narrative7Situation2.wav,audio/Narrative6Situation2.wav,audio/Narrative5Situation2.wav,3,3,3,3,,,,,,,,,,,,,,,,,,,,,,,,,,,,,,,,,,,,,,,
,,,,,,651f877f99a86ed3d73471c5,2024-02-08_13h02.03.958,group3.1-3.2-social-tom,2023.2.2,MacIntel,59.88023952,65c5074098b851296ff0b7ed,65c5412c80ce2dd1a4552231,,,,,,,,,,,,,,,,,,,,,,,,,,,,,455.3431,1,audio/Narrative7Situation3.wav,463.3608,,463.3608,472.6244,"[[999,10],[999,81],[999,163],[999,247],[999,330],[999,414],[999,498],[999,580],[999,663],[999,747],[999,829],[999,913],[999,996],[999,1079],[999,1164],[999,1247],[999,1330],[999,1413],[999,1499],[999,1581],[999,1665],[999,1747],[999,1829],[999,1914],[999,1996],[18.6,5413],[41.4,5499],[100,5747],[100,5831],[100,5914],[97.5,6164],[97.5,6247],[97.7,6329],[97.8,6414],[97.8,6497],[97.8,6579],[97.8,6666],[97.8,6746],[97.8,6830],[97.8,6913],[97.8,6996],[97.8,7079],[97.8,7163],[97.8,7247],[97.8,7329],[97.8,7413],[97.9,7497],[97.9,7580],[97.9,7664],[97.9,7746],[97.9,7829],[97.9,7913],[97.9,7997],[97.9,8080],[97.9,8163],[97.9,8248],[97.9,8330],[97.9,8416],[97.9,8496],[97.9,8579],[97.9,8664],[97.9,8747],[97.9,8829],[97.9,8913],[97.9,8996],[97.9,9079],[97.9,9163],[97.9,9246]]",1,0,472.6246,475.9079,50.48110962,1.6989,"[{""rating"":50.48110961914063,""responseTime"":1.698900000005949}]",space,2.7374,,475.9079,Partially,50,475.9104,,,[],,0,12,12,12,1,audio/Narrative8Situation3.wav,audio/Narrative7Situation3.wav,audio/Narrative6Situation3.wav,audio/Narrative5Situation3.wav,4,8,5,3,,,,,,,,,,,,,,,,,,,,,,,,,,,,,,,,,,,,,,,
,,,,,,651f877f99a86ed3d73471c5,2024-02-08_13h02.03.958,group3.1-3.2-social-tom,2023.2.2,MacIntel,59.88023952,65c5074098b851296ff0b7ed,65c5412c80ce2dd1a4552231,,,,,,,,,,,,,,,,,,,,,,,,,,,,,475.9107,1,audio/Narrative7Situation4.wav,478.9261,,478.9261,490.6763,"[[13.6,84],[13.4,165],[13.4,249],[13.4,331],[13.4,415],[11.7,499],[1.9,582],[1.8,665]]",1,0,490.6764,492.2911,0.678157806,0.8184,"[{""rating"":0.6781578063964844,""responseTime"":0.818399999998519}]",space,1.0683,,492.2911,Definitely yes,100,492.2936,,,[],,0,13,13,13,1,audio/Narrative8Situation4.wav,audio/Narrative7Situation4.wav,audio/Narrative6Situation4.wav,audio/Narrative5Situation4.wav,3,3,2,1,,,,,,,,,,,,,,,,,,,,,,,,,,,,,,,,,,,,,,,
,,,,,,651f877f99a86ed3d73471c5,2024-02-08_13h02.03.958,group3.1-3.2-social-tom,2023.2.2,MacIntel,59.88023952,65c5074098b851296ff0b7ed,65c5412c80ce2dd1a4552231,,,,,,,,,,,,,,,,,,,,,,,,,,,,,492.2938,1,audio/Narrative7Situation5.wav,497.3078,,497.3079,505.7907,"[[37.4,4253],[37.5,4332],[38.3,4419],[38.7,4502],[38.9,4584],[39,4666],[39,4751],[39,4832],[39,4918],[39,5000],[39,5084],[39,5167],[39,5250],[39,5334],[39,5416],[39,5502],[38.2,5582],[37.9,5667],[37.6,5752],[37,5832],[37,5916],[37,6002],[37,6083],[37,6168],[37,6249],[37,6333],[37,6416],[37,6500],[37,6582],[37,6667],[37,6749],[37.8,6835],[38.8,6917],[41.5,6999],[41.9,7082],[43,7167],[43.2,7251],[44.3,7335],[45.2,7420],[45.6,7500],[45.7,7584],[45.7,7666],[45.9,7752],[45.9,7833],[45.9,7916],[46.2,7999],[46.3,8082],[46.3,8166],[46.3,8249],[46,8333],[45.8,8417]]",1,0,505.7908,507.9606,48.61929576,1.3624,"[{""rating"":48.61929575602213,""responseTime"":1.3624000000058913}]",space,1.6337,,507.9607,Definitely yes,100,507.9622,,,[],,0,14,14,14,1,audio/Narrative8Situation5.wav,audio/Narrative7Situation5.wav,audio/Narrative6Situation5.wav,audio/Narrative5Situation5.wav,2,5,2,5,,,,,,,,,,,,,,,,,,,,,,,,,,,,,,,,,,,,,,,
,,,,,,651f877f99a86ed3d73471c5,2024-02-08_13h02.03.958,group3.1-3.2-social-tom,2023.2.2,MacIntel,59.88023952,65c5074098b851296ff0b7ed,65c5412c80ce2dd1a4552231,,,,,,,,,,,,,,,,,,,,,,,,,,,,,507.9624,1,audio/Narrative7Situation6.wav,510.9744,,510.9745,520.9577,"[[36.7,584],[16.7,666],[5.3,2500],[24.6,2582],[55.6,2749],[57.6,2833],[85.6,3251],[90.4,3333],[100,3585],[100,3667],[100,3750],[100,3832],[100,3916],[100,3999],[100,4082],[100,4166],[100,4249],[100,4334],[100,4415],[100,4499],[100,4582],[100,4666],[100,4749],[100,4832],[100,4916],[100,4999],[100,5083],[100,5168],[100,5251],[100,5333],[100,5416],[100,5500],[100,5582],[100,5669],[100,5750],[100,5832],[100,5916],[100,6001],[100,6084],[100,6166],[100,6250],[100,6333],[100,6418],[100,6499],[100,6584],[100,6666],[100,6750],[100,6833],[100,6917],[100,7002],[100,7083],[100,7166],[100,7251],[100,7333],[100,7416],[100,7500],[100,7582],[100,7666],[100,7750],[100,7833],[100,7916],[100,8001],[100,8084],[100,8166],[100,8249],[100,8333],[100,8416],[100,8502],[100,8583],[100,8666],[100,8752],[100,8833],[100,8916],[100,9000],[100,9084],[100,9167],[100,9249],[100,9332],[100,9416],[100,9499],[100,9583],[100,9666],[100,9750],[98.3,9834],[98.3,9916]]",1,0,520.9578,522.7106,99.61485545,0.682,"[{""rating"":99.61485544840495,""responseTime"":0.6820000000000164}]",space,1.2166,,522.7106,Partially,50,522.7127,,,[],,0,15,15,15,1,audio/Narrative8Situation6.wav,audio/Narrative7Situation6.wav,audio/Narrative6Situation6.wav,audio/Narrative5Situation6.wav,2,3,2,3,,,,,,,,,,,,,,,,,,,,,,,,,,,,,,,,,,,,,,,
,,,,,,651f877f99a86ed3d73471c5,2024-02-08_13h02.03.958,group3.1-3.2-social-tom,2023.2.2,MacIntel,59.88023952,65c5074098b851296ff0b7ed,65c5412c80ce2dd1a4552231,,,,,,,,,,,,,,,,,,,,,,,,,,,,,522.713,1,audio/Narrative7Situation7.wav,527.7247,,527.7248,544.9244,"[[97.8,2666],[97.6,2749],[97.6,2832],[97.6,2916],[98.8,3000],[99.3,3083],[100,3167],[100,3249],[100,3334],[100,3415],[100,3499],[100,3582],[100,3665],[100,3749],[100,3833],[100,3916],[100,4001],[100,4082],[100,4169],[100,4249],[100,4333],[100,4418],[100,4499],[100,4584],[100,4666],[100,4749],[100,4832],[100,4916],[100,5000],[100,5082],[100,5165],[100,5249],[100,5333],[100,5417],[100,5500],[100,5583],[100,5665],[100,5749],[100,5832],[100,5916],[100,5999],[100,6082],[100,6166],[100,6250],[100,6332],[100,6415],[100,6499],[100,6582],[100,6665],[100,6749],[100,6833],[100,6915],[100,6999],[100,7082],[100,7166],[100,7249],[100,7332],[100,7415],[100,7500],[100,7582],[100,7665],[100,7750],[100,7832],[100,7916],[100,7999],[100,8082],[100,8167],[100,8249],[100,8334],[100,8416],[100,8499],[100,8583],[100,8666],[100,8749],[100,8832],[100,8918],[100,8999],[100,9085],[100,9166],[100,9249],[100,9332],[100,9416],[100,9500],[100,9585],[100,9665],[100,9749],[100,9832],[100,9915],[100,9999],[100,10084],[100,10165],[100,10252],[100,10334],[100,10417],[100,10500],[100,10582],[100,10666],[100,10751],[100,10836],[100,10915],[100,10999],[100,11082],[100,11165],[100,11251],[100,11333],[100,11416],[100,11499],[100,11583],[100,11669],[100,11750],[100,11834],[100,11916],[100,11999],[100,12083],[100,12165],[100,12252],[100,12332],[100,12416],[100,12499],[100,12586],[100,12666],[100,12749],[100,12832],[100,12915],[100,12999],[100,13082],[100,13165],[100,13249],[100,13332],[100,13415],[100,13499],[100,13581],[100,13665],[100,13751],[100,13832],[100,13916],[100,13999],[100,14082],[100,14166],[100,14252],[100,14332],[100,14417],[100,14499],[100,14583],[100,14665],[100,14749],[100,14831],[100,14916],[100,15001],[100,15082],[100,15165],[100,15248],[100,15331],[100,15416],[100,15499],[100,15582],[100,15665],[100,15749],[100,15832],[100,15916],[100,15999],[100,16082],[100,16165],[100,16248],[100,16332],[100,16415],[100,16502],[100,16582],[100,16666],[100,16752],[100,16832],[100,16926],[100,17000],[100,17085],[100,17167]]",1,0,544.9245,547.0414,98.62954458,1.1806,"[{""rating"":98.62954457600912,""responseTime"":1.1805999999940013}]",space,1.584,,547.0414,Not at all,0,547.0437,,,[],,0,16,16,16,1,audio/Narrative8Situation7.wav,audio/Narrative7Situation7.wav,audio/Narrative6Situation7.wav,audio/Narrative5Situation7.wav,3,5,5,4,,,,,,,,,,,,,,,,,,,,,,,,,,,,,,,,,,,,,,,
,,,,,,651f877f99a86ed3d73471c5,2024-02-08_13h02.03.958,group3.1-3.2-social-tom,2023.2.2,MacIntel,59.88023952,65c5074098b851296ff0b7ed,65c5412c80ce2dd1a4552231,,,,,,,,,,,,,,,,,,,,,,,,,,,,,547.0439,1,audio/Narrative7Situation8.wav,549.0576,,549.0577,559.0742,"[[89.7,1417],[89.7,1501],[92.4,1582],[94.4,1667],[98.4,1752],[100,1833],[100,1916],[100,2001],[100,2083],[100,2166],[100,2251],[100,2332],[100,2416],[100,2500],[100,2582],[100,2666],[100,2749],[100,2832],[100,2915],[100,2999],[100,3082],[100,3169],[100,3249],[100,3333],[100,3416],[100,3499],[100,3583],[100,3666],[100,3749],[100,3833],[100,3919],[100,4001],[100,4082],[100,4166],[100,4250],[100,4333],[98.8,4416],[98.2,4499],[98,4583],[98,4666],[98,4750],[79.1,4834],[68.7,4919],[67.6,5000],[67.2,5083],[66.6,5168],[58.9,5252],[53.5,5334],[57.1,5415],[91.3,5499],[94.3,5586],[98.1,5667],[100,5749],[100,5833],[100,5916],[100,5999],[100,6083],[100,6166],[100,6249],[100,6335],[100,6416],[100,6499],[100,6582],[100,6668],[100,6749],[100,6834],[100,6917],[100,6999],[100,7082],[100,7166],[100,7251],[100,7333],[100,7415],[100,7499],[100,7582],[100,7666],[100,7748],[100,7833],[100,7916],[100,8000],[100,8082],[100,8167],[100,8251],[100,8333],[100,8416],[100,8500],[100,8582],[100,8668],[100,8750],[100,8833],[100,8916],[100,9000],[100,9083],[100,9167],[100,9251],[100,9332],[100,9416],[100,9501],[100,9585],[100,9665],[100,9749],[100,9833],[100,9917],[100,10003]]",1,0,559.0743,560.7914,99.60676829,1.0882,"[{""rating"":99.60676829020183,""responseTime"":1.0881999999954814}]",space,1.1844,,560.7914,Definitely yes,100,560.7941,,,[],,0,17,17,17,1,audio/Narrative8Situation8.wav,audio/Narrative7Situation8.wav,audio/Narrative6Situation8.wav,audio/Narrative5Situation8.wav,3,2,5,3,,,,,,,,,,,,,,,,,,,,,,,,,,,,,,,,,,,,,,,
,,,,,,651f877f99a86ed3d73471c5,2024-02-08_13h02.03.958,group3.1-3.2-social-tom,2023.2.2,MacIntel,59.88023952,65c5074098b851296ff0b7ed,65c5412c80ce2dd1a4552231,,,,,,,,,,,,,,,,,,,,,,,,,,,,,560.7942,1,audio/Narrative7Situation9.wav,562.8076,,562.8077,571.4582,"[[97.6,250],[75.2,1584],[99.7,1665],[100,1750],[100,1832],[100,1916],[100,2000],[100,2082],[100,2165],[100,2250],[100,2332],[100,2419],[100,2500],[100,2582],[100,2666],[100,2749],[100,2833],[100,2916],[100,3000],[100,3082],[100,3166],[100,3248],[100,3332],[100,3416],[100,3499],[100,3582],[100,3666],[100,3749],[100,3832],[100,3916],[100,4001],[100,4083],[100,4166],[100,4249],[100,4334],[100,4416],[100,4499],[100,4583],[100,4666],[100,4749],[100,4832],[100,4920],[100,5000],[100,5083],[100,5166],[100,5249],[100,5333],[100,5416],[100,5499],[100,5583],[100,5666],[100,5750],[100,5832],[100,5916],[100,5999],[100,6082],[100,6167],[100,6252],[100,6334],[100,6415],[100,6499],[100,6583],[100,6667],[100,6749],[100,6833],[100,6916],[100,6999],[100,7082],[100,7166],[100,7250],[100,7332],[100,7416],[100,7501],[100,7582],[100,7666],[100,7749],[100,7833],[100,7916],[100,8000],[100,8082],[100,8168],[100,8249],[100,8332],[100,8416],[100,8499],[100,8583]]",1,0,571.4583,573.3414,98.83605957,1.1689,"[{""rating"":98.8360595703125,""responseTime"":1.1688999999984162}]",space,1.332,,573.3416,Definitely yes,100,573.3431,,,[],,0,18,18,18,1,audio/Narrative8Situation9.wav,audio/Narrative7Situation9.wav,audio/Narrative6Situation9.wav,audio/Narrative5Situation9.wav,3,2,4,3,,,,,,,,,,,,,,,,,,,,,,,,,,,,,,,,,,,,,,,
,,,,,,651f877f99a86ed3d73471c5,2024-02-08_13h02.03.958,group3.1-3.2-social-tom,2023.2.2,MacIntel,59.88023952,65c5074098b851296ff0b7ed,65c5412c80ce2dd1a4552231,,,,,,,,,,,,,,,,,,,,,,,,,,,593.6832,596.2573,596.2693,2,audio/Narrative13Situation2.wav,596.2693,,596.2693,626.0236,"[[999,0],[999,72],[999,154],[999,239],[999,321],[999,404],[999,488],[999,571],[999,653],[999,737],[999,821],[999,905],[999,987],[999,1072],[999,1154],[999,1238],[999,1321],[999,1404],[999,1487],[999,1571],[999,1654],[999,1738],[999,1821],[999,1907],[1.7,2071],[1.7,2155],[1.7,2238],[1.7,2322],[1.4,2405],[1,2489],[1,2570],[0.8,2655],[0.8,2737],[0.8,2822],[0.8,2907],[0.8,2988],[0.8,3072],[0.8,3155],[0.8,3238],[0.8,3322],[0.8,3405],[0.8,3488],[0.8,3571],[0.8,3655],[0.8,3738],[0.8,3822],[0.8,3908],[0.8,3988],[0.8,4071],[0.8,4155],[0.8,4238],[0.8,4321],[0.8,4408],[0.8,4488],[0.8,4570],[0.8,4654],[0.8,4737],[0.8,4821],[0.8,4907],[0.8,4988],[0.8,5070],[0.8,5154],[0.8,5238],[0.8,5321],[0.8,5404],[0.8,5491],[0.8,5570],[0.8,5654],[0.8,5737],[0.8,5821],[0.8,5905],[0.8,5987],[0.8,6070],[0.8,6154],[0.8,6238],[0.8,6320],[0.8,6404],[0.8,6489],[0.8,6571],[0.8,6654],[0.8,6737],[0.8,6822],[0.8,6905],[0.8,6990],[0.8,7072],[0.8,7154],[0.8,7238],[0.8,7320],[0.8,7404],[0.8,7488],[0.8,7571],[0.8,7654],[0.8,7738],[0.8,7821],[0.8,7905],[0.8,7991],[0.8,8071],[0.8,8154],[0.8,8237],[0.8,8321],[0.8,8404],[0.8,8487],[0.8,8571],[0.8,8654],[100,8988],[100,9071],[100,9154],[100,9237],[100,9320],[100,9405],[100,9488],[100,9570],[100,9654],[100,9737],[100,9821],[100,9903],[100,9987],[100,10070],[100,10154],[100,10238],[100,10320],[100,10404],[100,10487],[100,10570],[100,10658],[100,10738],[100,10821],[100,10905],[100,10987],[100,11072],[100,11156],[100,11238],[100,11321],[100,11404],[100,11487],[100,11572],[100,11654],[100,11738],[100,11821],[100,11903],[100,11987],[100,12071],[100,12156],[100,12238],[100,12321],[100,12404],[100,12488],[100,12571],[100,12656],[100,12738],[100,12821],[100,12904],[100,12990],[100,13072],[100,13156],[100,13237],[100,13321],[100,13404],[100,13489],[100,13571],[100,13655],[100,13738],[100,13822],[100,13904],[100,13987],[100,14071],[100,14155],[100,14237],[100,14321],[100,14405],[100,14491],[100,14571],[100,14656],[100,14737],[100,14821],[100,14905],[100,14987],[100,15071],[100,15155],[100,15239],[100,15321],[87.5,15404],[56.1,15490],[27.5,15572],[16.7,15655]]",1,0,626.0238,626.0358,,,[],,,,626.0359,Not at all,0,626.0377,,,[],,0,0,0,0,1,audio/Narrative13Situation2.wav,audio/Narrative13Situation2.wav,audio/Narrative13Situation2.wav,audio/Narrative13Situation2.wav,2,2,2,2,,,,,573.3438,593.6745,space,19.7996,,,,,,,,,,,,,,,,,,,,,,,,,,,,,,,
,,,,,,651f877f99a86ed3d73471c5,2024-02-08_13h02.03.958,group3.1-3.2-social-tom,2023.2.2,MacIntel,59.88023952,65c5074098b851296ff0b7ed,65c5412c80ce2dd1a4552231,,,,,,,,,,,,,,,,,,,,,,,,,,,,,626.0379,2,audio/Narrative6Situation1.wav,628.0417,,628.0417,654.6402,"[[1.4,5498],[54.4,5583],[100,5665],[100,5748],[100,5832],[100,5914],[100,6000],[100,6082],[100,6165],[100,6250],[100,6333],[100,6418],[100,6499],[100,6582],[100,6665],[100,6748],[100,6832],[100,6914],[100,7000],[100,7082],[100,7166],[100,7250],[100,7332],[100,7416],[100,7498],[100,7582],[100,7665],[100,7747],[100,7831],[100,7917],[100,8001],[100,8083],[100,8165],[100,8248],[100,8331],[100,8416],[100,8498],[100,8582],[100,8665],[100,8747],[100,8831],[100,8915],[100,8997],[100,9085],[100,9165],[100,9248],[100,9335],[100,9415],[100,9498],[100,9582],[100,9665],[100,9748],[100,9832],[100,9915],[100,10001],[100,10081],[100,10166],[100,10249],[100,10332],[100,10415],[100,10501],[100,10582],[100,10666],[100,10750],[100,10832],[100,10915],[100,10998],[100,11081],[100,11166],[100,11249],[100,11332],[100,11415],[100,11499],[100,11584],[100,11665],[100,11748],[100,11833],[100,11915],[100,11998],[100,12082],[100,12165],[100,12249],[100,12331],[100,12418],[100,12500],[100,12581],[100,12665],[100,12749],[100,12832],[100,12914],[100,12998],[100,13081],[100,13165],[100,13250],[100,13331],[100,13415],[100,13500],[100,13581],[100,13668],[100,13748],[100,13831],[100,13915],[100,13998],[100,14081],[100,14164],[100,14247],[100,14332],[99.5,14417],[99.4,14498],[98.7,14582],[64.8,14665],[48.8,14747],[46.5,14832],[45.5,14915],[45.5,14998],[35.3,15082],[27.6,15168],[1.8,21583],[79.7,21665],[100,21749],[100,21832],[100,21915],[100,22001],[100,22082],[100,22165],[100,22251],[100,22332],[100,22416],[100,22500],[100,22581],[100,22668],[100,22748],[100,22832],[100,22915],[100,22999],[100,23082],[100,23167],[100,23250],[100,23331],[100,23416],[100,23498],[100,23581],[100,23665],[100,23749],[100,23831],[100,23916],[100,23998],[100,24083],[100,24165],[100,24248],[100,24331],[100,24418],[100,24500],[100,24584],[100,24665],[100,24749],[100,24831],[100,24918],[100,24999],[100,25082],[100,25165],[100,25248],[100,25333],[100,25415],[100,25498],[100,25581],[100,25665],[100,25750],[100,25831],[100,25916],[100,25999],[100,26081],[100,26166],[100,26248],[100,26331],[100,26416],[100,26499],[100,26581]]",1,0,654.6404,671.9077,98.39984894,1.5373,"[{""rating"":98.39984893798828,""responseTime"":1.5372999999970034}]",space,16.7334,,671.9078,Definitely yes,100,671.9183,,,[],,0,1,1,1,1,audio/Narrative7Situation1.wav,audio/Narrative8Situation1.wav,audio/Narrative5Situation1.wav,audio/Narrative6Situation1.wav,2,5,5,2,,,,,,,,,,,,,,,,,,,,,,,,,,,,,,,,,,,,,,,
,,,,,,651f877f99a86ed3d73471c5,2024-02-08_13h02.03.958,group3.1-3.2-social-tom,2023.2.2,MacIntel,59.88023952,65c5074098b851296ff0b7ed,65c5412c80ce2dd1a4552231,,,,,,,,,,,,,,,,,,,,,,,,,,,,,671.9185,2,audio/Narrative6Situation2.wav,674.9234,,674.9235,703.457,"[[0.7,3085],[3,3166],[2.3,3250],[1.4,3334],[1.4,3418],[1.3,3499],[1.3,3583],[1.3,3666],[1.3,3751],[1.3,3833],[1.3,3917],[1.3,4000],[1.3,4086],[1.3,4166],[1.3,4249],[1.3,4334],[1.3,4417],[1.3,4499],[1.3,4583],[1.3,4669],[1.3,4750],[1.3,4833],[1.3,4919],[1.3,4999],[1.3,5083],[1.3,5167],[1.3,5249],[1.3,5333],[1.3,5416],[1.3,5501],[1.3,5583],[1.3,5667],[1.3,5750],[1.3,5833],[1.3,5917],[18.3,6000],[57.8,6084],[63.1,6167],[80.4,6252],[94.3,6332],[100,6417],[100,14583],[100,14666],[100,14750],[100,14834],[100,14918],[100,15003],[100,15084],[100,15166],[100,15251],[100,15332],[100,15416],[100,15502],[100,15582],[100,15667],[100,15749],[100,15833],[100,15916],[100,16002],[100,16082],[100,16166],[100,16250],[100,16333],[100,16416],[100,16500],[100,16583],[100,16666],[100,16750],[100,16833],[100,16916],[100,16999],[100,17083],[100,17167],[100,17252],[100,17333],[100,17416],[100,17499],[100,17583],[100,17666],[100,17749],[100,17833],[100,17916],[100,18000],[100,18083],[100,18166],[100,18251],[100,18333],[100,18418],[100,18500],[100,18582],[100,18667],[100,18750],[100,18836],[100,18916],[100,19000],[100,19083],[100,19167],[100,19251],[100,19332],[100,19416],[100,19501],[100,19583],[100,19666],[100,19750],[100,19833],[100,19917],[100,20000],[100,20082],[100,20166],[100,20250],[100,20334],[100,20416],[100,20500],[100,20582],[100,20668],[100,20749],[100,20832],[100,20918],[100,21000],[100,21083],[100,21165],[100,21249],[100,21333],[100,21416],[100,21500],[100,21583],[100,21667],[100,21749],[100,21835],[100,21917],[100,22001],[100,22083],[100,22166],[100,22251],[100,22334],[100,22418],[100,22499],[100,22586],[100,22668],[100,22750],[100,22833],[100,22917],[100,23002],[100,23083],[100,23167],[100,23249],[100,23333],[100,23418],[100,23500],[100,23583],[100,23666],[100,23750],[100,23834],[100,23915],[100,23999],[100,24084],[100,24168],[100,24250],[100,24333],[100,24416],[100,24499],[100,24582],[100,24668],[100,24751],[100,24833],[100,24917],[100,25000],[100,25082],[100,25166],[100,25249],[100,25333],[100,25416],[100,25500],[100,25584],[100,25666],[100,25750],[100,25833],[100,25917],[100,26001],[100,26083],[100,26166],[100,26250],[100,26333],[100,26417],[100,26501],[100,26583],[100,26667],[100,26750],[100,26833],[100,26916],[100,27000],[100,27082],[100,27166],[100,27250],[100,27333],[100,27416],[100,27499],[100,27582],[100,27666],[100,27753],[100,27834],[100,27916],[100,27999],[100,28083],[100,28166],[100,28249],[100,28333],[100,28420],[100,28500]]",1,0,703.4571,707.6241,99.13379669,2.1402,"[{""rating"":99.13379669189453,""responseTime"":2.1402000000030057}]",space,3.6167,,707.6241,Not at all,0,707.6257,,,[],,0,2,2,2,1,audio/Narrative7Situation2.wav,audio/Narrative8Situation2.wav,audio/Narrative5Situation2.wav,audio/Narrative6Situation2.wav,3,3,3,3,,,,,,,,,,,,,,,,,,,,,,,,,,,,,,,,,,,,,,,
,,,,,,651f877f99a86ed3d73471c5,2024-02-08_13h02.03.958,group3.1-3.2-social-tom,2023.2.2,MacIntel,59.88023952,65c5074098b851296ff0b7ed,65c5412c80ce2dd1a4552231,,,,,,,,,,,,,,,,,,,,,,,,,,,,,707.6259,2,audio/Narrative6Situation3.wav,712.6397,,712.6397,725.2405,"[[999,10],[999,86],[999,166],[999,251],[999,334],[999,417],[999,500],[999,584],[999,667],[999,751],[999,834],[999,918],[999,1000],[999,1083],[999,1166],[999,1250],[999,1333],[999,1418],[999,1501],[999,1583],[999,1667],[999,1751],[999,1833],[999,1919],[999,2000],[999,2085],[999,2168],[999,2250],[999,2335],[999,2419],[999,2500],[999,2587],[9.7,2668],[9.5,2750],[22.4,7750],[100,8250],[100,8336],[100,8418],[100,8500],[100,8584],[100,8667],[100,8750],[100,8833],[100,8918],[100,9000],[100,9083],[100,9166],[100,9250],[100,9335],[100,9416],[100,9500],[100,9582],[100,9666],[100,9750],[100,9833],[100,9916],[100,9999],[100,10083],[100,10167],[100,10249],[100,10337],[100,10417],[100,10500],[100,10586],[100,10667],[100,10750],[100,10833],[100,10917],[100,10999],[100,11083],[100,11168],[100,11250],[100,11333],[100,11418],[100,11499],[100,11584],[100,11666],[100,11750],[100,11834],[100,11918],[100,12002],[100,12083],[100,12167],[100,12252],[100,12333],[100,12417],[100,12500],[100,12583]]",1,0,725.2407,727.3577,99.22969818,1.0709,"[{""rating"":99.22969818115234,""responseTime"":1.0709000000059632}]",space,1.5664,,727.3577,Not at all,0,727.3587,,,[],,0,3,3,3,1,audio/Narrative7Situation3.wav,audio/Narrative8Situation3.wav,audio/Narrative5Situation3.wav,audio/Narrative6Situation3.wav,8,4,3,5,,,,,,,,,,,,,,,,,,,,,,,,,,,,,,,,,,,,,,,
,,,,,,651f877f99a86ed3d73471c5,2024-02-08_13h02.03.958,group3.1-3.2-social-tom,2023.2.2,MacIntel,59.88023952,65c5074098b851296ff0b7ed,65c5412c80ce2dd1a4552231,,,,,,,,,,,,,,,,,,,,,,,,,,,,,727.3589,2,audio/Narrative6Situation4.wav,729.3764,,729.3764,741.9908,"[[98.8,334],[98.7,414],[73.1,499],[39.5,581],[15,663]]",1,0,741.9909,746.5062,91.72405243,3.2212,"[{""rating"":99.57015991210938,""responseTime"":1.4206000000015138},{""rating"":91.72405242919922,""responseTime"":3.2211999999955196}]",space,3.9671,,746.5062,Definitely yes,100,746.508,,,[],,0,4,4,4,1,audio/Narrative7Situation4.wav,audio/Narrative8Situation4.wav,audio/Narrative5Situation4.wav,audio/Narrative6Situation4.wav,3,3,1,2,,,,,,,,,,,,,,,,,,,,,,,,,,,,,,,,,,,,,,,
,,,,,,651f877f99a86ed3d73471c5,2024-02-08_13h02.03.958,group3.1-3.2-social-tom,2023.2.2,MacIntel,59.88023952,65c5074098b851296ff0b7ed,65c5412c80ce2dd1a4552231,,,,,,,,,,,,,,,,,,,,,,,,,,,,,746.5081,2,audio/Narrative6Situation5.wav,748.5235,,748.5236,756.4772,"[[80.4,1499],[54.9,1584],[20.8,1666],[15.2,1752],[9.5,2249],[21.5,2333],[47.2,2416],[50.3,2502],[58.6,2583],[68,2666],[74.3,2749],[90.9,2833],[91.3,2916],[100,2999],[100,3083],[100,3166],[100,3251],[100,3332],[100,3416],[100,3501],[100,3582],[100,3666],[100,3749],[100,3833],[100,3915],[100,4000],[100,4082],[100,4166],[100,4251],[100,4332],[100,4417],[100,4499],[100,4582],[100,4666],[100,4752],[100,4833],[100,4917],[100,5001],[100,5083],[100,5166],[100,5251],[100,5333],[100,5415],[100,5500],[100,5582],[100,5665],[100,5750],[100,5833],[100,5916],[100,5999],[100,6082],[100,6166],[100,6249],[100,6333],[100,6416],[100,6499],[100,6583],[100,6666],[100,6751],[100,6832],[100,6916],[100,6999],[100,7083],[100,7166],[100,7250],[100,7336],[100,7416],[100,7501],[100,7582],[100,7668],[100,7751],[100,7833],[100,7917]]",1,0,756.4773,758.874,99.55936432,1.567,"[{""rating"":99.55936431884766,""responseTime"":1.5670000000000073}]",space,1.8503,,758.8742,Partially,50,758.8758,,,[],,0,5,5,5,1,audio/Narrative7Situation5.wav,audio/Narrative8Situation5.wav,audio/Narrative5Situation5.wav,audio/Narrative6Situation5.wav,5,2,5,2,,,,,,,,,,,,,,,,,,,,,,,,,,,,,,,,,,,,,,,
,,,,,,651f877f99a86ed3d73471c5,2024-02-08_13h02.03.958,group3.1-3.2-social-tom,2023.2.2,MacIntel,59.88023952,65c5074098b851296ff0b7ed,65c5412c80ce2dd1a4552231,,,,,,,,,,,,,,,,,,,,,,,,,,,,,758.876,2,audio/Narrative6Situation6.wav,760.893,,760.893,771.9753,"[[999,0],[999,83],[999,164],[999,251],[999,333],[999,415],[999,498],[999,582],[999,664],[999,747],[999,832],[999,913],[999,997],[999,1082],[999,1165],[999,1250],[999,1332],[999,1415],[999,1496],[999,1580],[999,1663],[999,1749],[999,1830],[999,1913],[999,1997],[999,2084],[999,2165],[999,2248],[999,2333],[999,2416],[999,2497],[999,2582],[999,2666],[999,2747],[93.6,2833],[94.7,2913],[98.8,2997],[100,3080],[100,3162],[100,3246],[100,3334],[100,3415],[100,3496],[100,3579],[100,3663],[100,3748],[100,3832],[100,3914],[100,3996],[100,4082],[100,4164],[100,4248],[100,4332],[100,4413],[100,4497],[100,4581],[100,4663],[100,4746],[100,4830],[100,4915],[100,4996],[100,5082],[100,5165],[100,5249],[100,5332],[100,5414],[100,5497],[100,5583],[100,5662],[100,5746],[100,5832],[100,5913],[100,5996],[100,6083],[100,6163],[100,6246],[100,6332],[100,6413],[100,6497],[100,6583],[100,6665],[100,6747],[100,6834],[100,6915],[100,6997],[100,7079],[100,7165],[100,7248],[100,7332],[100,7414],[100,7498],[100,7582],[100,7663],[100,7746],[100,7832],[100,7913],[100,7999],[100,8082],[100,8163],[100,8247],[100,8332],[100,8415],[100,8497],[100,8582],[100,8663],[100,8748],[100,8830],[100,8915],[100,8999],[100,9081],[100,9165],[100,9249],[100,9332],[100,9413],[100,9499],[100,9582],[100,9665],[100,9749],[100,9832],[100,9913],[100,9997],[100,10080],[100,10165],[100,10246],[100,10333],[100,10413],[100,10498],[100,10579],[100,10663],[100,10747],[100,10831],[100,10915],[100,11000],[100,11082]]",1,0,771.9754,781.4394,99.21418508,8.2522,"[{""rating"":99.26180521647136,""responseTime"":0.8680000000000518},{""rating"":99.2141850789388,""responseTime"":8.252200000002972}]",space,8.9312,,781.4394,Partially,50,781.4405,,,[],,0,6,6,6,1,audio/Narrative7Situation6.wav,audio/Narrative8Situation6.wav,audio/Narrative5Situation6.wav,audio/Narrative6Situation6.wav,3,2,3,2,,,,,,,,,,,,,,,,,,,,,,,,,,,,,,,,,,,,,,,
,,,,,,651f877f99a86ed3d73471c5,2024-02-08_13h02.03.958,group3.1-3.2-social-tom,2023.2.2,MacIntel,59.88023952,65c5074098b851296ff0b7ed,65c5412c80ce2dd1a4552231,,,,,,,,,,,,,,,,,,,,,,,,,,,,,781.4406,2,audio/Narrative6Situation7.wav,786.4574,,786.4575,811.3095,"[[99.7,998],[99.6,1081],[13.5,1582],[12,1665],[2.7,1750],[0.5,1833],[1.9,2335],[3.5,2417],[3.8,2499],[3.8,2583],[3.8,2667],[3.8,2752],[3.1,2835],[68,7749],[77.1,7833],[82.9,7917],[89.2,7999],[93.4,8082],[95.3,8165],[97.8,8248],[98.5,8331],[100,8418],[100,11001],[100,11081],[100,11165],[100,11252],[100,11335],[100,11415],[100,11502],[100,11583],[100,11668],[100,11749],[100,11831],[100,11917],[100,12000],[100,12082],[100,12168],[100,12250],[100,12332],[100,12416],[100,12499],[100,12582],[100,12668],[100,12750],[100,12833],[100,12918],[100,12999],[100,13085],[100,13165],[100,13249],[100,13332],[100,13416],[100,13499],[100,13581],[100,13667],[100,13750],[100,13833],[100,13915],[100,13998],[100,14083],[100,14165],[100,14250],[100,14332],[100,14417],[100,14500],[100,14582],[100,14668],[100,14751],[100,14834],[100,14917],[100,14999],[100,15082],[100,15165],[100,15252],[100,15331],[100,15417],[100,15499],[100,15583],[100,15665],[100,15749],[100,15832],[100,15919],[100,15999],[100,16082],[100,16165],[100,16250],[100,16332],[100,16416],[100,16500],[100,16582],[100,16667],[100,16748],[100,16832],[100,16918],[100,16998],[100,17083],[100,17169],[100,17250],[100,17332],[100,17416],[100,17498],[100,17583],[100,17667],[100,17752],[100,17832],[100,17919],[100,18000],[100,18081],[100,18165],[100,18249],[100,18332],[100,18416],[100,18500],[100,18582],[100,18665],[100,18749],[100,18833],[100,18919],[100,18999],[100,19085],[100,19168],[100,19251],[100,19332],[100,19418],[100,19499],[100,19582],[100,19665],[100,19750],[100,19831],[100,19919],[100,20000],[100,20082],[100,20168],[100,20248],[100,20331],[100,20414],[100,20499],[100,20581],[100,20666],[100,20749],[100,20834],[100,20916],[100,20999],[100,21083],[100,21167],[100,21251],[100,21332],[100,21417],[100,21499],[100,21583],[100,21666],[100,21749],[100,21833],[100,21916],[100,22002],[100,22082],[100,22167],[100,22250],[100,22332],[100,22417],[100,22499],[100,22583],[100,22666],[100,22752],[100,22833],[100,22916],[100,22999],[100,23082],[100,23167],[100,23249],[100,23333],[100,23418],[100,23500],[100,23582],[100,23666],[100,23750],[100,23832],[100,23917],[100,24000],[100,24082],[100,24165],[100,24249],[100,24334],[100,24418],[100,24499],[100,24582],[100,24668],[100,24749],[100,24834]]",1,0,811.3096,812.7073,99.62300618,0.6864,"[{""rating"":99.62300618489583,""responseTime"":0.6863999999984571}]",space,0.8519,,812.7073,Not at all,0,812.7092,,,[],,0,7,7,7,1,audio/Narrative7Situation7.wav,audio/Narrative8Situation7.wav,audio/Narrative5Situation7.wav,audio/Narrative6Situation7.wav,5,3,4,5,,,,,,,,,,,,,,,,,,,,,,,,,,,,,,,,,,,,,,,
,,,,,,651f877f99a86ed3d73471c5,2024-02-08_13h02.03.958,group3.1-3.2-social-tom,2023.2.2,MacIntel,59.88023952,65c5074098b851296ff0b7ed,65c5412c80ce2dd1a4552231,,,,,,,,,,,,,,,,,,,,,,,,,,,,,812.7094,2,audio/Narrative6Situation8.wav,817.7241,,817.7241,824.5744,"[[999,10],[999,83],[999,170],[999,251],[999,332],[999,416],[999,499],[999,582],[999,668],[999,751],[999,837],[999,916],[999,1000]]",1,0,824.5746,830.0062,0.390869776,4.7862,"[{""rating"":2.01960881551107,""responseTime"":4.336000000000013},{""rating"":0.3908697764078761,""responseTime"":4.7861999999954605}]",space,4.8825,,830.0062,Partially,50,830.0079,,,[],,0,8,8,8,1,audio/Narrative7Situation8.wav,audio/Narrative8Situation8.wav,audio/Narrative5Situation8.wav,audio/Narrative6Situation8.wav,2,3,3,5,,,,,,,,,,,,,,,,,,,,,,,,,,,,,,,,,,,,,,,
,,,,,,651f877f99a86ed3d73471c5,2024-02-08_13h02.03.958,group3.1-3.2-social-tom,2023.2.2,MacIntel,59.88023952,65c5074098b851296ff0b7ed,65c5412c80ce2dd1a4552231,,,,,,,,,,,,,,,,,,,,,,,,,,,,,830.0081,2,audio/Narrative6Situation9.wav,834.0086,,834.0086,843.9757,"[[0.4,2415],[6.7,2664],[4.5,2749],[4.4,2833],[3.4,2915],[3.4,2997],[2.9,3082],[2.3,3164],[2.1,3248],[1.8,3330],[0.9,3416],[0.9,3497],[0.9,3580],[0.9,3665],[0.9,3747],[0.9,3831],[0.9,3915],[0.9,3997],[0.9,4081],[0.9,4165],[0.9,4248],[0.9,4330],[0.9,4415],[0.9,4497],[0.9,4582],[0.9,4665],[0.9,4748],[0.9,4832],[0.9,4915],[0.9,4998],[0.9,5082],[0.9,5165],[0.9,5247],[0.9,5332],[0.9,5415],[0.9,5499],[0.9,5581],[0.9,5668],[0.9,5750],[0.9,5831],[0.9,5915],[0.9,5998],[0.9,6081],[0.9,6165],[0.9,6248],[0.9,6332],[0.9,6414],[0.9,6498],[0.9,6580],[0.9,6664],[0.9,6747],[0.9,6830],[0.9,6915],[0.9,6998],[0.9,7082],[0.9,7165],[0.9,7248],[0.9,7332],[0.9,7416],[0.9,7497],[0.9,7582],[0.9,7665],[0.9,7749],[0.9,7831],[0.9,7917],[0.9,7999],[0.9,8081],[0.9,8167],[0.9,8249],[0.9,8334],[0.9,8416],[0.9,8498],[0.9,8580],[0.9,8665],[0.9,8748],[0.9,8832],[0.9,8914],[0.9,8997],[0.9,9081],[0.9,9164],[0.9,9247],[0.9,9331],[0.9,9415],[0.9,9497],[0.9,9583],[0.9,9667],[0.9,9749],[0.9,9831],[0.9,9915]]",1,0,843.9758,845.1567,0.934206645,0.5381,"[{""rating"":0.9342066446940078,""responseTime"":0.5380999999940741}]",space,0.6343,,845.1567,Not at all,0,845.1588,,,[],,0,9,9,9,1,audio/Narrative7Situation9.wav,audio/Narrative8Situation9.wav,audio/Narrative5Situation9.wav,audio/Narrative6Situation9.wav,2,3,3,4,,,,,,,,,,,,,,,,,,,,,,,,,,,,,,,,,,,,,,,
,,,,,,651f877f99a86ed3d73471c5,2024-02-08_13h02.03.958,group3.1-3.2-social-tom,2023.2.2,MacIntel,59.88023952,65c5074098b851296ff0b7ed,65c5412c80ce2dd1a4552231,,,,,,,,,,,,,,,,,,,,,,,,,,,,,845.1591,2,audio/Narrative5Situation1.wav,850.1758,,850.1758,863.475,"[[1,1413],[1.1,1497],[1.2,1581],[1.1,1663],[1.1,1748],[1.1,1831],[1.1,1914],[1.1,1999],[1,2082],[1,2163],[1,2250],[1,2333],[1,2414],[1,2498],[1,2581],[1,2664],[1,2748],[1,2832],[1,2913],[1,2997],[1,3082],[1,3163],[1,3250],[1,3331],[1,3414],[1,3500],[1,3580],[1,3666],[1,3746],[1,3831],[1,3916],[1,3998],[1,4081],[1,4163],[1,4248],[1,4330],[1,4415],[1,4498],[1,4584],[1,4666],[1,4747],[1,4831],[1,4914],[1,4997],[1,5081],[1,5163],[1,5250],[1,5331],[1,5415],[1,5498],[1,5581],[1,5665],[1,5748],[1,5831],[1,5913],[1,5998],[1,6080],[1,6163],[1,6248],[1,6333],[1,6413],[1,6498],[1,6581],[1,6666],[1,6748],[1,6829],[1,6913],[1,6998],[1,7080],[1,7163],[1,7249],[1,7331],[1,7416],[1,7497],[1,7581],[1,7665],[1,7748],[1,7830],[1,7915],[1,7998],[1,8080],[1,8165],[1,8248],[1,8334],[1,8414],[1,8498],[1,8583],[1,8665],[1,8748],[1,8832],[1,8913],[1,9000],[1,9081],[1,9165],[1,9249],[1,9331],[1,9413],[1,9498],[1,9581],[1,9665],[1,9748],[1,9831],[1,9913],[1,9998],[1,10080],[1,10164],[1,10250],[1,10330],[1,10415],[1,10501],[1,10582],[1,10667],[1,10746],[1,10832],[1,10913],[1,10998],[1,11080],[1,11164],[1,11249],[1,11331],[1,11415],[1,11499],[1,11582],[1,11665],[1,11748],[1,11830],[1,11914],[1,11998],[1,12080],[1,12164],[1,12248],[1,12332],[1,12415],[1,12499],[1,12583],[1,12667],[1,12747],[1,12832],[1,12915],[1,12997],[1,13081],[1,13164],[1,13247]]",1,0,863.475,869.2074,0.73392868,4.8193,"[{""rating"":0.7339286804199208,""responseTime"":4.8192999999970425}]",space,5.183,,869.2074,Not at all,0,869.209,,,[],,0,10,10,10,1,audio/Narrative8Situation1.wav,audio/Narrative7Situation1.wav,audio/Narrative6Situation1.wav,audio/Narrative5Situation1.wav,5,2,2,5,,,,,,,,,,,,,,,,,,,,,,,,,,,,,,,,,,,,,,,
,,,,,,651f877f99a86ed3d73471c5,2024-02-08_13h02.03.958,group3.1-3.2-social-tom,2023.2.2,MacIntel,59.88023952,65c5074098b851296ff0b7ed,65c5412c80ce2dd1a4552231,,,,,,,,,,,,,,,,,,,,,,,,,,,,,869.2093,2,audio/Narrative5Situation2.wav,872.2238,,872.2239,901.6901,"[[999,7],[999,82],[999,165],[999,251],[999,334],[999,417],[999,500],[999,583],[999,667],[999,751],[999,835],[999,917],[999,1000],[999,1082],[999,1165],[999,1250],[999,1332],[999,1415],[0.1,1500],[0.7,1585],[1.1,1667],[1.1,1751],[1.1,1833],[1.1,1915],[1.1,2001],[1.1,2082],[1.1,2165],[0.7,2252],[0.5,2332],[0.5,2417],[0.5,2499],[0.5,2582],[0.5,2666],[0.5,2750],[0.5,2832],[0.5,2916],[0.5,3002],[0.5,3086],[0.5,3165],[0.5,3250],[0.5,3332],[0.5,3415],[0.5,3499],[0.5,3586],[0.5,3667],[0.5,3749],[0.5,3833],[0.5,3915],[0.5,3998],[0.5,4081],[0.5,4167],[0.5,4250],[0.5,4332],[0.5,4417],[0.5,4502],[0.5,4585],[0.5,4666],[0.5,4751],[0.5,4835],[0.5,4915],[0.5,5000],[0.5,5084],[0.5,5165],[0.5,5250],[0.5,5333],[0.5,5415],[0.5,5498],[0.5,5582],[0.5,5665],[0.5,5750],[0.5,5832],[0.5,5915],[0.5,6001],[0.5,6082],[0.5,6165],[0.5,6249],[0.5,6331],[0.5,6415],[0.5,6500],[0.5,6586],[0.5,6666],[0.5,6750],[0.5,6835],[0.5,6915],[0.5,7000],[0.5,7082],[0.5,7166],[0.5,7250],[0.5,7333],[0.5,7416],[0.5,7500],[0.5,7583],[0.5,7667],[0.5,7748],[0.5,7832],[0.5,7917],[0.5,8000],[0.5,8085],[0.5,8168],[0.5,8249],[0.5,8333],[0.5,8415],[0.5,8500],[0.5,8584],[0.5,8666],[0.5,8750],[0.5,8834],[0.5,8916],[0.5,9002],[0.5,9083],[0.5,9165],[0.5,9249],[0.5,9332],[0.5,9417],[0.5,9500],[0.5,9583],[0.5,9667],[0.5,9748],[0.5,9832],[0.5,9916],[0.5,10000],[0.5,10082],[0.5,10166],[0.5,10248],[0.5,10331],[0.5,10415],[0.5,10499],[0.5,10581],[0.5,10665],[0.5,10750],[0.5,10834],[0.5,10915],[0.5,10998],[0.5,11083],[0.5,11168],[0.5,11249],[0.5,11333],[0.5,11415],[0.5,11501],[0.5,11585],[0.5,11665],[0.5,11750],[0.5,11832],[2.2,11920],[81.8,12333],[88.8,12415],[93.9,12498],[99.9,12582],[100,12665],[100,12750],[100,12832],[100,12920],[100,12998],[100,13083],[100,13165],[100,13250],[100,13333],[100,13418],[100,13498],[100,13584],[100,13667],[100,13750],[100,13832],[100,13915],[100,13998],[100,14082],[100,14166],[100,14250],[100,14333],[100,14418],[100,14500],[100,14581],[100,14664],[100,14749],[100,14831],[100,14915],[100,15000],[100,15083],[100,15167],[100,15250],[100,15331],[100,15417],[100,15498],[100,15585],[100,15665],[100,15750],[100,15832],[100,15916],[100,16000],[100,16084],[100,16165],[100,16250],[100,16331],[100,16415],[100,16500],[100,16583],[100,16666],[100,16748],[100,16834],[100,16916],[99.3,17000],[69.9,17083],[58.3,17165],[0.6,17832],[0.5,17916],[0.4,18001],[0.4,18082],[0.3,18168],[0.3,18249],[0.3,18332],[0.3,18418],[0.3,18499],[0.3,18583],[0.3,18665],[0.3,18751],[0.3,18834],[0.3,18917],[0.3,18998],[0.3,19082],[0.3,19164],[0.3,19250],[0.3,19332],[0.3,19415],[0.3,19500],[0.3,19582],[0.3,19666],[0.3,19750],[0.3,19833],[0.3,19916],[0.3,20000],[0.3,20085],[0.3,20168],[0.3,20249],[0.3,20333],[0.3,20415],[0.3,20501],[2.7,20583],[19.7,20666],[47.7,20752],[52.7,20833],[54.9,20915],[65.7,21001],[65.7,21082],[72,21165],[83.4,21248],[97.6,21332],[100,21417],[100,21500],[100,21583],[100,21666],[100,21750],[100,21833],[100,21916],[100,22000],[100,22083],[100,22165],[100,22250],[100,22333],[100,22415],[100,22500],[100,22582],[100,22667],[100,22749],[100,22832],[100,22916],[100,22998],[100,23082],[100,23166],[100,23251],[100,23335],[100,23416],[100,23498],[100,23584],[100,23665],[100,23749],[100,23834],[100,23916],[100,24000],[100,24082],[100,24165],[100,24251],[100,24334],[100,24415],[100,24500],[100,24582],[100,24668],[100,24752],[100,24832],[100,24915],[100,24998],[100,25082],[100,25165],[100,25250],[100,25331],[100,25415],[100,25500],[100,25582],[100,25665],[100,25749],[100,25832],[100,25915],[100,26000],[100,26082],[100,26168],[100,26249],[100,26333],[100,26414],[100,26501],[100,26585],[100,26665],[100,26750],[100,26832],[100,26914],[100,26998],[100,27082],[100,27165],[100,27248],[100,27332],[100,27414],[100,27500],[100,27584],[100,27665],[100,27749],[100,27833],[100,27918],[100,28000],[100,28086],[100,28165],[100,28249],[100,28331],[100,28417],[100,28500],[100,28582],[100,28666],[100,28750],[100,28832],[100,28916],[100,29000],[100,29086],[100,29166],[100,29248],[100,29334],[100,29415]]",1,0,901.6903,903.1901,99.70222473,0.7896,"[{""rating"":99.70222473144531,""responseTime"":0.789600000001542}]",space,0.9683,,903.1902,Definitely yes,100,903.1928,,,[],,0,11,11,11,1,audio/Narrative8Situation2.wav,audio/Narrative7Situation2.wav,audio/Narrative6Situation2.wav,audio/Narrative5Situation2.wav,3,3,3,3,,,,,,,,,,,,,,,,,,,,,,,,,,,,,,,,,,,,,,,
,,,,,,651f877f99a86ed3d73471c5,2024-02-08_13h02.03.958,group3.1-3.2-social-tom,2023.2.2,MacIntel,59.88023952,65c5074098b851296ff0b7ed,65c5412c80ce2dd1a4552231,,,,,,,,,,,,,,,,,,,,,,,,,,,,,903.193,2,audio/Narrative5Situation3.wav,906.2069,,906.207,920.1258,"[[99.5,1666],[98.8,1748],[98.8,1832],[98.8,1917],[98.8,2001],[98,2083],[73.6,2165],[52.1,2250],[40.5,2332],[39,2417],[39,2501],[36.1,2583],[16.5,2667],[0.3,2750],[0.1,2832],[0.1,2917],[0.1,3000],[28.8,3083],[54.2,3169],[54.2,3249],[64.2,3332],[96.3,3417],[97.6,3499],[97.6,3583],[97.8,3668],[98.3,3749],[98.3,3832],[98.3,3916],[98.3,3999],[98.3,4085],[98.3,4167],[98.3,4250],[98.3,4332],[98.3,4417],[98.3,4499],[98.3,4585],[98.3,4667],[98.3,4749],[98.3,4832],[98.3,4918],[98.3,4999],[98.3,5082],[98.3,5166],[98.3,5250],[98.3,5332],[98.3,5417],[98.3,5500],[98.3,5582],[98.3,5667],[98.3,5750],[98.3,5832],[98.3,5916],[98.3,5999],[98.3,6083],[98.3,6167],[98.3,6250],[98.3,6335],[98.3,6417],[98.3,6500],[98.3,6582],[98.3,6667],[98.3,6752],[98.3,6833],[98.3,6915],[98.3,6999],[98.3,7084],[98.3,7167],[98.3,7253],[98.3,7333],[98.3,7417],[98.3,7499],[98.3,7582],[98.3,7666],[98.3,7749],[98.3,7832],[98.3,7918],[98.3,8000],[98.3,8084],[98.3,8167],[98.3,8248],[98.3,8331],[98.3,8418],[98.3,8500],[98.3,8583],[98.3,8667],[98.3,8749],[98.3,8832],[98.3,8915],[98.3,8998],[98.3,9082],[98.3,9167],[98.3,9249],[98.3,9332],[98.3,9419],[98.3,9501],[98.3,9582],[98.3,9667],[98.3,9749],[98.3,9832],[98.3,9916],[98.3,10000],[98.3,10084],[98.3,10168],[98.3,10248],[98.3,10332],[98.3,10418],[98.3,10499],[98.3,10583],[98.3,10667],[98.3,10749],[98.3,10834],[98.3,10917],[98.3,11001],[98.3,11083],[98.3,11167],[98.3,11252],[98.3,11331],[98.3,11417],[98.3,11500],[98.3,11584],[98.3,11667],[98.3,11750],[98.3,11832],[98.3,11915],[98.3,12000],[98.3,12084],[98.3,12168],[98.3,12249],[98.3,12333],[98.3,12415],[98.3,12499],[98.3,12583],[98.3,12666],[98.3,12752],[98.3,12833],[98.3,12917],[98.3,13002],[98.3,13082],[98.3,13167],[98.3,13251],[98.3,13332],[98.3,13417],[98.3,13500],[98.3,13582],[98.3,13667],[98.3,13750],[98.3,13835],[98.3,13918]]",1,0,920.126,922.1742,98.27496847,0.768,"[{""rating"":98.27496846516928,""responseTime"":0.7680000000000291}]",space,1.5015,,922.1743,Definitely yes,100,922.176,,,[],,0,12,12,12,1,audio/Narrative8Situation3.wav,audio/Narrative7Situation3.wav,audio/Narrative6Situation3.wav,audio/Narrative5Situation3.wav,4,8,5,3,,,,,,,,,,,,,,,,,,,,,,,,,,,,,,,,,,,,,,,
,,,,,,651f877f99a86ed3d73471c5,2024-02-08_13h02.03.958,group3.1-3.2-social-tom,2023.2.2,MacIntel,59.88023952,65c5074098b851296ff0b7ed,65c5412c80ce2dd1a4552231,,,,,,,,,,,,,,,,,,,,,,,,,,,,,922.1763,2,audio/Narrative5Situation4.wav,923.1908,,923.1909,943.574,"[[49.9,3166],[38.2,3250],[14.5,3333],[7.8,3415],[13.9,10666],[51,10831],[55.1,10914],[55.4,11000],[55,11085],[49.3,11166],[47.9,11248],[47.9,11332],[47.9,11417],[47.9,11499],[47.9,11583],[47.9,11666],[47.9,11750],[47.9,11831],[47.9,11917],[47.9,11998],[47.9,12082],[47.9,12166],[47.9,12248],[47.9,12335],[47.9,12416],[47.9,12498],[47.9,12583],[47.9,12664],[47.9,12748],[47.9,12835],[47.9,12915],[47.9,12997],[47.9,13081],[47.9,13166],[47.9,13249],[47.9,13335],[47.9,13417],[47.9,13497],[47.9,13583],[47.9,13665],[47.9,13749],[47.9,13832],[47.9,13918],[47.9,13997],[47.9,14083],[47.9,14167],[47.9,14249],[47.9,14332],[52.1,14414],[70.9,14501],[86.3,14581],[93.9,14666],[93.9,14748],[94.6,14833],[98.7,14916],[99.1,14999],[99.1,15085],[99.5,15168],[99.5,15249],[99.5,15333],[99.5,15415],[99.5,15499],[99.5,15582],[99.5,15668],[99.5,15749],[99.5,15832],[99.5,15917],[99.5,15999],[99.5,16081],[99.5,16166],[99.5,16252],[99.5,16334],[99.5,16416],[99.5,16500],[99.5,16582],[99.5,16666],[99.5,16751],[99.5,16833],[99.5,16914],[99.5,16999],[99.5,17082],[99.5,17165],[99.5,17248],[99.5,17334],[99.5,17417],[99.5,17499],[99.5,17583],[99.5,17666],[99.5,17751],[99.5,17833],[99.5,17918],[99.5,17998],[99.5,18082],[99.5,18167],[99.5,18248],[99.5,18332],[99.5,18417],[99.5,18497],[99.5,18581],[99.5,18664],[99.5,18749],[99.5,18831],[99.5,18915],[99.5,18999],[99.5,19085],[99.5,19165],[99.5,19249],[99.5,19333],[99.5,19417],[99.5,19499],[99.5,19582],[99.5,19666],[99.5,19748],[99.5,19831],[99.5,19916],[99.5,20001],[99.5,20085],[99.5,20166],[99.5,20247],[99.5,20334]]",1,0,943.5741,944.9894,99.45027669,0.7693,"[{""rating"":99.45027669270834,""responseTime"":0.7693000000044776}]",space,0.8862,,944.9896,Not at all,0,944.9918,,,[],,0,13,13,13,1,audio/Narrative8Situation4.wav,audio/Narrative7Situation4.wav,audio/Narrative6Situation4.wav,audio/Narrative5Situation4.wav,3,3,2,1,,,,,,,,,,,,,,,,,,,,,,,,,,,,,,,,,,,,,,,
,,,,,,651f877f99a86ed3d73471c5,2024-02-08_13h02.03.958,group3.1-3.2-social-tom,2023.2.2,MacIntel,59.88023952,65c5074098b851296ff0b7ed,65c5412c80ce2dd1a4552231,,,,,,,,,,,,,,,,,,,,,,,,,,,,,944.9921,2,audio/Narrative5Situation5.wav,950.0096,,950.0096,965.4557,[],1,0,965.4558,966.9747,1.594944,0.7056,"[{""rating"":1.5949440002441417,""responseTime"":0.7056000000014819}]",space,0.9833,,966.9747,Not at all,0,966.9758,,,[],,0,14,14,14,1,audio/Narrative8Situation5.wav,audio/Narrative7Situation5.wav,audio/Narrative6Situation5.wav,audio/Narrative5Situation5.wav,2,5,2,5,,,,,,,,,,,,,,,,,,,,,,,,,,,,,,,,,,,,,,,
,,,,,,651f877f99a86ed3d73471c5,2024-02-08_13h02.03.958,group3.1-3.2-social-tom,2023.2.2,MacIntel,59.88023952,65c5074098b851296ff0b7ed,65c5412c80ce2dd1a4552231,,,,,,,,,,,,,,,,,,,,,,,,,,,,,966.976,2,audio/Narrative5Situation6.wav,969.9894,,969.9895,975.657,"[[1.5,1916],[12.6,1999],[63.2,2085],[100,2500],[96,2584],[96,2667],[96,2749],[100,2834],[100,2918],[100,2999],[100,3084],[100,3166],[100,3250],[100,3335],[100,3417],[100,3499],[100,3582],[100,3667],[100,3749],[100,3832],[100,3916],[100,4000],[100,4084],[100,4169],[100,4250],[100,4334],[100,4417],[100,4503],[100,4584],[100,4667],[100,4749],[100,4835],[100,4917],[100,5002],[100,5084],[100,5165],[100,5249],[100,5332],[100,5415],[100,5499],[100,5582],[100,5667]]",1,0,975.6572,977.3077,99.87232208,0.8866,"[{""rating"":99.87232208251953,""responseTime"":0.8866000000014083}]",space,1.1015,,977.3077,Not at all,0,977.3089,,,[],,0,15,15,15,1,audio/Narrative8Situation6.wav,audio/Narrative7Situation6.wav,audio/Narrative6Situation6.wav,audio/Narrative5Situation6.wav,2,3,2,3,,,,,,,,,,,,,,,,,,,,,,,,,,,,,,,,,,,,,,,
,,,,,,651f877f99a86ed3d73471c5,2024-02-08_13h02.03.958,group3.1-3.2-social-tom,2023.2.2,MacIntel,59.88023952,65c5074098b851296ff0b7ed,65c5412c80ce2dd1a4552231,,,,,,,,,,,,,,,,,,,,,,,,,,,,,977.3091,2,audio/Narrative5Situation7.wav,981.3241,,981.3241,1002.3746,"[[999,10],[999,83],[999,164],[999,248],[999,332],[999,414],[999,501],[999,581],[999,666],[999,750],[999,834],[999,916],[17.2,8417],[36.9,8500],[59.2,8582],[69.3,8664],[69.4,8749],[68.5,8831],[58.6,8914],[36.6,8999],[8.1,9082]]",1,0,1002.3747,1005.3405,0.058161418,2.2554,"[{""rating"":0.058161417643226576,""responseTime"":2.2554000000059204}]",space,2.4183,,1005.3406,Definitely yes,100,1005.3426,,,[],,0,16,16,16,1,audio/Narrative8Situation7.wav,audio/Narrative7Situation7.wav,audio/Narrative6Situation7.wav,audio/Narrative5Situation7.wav,3,5,5,4,,,,,,,,,,,,,,,,,,,,,,,,,,,,,,,,,,,,,,,
,,,,,,651f877f99a86ed3d73471c5,2024-02-08_13h02.03.958,group3.1-3.2-social-tom,2023.2.2,MacIntel,59.88023952,65c5074098b851296ff0b7ed,65c5412c80ce2dd1a4552231,,,,,,,,,,,,,,,,,,,,,,,,,,,,,1005.3428,2,audio/Narrative5Situation8.wav,1008.3574,,1008.3575,1017.1748,"[[0.4,2918],[0.8,3000],[0.8,3081],[0.8,3167],[0.8,3250],[0.8,3333],[0.8,3416],[0.8,3499],[0.8,3583],[0.8,3666],[0.8,3750],[0.8,3832],[0.8,3916],[0.8,3997],[0.8,4082],[0.8,4166],[0.8,4247],[0.8,4331],[0.8,4414],[0.8,4499],[0.8,4584],[0.8,4667],[0.8,4749],[0.8,4831],[0.8,4916],[0.8,5000],[0.8,5081],[0.8,5167],[0.8,5249],[0.8,5333],[0.8,5414],[0.8,5500],[0.8,5581],[0.8,5666],[0.8,5749],[0.8,5832],[0.8,5914],[0.8,5999],[0.8,6082],[0.8,6166],[0.8,6247],[0.8,6331],[0.8,6416],[0.8,6498],[0.8,6581],[0.8,6665],[0.8,6748],[0.8,6830],[0.8,6917],[0.8,7001],[0.8,7080],[0.8,7167],[0.8,7248],[0.8,7332],[0.8,7417],[0.8,7498],[0.8,7581],[0.8,7667],[0.8,7751],[0.8,7834],[0.8,7916],[0.8,7998],[0.8,8082],[0.8,8167],[0.8,8251],[0.8,8330],[0.8,8417],[0.8,8498],[0.8,8584],[0.8,8664],[0.8,8752]]",1,0,1017.1748,1020.3896,0.788249969,2.6193,"[{""rating"":0.7882499694824241,""responseTime"":2.6192999999968833}]",space,2.6703,,1020.3897,Partially,50,1020.3916,,,[],,0,17,17,17,1,audio/Narrative8Situation8.wav,audio/Narrative7Situation8.wav,audio/Narrative6Situation8.wav,audio/Narrative5Situation8.wav,3,2,5,3,,,,,,,,,,,,,,,,,,,,,,,,,,,,,,,,,,,,,,,
,,,,,,651f877f99a86ed3d73471c5,2024-02-08_13h02.03.958,group3.1-3.2-social-tom,2023.2.2,MacIntel,59.88023952,65c5074098b851296ff0b7ed,65c5412c80ce2dd1a4552231,,,,,,,,,,,,,,,,,,,,,,,,,,,,,1020.3918,2,audio/Narrative5Situation9.wav,1023.407,,1023.407,1062.9573,"[[26.2,2832],[67.6,2916],[85.5,3001],[87.5,3083],[97.7,3167],[100,3248],[100,3331],[100,3414],[100,3501],[100,3581],[100,3667],[100,3750],[100,3831],[100,3916],[100,3998],[100,4081],[100,4165],[100,4250],[99.4,4331],[99.4,4414],[99.4,4497],[99.4,4585],[99.4,4667],[99.4,4750],[99.4,4832],[99.4,4916],[99.4,5000],[99.4,5083],[99.4,5168],[99.4,5249],[99.4,5332],[99.4,5417],[99.4,5500],[99.4,5583],[99.4,5666],[99.4,5749],[99.4,5832],[99.4,5914],[99.4,6001],[99.4,6083],[99.4,6164],[99.4,6251],[99.4,6331],[99.4,6416],[99.4,6499],[99.4,6582],[99.4,6668],[99.4,6751],[99.4,6831],[99.4,6915],[99.4,6999],[99.4,7081],[99.4,7168],[99.4,7249],[99.4,7331],[99.4,7418],[99.4,7499],[99.4,7582],[99.4,7666],[99.4,7750],[99.4,7832],[99.4,7916],[99.4,8000],[99.4,8085],[99.4,8168],[99.4,8250],[99.4,8333],[99.4,8418],[99.4,8499],[99.4,8584],[99.4,8668],[99.4,8749],[99.4,8831],[99.4,8914],[99.4,8998],[99.4,9082],[99.4,9167],[99.4,9249],[99.4,9332],[99.4,9416],[99.4,9500],[99.4,9582],[99.4,9666],[99.4,9749],[99.4,9831],[99.4,9916],[99.4,10000],[99.4,10083],[99.4,10167],[99.4,10250],[99.4,10331],[99.4,10416],[99.4,10500],[99.4,10582],[99.4,10665],[99.4,10749],[99.4,10833],[99.4,10914],[99.4,10999],[99.4,11082],[99.4,11166],[99.4,11248],[99.4,11331],[99.4,11414],[99.4,11501],[99.4,11582],[99.4,11666],[99.4,11750],[99.4,11831],[99.4,11916],[99.4,12000],[99.4,12081],[99.4,12168],[99.4,12249],[99.4,12333],[99.4,12416],[99.4,12499],[99.4,12583],[99.4,12668],[99.4,12749],[99.4,12835],[99.4,12917],[99.4,12999],[99.4,13082],[99.4,13166],[99.4,13251],[99.4,13334],[99.4,13415],[99.4,13500],[99.4,13584],[99.4,13667],[99.4,13751],[99.4,13831],[99.4,13918],[99.4,14002],[99.4,14082],[99.4,14167],[99.4,14248],[99.4,14332],[99.4,14418],[99.4,14499],[99.4,14585],[99.4,14667],[99.4,14750],[99.4,14832],[99.4,14915],[99.4,14998],[99.4,15082],[99.4,15165],[99.4,15249],[99.4,15331],[99.4,15417],[99.4,15500],[99.4,15583],[99.4,15667],[99.4,15748],[99.4,15832],[99.4,15915],[99.4,15999],[99.4,16083],[99.4,16168],[99.4,16250],[99.4,16332],[99.4,16417],[99.4,16498],[99.4,16583],[99.4,16667],[99.4,16749],[99.4,16832],[99.4,16915],[99.4,16999],[99.4,17082],[99.4,17166],[99.4,17251],[99.4,17332],[99.4,17414],[99.4,17499],[99.4,17581],[99.4,17666],[99.4,17748],[99.4,17833],[99.4,17916],[99.4,17999],[99.4,18082],[99.4,18168],[99.4,18250],[99.4,18333],[99.4,18415],[99.4,18500],[99.4,18582],[99.4,18666],[99.4,18750],[99.4,18832],[99.4,18916],[99.4,18998],[99.4,19082],[99.4,19166],[99.4,19250],[99.4,19332],[99.4,19418],[99.4,19499],[99.4,19584],[99.4,19668],[99.4,19751],[99.4,19832],[99.4,19918],[99.4,20000],[99.4,20083],[99.4,20166],[99.4,20249],[99.4,20331],[99.4,20416],[99.4,20499],[99.4,20583],[99.4,20666],[99.4,20749],[99.4,20831],[99.4,20917],[99.4,20998],[99.4,21083],[99.4,21166],[99.4,21250],[99.4,21332],[99.4,21417],[99.4,21500],[99.4,21584],[99.4,21665],[99.4,21750],[99.4,21834],[99.4,21918],[99.4,22000],[99.4,22081],[99.4,22165],[99.4,22250],[99.4,22332],[99.4,22416],[99.4,22500],[99.4,22582],[99.4,22666],[99.4,22749],[99.4,22831],[99.4,22916],[99.4,23000],[99.4,23082],[99.4,23166],[99.4,23249],[99.4,23331],[99.4,23416],[99.4,23500],[99.4,23584],[99.4,23665],[99.4,23748],[99.4,23832],[99.4,23918],[99.4,23998],[99.4,24086],[99.4,24167],[99.4,24250],[99.4,24331],[99.4,24416],[99.4,24501],[99.4,24582],[99.4,24667],[99.4,24748],[99.4,24831],[99.4,24916],[99.4,24998],[99.4,25081],[99.4,25166],[99.4,25249],[99.4,25331],[99.4,25416],[99.4,25499],[99.4,25583],[99.4,25667],[99.4,25751],[99.4,25831],[99.4,25917],[99.4,25999],[99.4,26082],[99.4,26166],[99.4,26251],[99.4,26332],[99.4,26418],[99.4,26498],[99.4,26582],[99.4,26667],[99.4,26750],[99.4,26831],[99.4,26915],[99.4,26999],[99.4,27081],[99.4,27168],[99.4,27250],[99.4,27333],[99.4,27416],[99.4,27499],[99.4,27583],[99.4,27665],[99.4,27750],[99.4,27831],[99.4,27915],[99.4,27999],[99.4,28081],[99.4,28168],[99.4,28252],[99.4,28333],[99.4,28415],[99.4,28501],[99.4,28581],[99.4,28666],[99.4,28750],[99.4,28831],[99.4,28916],[99.4,28999],[99.4,29083],[99.4,29165],[99.4,29248],[99.4,29333],[99.4,29415],[99.4,29500],[99.4,29584],[99.4,29667],[99.4,29750],[99.4,29832],[99.4,29916],[99.4,30000],[99.4,30082],[99.4,30165],[99.4,30248],[99.4,30331],[99.4,30417],[99.4,30500],[99.4,30581],[99.4,30665],[99.4,30747],[99.4,30832],[99.4,30918],[99.4,30999],[99.4,31083],[99.4,31167],[99.4,31249],[99.4,31332],[99.4,31416],[99.4,31499],[99.4,31583],[99.4,31667],[99.4,31749],[99.4,31835],[99.4,31916],[99.4,32002],[99.4,32081],[99.4,32166],[99.4,32250],[99.4,32331],[99.4,32415],[99.4,32500],[99.4,32581],[99.4,32666],[99.4,32750],[99.4,32831],[99.4,32916],[99.4,33000],[99.4,33082],[99.4,33169],[99.4,33250],[99.4,33333],[99.4,33416],[99.4,33497],[99.4,33581],[99.4,33666],[99.4,33748],[99.4,33831],[99.4,33918],[99.4,33999],[99.4,34082],[99.4,34167],[99.4,34248],[99.4,34331],[99.4,34416],[99.4,34501],[99.4,34581],[99.4,34666],[99.4,34749],[99.4,34832],[99.4,34918],[79.1,35002],[43.2,35083],[6.6,35166],[4.2,35251],[4.1,35332],[24.8,38750],[84.9,38998],[85.3,39081],[85.2,39164],[78,39248],[56.5,39331],[51.4,39417],[49.4,39502]]",1,0,1062.9575,1064.9404,49.25443014,1.1448,"[{""rating"":49.25443013509115,""responseTime"":1.1447999999970762}]",space,1.4512,,1064.9405,Partially,50,1068.5246,50.34552256,2.7466,"[{""rating"":50.34552256266276,""responseTime"":2.746600000001308}]",space,0,18,18,18,1,audio/Narrative8Situation9.wav,audio/Narrative7Situation9.wav,audio/Narrative6Situation9.wav,audio/Narrative5Situation9.wav,3,2,4,3,,,3.0326,,,,,,,,,,,,,,,,,,,,,,,,,,,,,,,,,,,,
,,,,,,651f877f99a86ed3d73471c5,2024-02-08_13h02.03.958,group3.1-3.2-social-tom,2023.2.2,MacIntel,59.88023952,65c5074098b851296ff0b7ed,65c5412c80ce2dd1a4552231,,,,,,,,,,,,,,,,,,,,,,,,,,,,,,,,,,,,,,,,,,,,,,,,,,,,,,,,,,,,,,,,,,,,,,,,1068.5248,1123.8559,space,54.8161,,1123.8565,1146.9383,space,22.7659,,,,,,,,,,,,,,,,,,,,,,,,,,
,,,,,,651f877f99a86ed3d73471c5,2024-02-08_13h02.03.958,group3.1-3.2-social-tom,2023.2.2,MacIntel,59.88023952,65c5074098b851296ff0b7ed,65c5412c80ce2dd1a4552231,,,,,,,,,,,,,,,,,,,,,,,,,,,,,1149.5346,1,audio/Narrative7Situation9.wav,1151.5382,,,,,,,1183.4082,1186.8051,98.79615784,3.1769,"[{""rating"":91.98415120442709,""responseTime"":1.5115000000000691},{""rating"":98.79615783691406,""responseTime"":3.1769000000060714}]",space,2.8509,,1183.4061,Definitely yes,100,1183.4082,,,[],,,,,,,,,,,2,2,2,2,,,,,,,,,,,,,,,1146.949,1149.5223,1151.5386,3,1183.4058,"[[43.7,999],[37.5,1083],[35.4,1166],[5.4,3501],[5.7,3582],[6.1,3667],[6.2,3750],[6.6,3833],[8.6,3918],[8.8,4000],[8.8,4082],[8.8,4166],[8.8,4249],[8.8,4332],[8.8,4417],[8.8,4499],[8.8,4583],[8.8,4665],[8.8,4749],[8.8,4832],[8.8,4918],[8.8,4999],[8.8,5082],[8.8,5166],[8.8,5249],[8.8,5333],[8.8,5415],[8.8,5499],[8.8,5583],[8.8,5666],[8.8,5749],[8.8,5833],[8.3,5919],[8,5999],[6.6,6083],[4.8,6169],[4.8,6249],[2.5,6333],[1.2,6419],[1.2,6500],[1.2,6582],[1.2,6665],[1.2,6749],[1.2,6833],[1.2,6915],[1.2,6999],[1.2,7083],[1.2,7166],[1.2,7248],[1.2,7332],[1.2,7417],[1.2,7500],[1.2,7583],[1.2,7667],[1.2,7750],[1.2,7833],[1.2,7917],[1.2,7999],[1.2,8082],[1.2,8169],[1.2,8249],[1.2,8332],[1.2,8417],[1.2,8501],[1.2,8582],[1.2,8667],[1.2,8749],[1.2,8832],[1.2,8917],[1.2,9000],[1.2,9082],[1.2,9168],[1.2,9249],[1.2,9334],[1.2,9416],[1.2,9499],[1.2,9584],[1.2,9666],[1.2,9750],[1.2,9833],[1.2,9917],[1.2,10000],[1.2,10084],[1.2,10169],[1.2,10249],[1.2,10332],[1.2,10416],[1.2,10499],[1.2,10584],[1.2,10666],[1.2,10749],[1.2,10834],[1.2,10918],[1.2,11000],[1.2,11084],[1.2,11166],[1.2,11249],[1.2,11332],[1.2,11416],[1.2,11499],[1.2,11583],[1.2,11665],[1.2,11749],[1.2,11833],[1.2,11917],[1.2,11999],[1.2,12082],[1.2,12165],[1.2,12249],[1.2,12332],[1.2,12418],[1.2,12499],[1.2,12583],[1.2,12665],[1.2,12750],[1.2,12833],[1.2,12916],[1.1,12999],[1.1,13082],[1.1,13165],[1.1,13249],[1.1,13333],[1.1,13416],[1.1,13500],[1.1,13582],[1.1,13666],[1.1,13750],[1.1,13833],[1.1,13915],[1.1,13999],[1.1,14083],[1.1,14166],[1.1,14249],[1.1,14332],[1.1,14418],[1.1,14499],[1.1,14582],[1.1,14668],[1.1,14750],[1.1,14833],[1.1,14919],[1.1,14999],[1.1,15082],[1.1,15168],[1.1,15249],[1.1,15332],[1.1,15418],[1.1,15499],[1.1,15583],[1.1,15668],[1.1,15749],[1.1,15832],[1.1,15915],[1.1,15999],[1.1,16083],[1.1,16169],[1.1,16250],[1.1,16332],[1.1,16415],[1.1,16499],[1.1,16584],[1.1,16666],[1.1,16749],[1.1,16832],[1.1,16915],[1.1,17004],[1.1,17082],[1.1,17168],[1.1,17249],[1.1,17333],[1.1,17415],[1.1,17501],[1.1,17584],[1.1,17666],[1.1,17750],[1.1,17832],[1.1,17918],[1.1,17999],[1.1,18082],[1.1,18167],[1.1,18249],[1.1,18333],[1.1,18416],[1.1,18500],[1.1,18583],[1.1,18667],[1.1,18750],[1.1,18833],[1.1,18916],[1.1,18999],[1.1,19084],[1.1,19165],[1.1,19251],[1.1,19334],[1.1,19416],[1.1,19500],[1.1,19583],[1.1,19665],[1.1,19749],[1.1,19833],[1.1,19915],[1.1,20000],[1.1,20082],[1.1,20169],[1.1,20249],[1.1,20335],[1.1,20416],[1.1,20499],[1.1,20582],[1.1,20666],[1.1,20750],[1.1,20832],[1.1,20919],[1.1,21000],[1.1,21083],[1.1,21165],[1.1,21251],[1.1,21333],[1.1,21415],[1.1,21499],[1.1,21583],[1.1,21667],[1.1,21751],[1.1,21832],[1.1,21916],[1.1,22000],[1.1,22082],[1.1,22165],[1.1,22249],[1.1,22332],[1.1,22416],[1.1,22500],[1.1,22584],[1.1,22667],[1.1,22751],[1.1,22832],[1.1,22917],[1.1,22999],[1.1,23083],[1.1,23165],[1.1,23249],[1.1,23333],[1.1,23419],[1.1,23499],[1.1,23582],[1.1,23669],[1.2,23749],[3.6,23833],[4.3,23916],[4.5,23999],[6,24083],[8,24166],[8.8,24249],[8.9,24332],[8.9,24418],[8.9,24500],[9,24582],[13.8,24669],[19.4,24751],[25.1,24833],[36.1,24918],[43.3,24999],[49.8,25083],[54.1,25165],[54.1,25250],[54.1,25333],[54.2,25416],[53.7,25500],[53,25582],[52.8,25668],[52.5,25749],[52.4,25833],[52.1,25916],[51.7,25999],[51,26083],[50.8,26165],[50.8,26249],[50.8,26333],[50.8,26416],[50.8,26499],[50.8,26584],[50.8,26665],[50.8,26749],[50.8,26832],[50.8,26919],[50.8,26999],[50.8,27083],[50.8,27165],[50.8,27249],[50.8,27333],[50.8,27416],[50.8,27499],[50.8,27585],[50.8,27665],[50.8,27751],[50.8,27834],[50.8,27919],[50.8,27999],[50.8,28083],[52.6,28167],[69.3,28249],[90,28332],[99.5,28416],[99.5,28500],[100,28583],[100,28669],[100,28749],[100,28834],[100,28916],[100,28999],[100,29082],[100,29166],[100,29249],[100,29332],[100,29418],[100,29501],[91.2,30083],[90.9,30166],[90.9,30249],[90.9,30332],[90.7,30417],[90.4,30498],[90.4,30582],[90.4,30666],[90.4,30749],[90.4,30833],[90.4,30915],[90.4,31001],[90.4,31082],[90.4,31168],[90.4,31249],[90.4,31332],[90.4,31417],[90.4,31499],[90.4,31582],[90.4,31666],[90.4,31750],[90.4,31833]]",0,0,0,0,1,"Larry had recently lost his family, job and home, and was now living on his own in the park. He had most of his belongings, including some clothes, a blanket, and his mother’s special necklace. His family had been very important to him and he felt as though he did not have much going for him. One of his first days in the park he came across a family that did not have much food and looked very cold. He decided to give them some of his food and his blanket.","Larry had recently lost his family, job and home, and was now living on his own in the park. He had most of his belongings, including some clothes, a blanket, and his mother’s special necklace. His family had been very important to him and he felt as though he did not have much going for him. One of his first days in the park he came across a family that did not have much food and looked very cold. He decided to give them some of his food and his blanket.","Larry had recently lost his family, job and home, and was now living on his own in the park. He had most of his belongings, including some clothes, a blanket, and his mother’s special necklace. His family had been very important to him and he felt as though he did not have much going for him. One of his first days in the park he came across a family that did not have much food and looked very cold. He decided to give them some of his food and his blanket.","Larry had recently lost his family, job and home, and was now living on his own in the park. He had most of his belongings, including some clothes, a blanket, and his mother’s special necklace. His family had been very important to him and he felt as though he did not have much going for him. One of his first days in the park he came across a family that did not have much food and looked very cold. He decided to give them some of his food and his blanket.",,,,,,,,,,
,,,,,,651f877f99a86ed3d73471c5,2024-02-08_13h02.03.958,group3.1-3.2-social-tom,2023.2.2,MacIntel,59.88023952,65c5074098b851296ff0b7ed,65c5412c80ce2dd1a4552231,,,,,,,,,,,,,,,,,,,,,,,,,,,,,1186.8055,1,audio/Narrative7Situation9.wav,1189.6884,space,,,,,,1213.5657,1215.2879,0.300165812,1.3873,"[{""rating"":0.3001658121744799,""responseTime"":1.3873000000044158}]",space,1.1844,,1213.5567,Partially,50,1213.5657,,,[],,,,,,,,,,,6,2,3,9,2.8638,,,,,,,,,,,,,,,,1189.6884,3,1213.5567,"[[0.2,4671],[0.4,4749],[1.5,4833],[1.9,4918],[2.2,4999],[2.2,5082],[2.2,5167],[2.2,5249],[2.1,5335],[1.6,5419],[1.3,5501],[1.1,5585],[0.9,5667],[0.9,5749],[0.9,5834],[0.9,5919],[0.9,5999],[0.9,6082],[0.9,6166],[0.9,6249],[0.9,6333],[0.9,6415],[0.9,6502],[0.9,6582],[0.9,6668],[0.9,6751],[0.9,6832],[0.9,6917],[0.9,6999],[0.9,7083],[0.9,7168],[0.9,7249],[0.9,7333],[0.9,7419],[0.9,7499],[0.9,7583],[0.9,7669],[0.9,7751],[0.9,7833],[0.9,7916],[0.9,8000],[0.9,8083],[0.9,8169],[0.9,8248],[0.9,8332],[0.9,8415],[0.9,8501],[0.9,8583],[0.9,8667],[0.9,8748],[0.9,8834],[0.9,8918],[0.9,8999],[0.9,9083],[0.9,9168],[0.9,9249],[0.9,9333],[0.9,9417],[0.9,9499],[0.9,9582],[0.9,9665],[0.9,9750],[0.9,9833],[0.9,9919],[0.9,10000],[0.9,10086],[0.9,10166],[0.9,10250],[0.9,10333],[0.9,10418],[0.9,10500],[0.9,10583],[0.9,10669],[0.9,10749],[0.9,10834],[0.9,10916],[0.9,10999],[0.9,11083],[0.9,11167],[0.9,11249],[0.9,11333],[0.9,11419],[0.9,11499],[0.9,11584],[0.9,11666],[0.9,11749],[0.9,11833],[0.9,11919],[0.9,11999],[0.9,12084],[0.9,12166],[0.9,12251],[0.9,12333],[0.9,12416],[0.9,12499],[0.9,12582],[0.9,12665],[0.9,12750],[0.9,12833],[0.9,12918],[0.9,13000],[0.9,13083],[0.9,13167],[0.9,13250],[0.9,13333],[0.9,13418],[0.9,13500],[0.9,13582],[0.9,13665],[0.9,13750],[0.9,13833],[0.9,13915],[0.9,13999],[0.9,14082],[0.9,14166],[0.9,14249],[0.9,14333],[0.9,14416],[0.9,14503],[0.9,14583],[0.9,14669],[0.9,14750],[0.9,14833],[0.9,14916],[0.9,14999],[0.9,15084],[0.9,15166],[0.9,15249],[0.9,15332],[0.9,15415],[0.9,15499],[0.9,15583],[0.9,15666],[0.9,15749],[0.9,15832],[0.9,15916],[0.9,15999],[0.9,16082],[0.9,16168],[0.9,16249],[0.9,16332],[0.9,16417],[0.9,16499],[0.9,16582],[0.9,16669],[0.9,16749],[0.9,16832],[0.9,16919],[0.9,16999],[0.9,17083],[0.9,17169],[0.9,17250],[0.9,17333],[0.9,17418],[0.9,17500],[0.9,17583],[0.9,17666],[0.9,17749],[0.9,17832],[0.9,17915],[0.9,17999],[0.9,18083],[0.9,18166],[0.9,18251],[0.9,18332],[0.9,18417],[0.9,18498],[0.9,18582],[0.9,18666],[1,18749],[1,18833],[1,18915],[1,19000],[1,19083],[1,19169],[1,19249],[1,19333],[1,19418],[1,19499],[1,19583],[1,19665],[1,19750],[1,19833],[1,19917],[1,19999],[1,20084],[1,20166],[1,20249],[1,20333],[1,20416],[1,20500],[1,20583],[1,20668],[1,20749],[1,20833],[1,20915],[1,20999],[1,21085],[1,21166],[1,21249],[1,21333],[1,21417],[1,21500],[1,21582],[1,21665],[1,21749],[1,21833],[1,21916],[1,22002],[1,22082],[1,22166],[1,22249],[1,22333],[1,22417],[1,22500],[1,22582],[1,22669],[1,22751],[1,22832],[1,22919],[1,22999],[1,23083],[1,23168],[1,23249],[1,23333],[1,23417],[1,23500],[1,23582],[1,23668],[1,23749],[1,23832]]",0,1,1,1,1,"It was just another Sunday afternoon for Lucy, she was on her way to the farmer's market to pick up some produce. When she arrived at the old train depot that housed the market, she noticed two men fighting on the steps. Before she could call for help, one of the men crumpled to his knees. The other man dropped an object that appeared to be a knife and ran off. When Lucy approached the crime scene she realized that the man who had been murdered was the Mayor and that he had a gunshot wound.","One day at work, Margaret walked up to her partner, Al, to ask him to talk to the chief of staff at the local hospital where she worked as a nurse.","Luke always thought of himself as an honest man. That's why during his evening jog around the swamp, he pondered his recent affair with the receptionist at work. Luke looked up at the sky and asked God why he was so weak and unfaithful. He thought of the impact this would have on his family and told God of his conflicted feelings toward telling his wife Marta.","Linda and Amy had been best friends since kindergarten, they even found homes on the same street in the forest on the edge of town. Their biggest fight had been over who gets the bigger slice of cake, until Amy married Dan. Linda loathed Dan, she thought he was manipulative and had a violent temper. She only put up with him because Amy loved him. ",,,,,,,,,,
