exp_question,consent.started,consent.stopped,consentResponse.keys,consentResponse.rt,consentResponse.duration,participantID,date,expName,psychopyVersion,OS,frameRate,STUDY_ID,SESSION_ID,opening1.started,opening1.stopped,keyEndingOpening1.keys,keyEndingOpening1.rt,keyEndingOpening1.duration,volumeAdjust.started,volumeAdjust.stopped,endingAdjust.keys,endingAdjust.rt,endingAdjust.duration,opening2.started,opening2.stopped,keyEndingOpening.keys,keyEndingOpening.rt,keyEndingOpening.duration,mouse.x,mouse.y,mouse.leftButton,mouse.midButton,mouse.rightButton,mouse.time,instructionLoop.thisRepN,instructionLoop.thisTrialN,instructionLoop.thisN,instructionLoop.thisIndex,instructionLoop.ran,readyForAudio.started,readyForAudio.stopped,fixation.started,run,audio_played,fixation.stopped,endPractice.keys,audioPre.started,audioPre.stopped,continuousResponses_audio,continuousSlider.response,continuousSlider.rt,intRating.started,intRating.stopped,intQuestionSlider.response,intQuestionSlider.rt,intQuestionSlider.history,confirmResponse.keys,confirmResponse.rt,confirmResponse.duration,catchQuestion.started,catch_label,catch_value,catchQuestion.stopped,catchQuestionSlider.response,catchQuestionSlider.rt,catchQuestionSlider.history,confirmResponse_2.keys,audioRunLoop.thisRepN,audioRunLoop.thisTrialN,audioRunLoop.thisN,audioRunLoop.thisIndex,audioRunLoop.ran,conditions1_1,conditions2_1,conditions1_2,conditions2_2,dur1_1,dur2_1,dur1_2,dur2_2,endPractice.rt,endPractice.duration,confirmResponse_2.rt,confirmResponse_2.duration,runIntervalBreak.started,runIntervalBreak.stopped,endingBreakKey.keys,endingBreakKey.rt,endingBreakKey.duration,connection.started,connection.stopped,connectionEnding.keys,connectionEnding.rt,connectionEnding.duration,readyForText.started,readyForText.stopped,textPre.started,run_dup,textPre.stopped,continuousResponses_text,textRunLoop.thisRepN,textRunLoop.thisTrialN,textRunLoop.thisN,textRunLoop.thisIndex,textRunLoop.ran,text1_1,text1_2,text2_1,text2_2,runBreakText.started,runBreakText.stopped,endingBreakKey_2.keys,endingBreakKey_2.rt,endingBreakKey_2.duration,ending.started,ending.stopped,endingEnding.keys,endingEnding.rt,endingEnding.duration
tom,0.0005,38.8213,y,38.4885,,6536a9f9ac4d61b9d34f5b3b,2024-05-13_09h09.06.023,group3.1-3.2-social-tom,2023.2.2,Win32,60.60606061,65c5074098b851296ff0b7ed,664236e9bda8db0f1c687a3e,,,,,,,,,,,,,,,,,,,,,,,,,,,,,,,,,,,,,,,,,,,,,,,,,,,,,,,,,,,,,,,,,,,,,,,,,,,,,,,,,,,,,,,,,,,,,,,,,,,,,,,,,,
,,,,,,6536a9f9ac4d61b9d34f5b3b,2024-05-13_09h09.06.023,group3.1-3.2-social-tom,2023.2.2,Win32,60.60606061,65c5074098b851296ff0b7ed,664236e9bda8db0f1c687a3e,38.822,44.0429,space,5.1459,,,,,,,,,,,,,,,,,,,,,,,,,,,,,,,,,,,,,,,,,,,,,,,,,,,,,,,,,,,,,,,,,,,,,,,,,,,,,,,,,,,,,,,,,,,,,,,,,,,,,,
,,,,,,6536a9f9ac4d61b9d34f5b3b,2024-05-13_09h09.06.023,group3.1-3.2-social-tom,2023.2.2,Win32,60.60606061,65c5074098b851296ff0b7ed,664236e9bda8db0f1c687a3e,,,,,,44.0432,107.2027,space,62.835,,,,,,,,,,,,,,,,,,,,,,,,,,,,,,,,,,,,,,,,,,,,,,,,,,,,,,,,,,,,,,,,,,,,,,,,,,,,,,,,,,,,,,,,,,,,,,,,,
,,,,,,6536a9f9ac4d61b9d34f5b3b,2024-05-13_09h09.06.023,group3.1-3.2-social-tom,2023.2.2,Win32,60.60606061,65c5074098b851296ff0b7ed,664236e9bda8db0f1c687a3e,,,,,,,,,,,107.2341,113.8533,space,6.5831,,[],[],[],[],[],[],0,0,0,0,1,,,,,,,,,,,,,,,,,,,,,,,,,,,,,,,,,,,,,,,,,,,,,,,,,,,,,,,,,,,,,,,,,,,,,,,,,,,,,,,,
,,,,,,6536a9f9ac4d61b9d34f5b3b,2024-05-13_09h09.06.023,group3.1-3.2-social-tom,2023.2.2,Win32,60.60606061,65c5074098b851296ff0b7ed,664236e9bda8db0f1c687a3e,,,,,,,,,,,113.8541,128.2318,space,14.2731,,[],[],[],[],[],[],1,0,1,0,1,,,,,,,,,,,,,,,,,,,,,,,,,,,,,,,,,,,,,,,,,,,,,,,,,,,,,,,,,,,,,,,,,,,,,,,,,,,,,,,,
,,,,,,6536a9f9ac4d61b9d34f5b3b,2024-05-13_09h09.06.023,group3.1-3.2-social-tom,2023.2.2,Win32,60.60606061,65c5074098b851296ff0b7ed,664236e9bda8db0f1c687a3e,,,,,,,,,,,128.2324,139.7065,space,11.4148,,[],[],[],[],[],[],2,0,2,0,1,,,,,,,,,,,,,,,,,,,,,,,,,,,,,,,,,,,,,,,,,,,,,,,,,,,,,,,,,,,,,,,,,,,,,,,,,,,,,,,,
,,,,,,6536a9f9ac4d61b9d34f5b3b,2024-05-13_09h09.06.023,group3.1-3.2-social-tom,2023.2.2,Win32,60.60606061,65c5074098b851296ff0b7ed,664236e9bda8db0f1c687a3e,,,,,,,,,,,139.7276,150.2972,space,10.5411,,[],[],[],[],[],[],3,0,3,0,1,,,,,,,,,,,,,,,,,,,,,,,,,,,,,,,,,,,,,,,,,,,,,,,,,,,,,,,,,,,,,,,,,,,,,,,,,,,,,,,,
,,,,,,6536a9f9ac4d61b9d34f5b3b,2024-05-13_09h09.06.023,group3.1-3.2-social-tom,2023.2.2,Win32,60.60606061,65c5074098b851296ff0b7ed,664236e9bda8db0f1c687a3e,,,,,,,,,,,150.3187,152.3316,p,1.9886,,[],[],[],[],[],[],4,0,4,0,1,,,,,,,,,,,,,,,,,,,,,,,,,,,,,,,,,,,,,,,,,,,,,,,,,,,,,,,,,,,,,,,,,,,,,,,,,,,,,,,,
,,,,,,6536a9f9ac4d61b9d34f5b3b,2024-05-13_09h09.06.023,group3.1-3.2-social-tom,2023.2.2,Win32,60.60606061,65c5074098b851296ff0b7ed,664236e9bda8db0f1c687a3e,,,,,,,,,,,152.3324,172.896,space,20.5287,,[],[],[],[],[],[],5,0,5,0,1,,,,,,,,,,,,,,,,,,,,,,,,,,,,,,,,,,,,,,,,,,,,,,,,,,,,,,,,,,,,,,,,,,,,,,,,,,,,,,,,
,,,,,,6536a9f9ac4d61b9d34f5b3b,2024-05-13_09h09.06.023,group3.1-3.2-social-tom,2023.2.2,Win32,60.60606061,65c5074098b851296ff0b7ed,664236e9bda8db0f1c687a3e,,,,,,,,,,,172.9168,183.5739,space,10.633,,[],[],[],[],[],[],6,0,6,0,1,,,,,,,,,,,,,,,,,,,,,,,,,,,,,,,,,,,,,,,,,,,,,,,,,,,,,,,,,,,,,,,,,,,,,,,,,,,,,,,,
,,,,,,6536a9f9ac4d61b9d34f5b3b,2024-05-13_09h09.06.023,group3.1-3.2-social-tom,2023.2.2,Win32,60.60606061,65c5074098b851296ff0b7ed,664236e9bda8db0f1c687a3e,,,,,,,,,,,,,,,,,,,,,,,,,,,183.5994,186.1717,186.2169,1,audio/Narrative13Situation2.wav,188.2233,,188.2236,217.9951,"[[999,2],[999,162],[999,245],[999,329],[999,403],[999,496],[999,579],[999,662],[999,733],[999,829],[999,913],[999,986],[999,1082],[999,1178],[999,1262],[999,1333],[999,1428],[999,1500],[999,1586],[999,1680],[999,1750],[999,1846],[999,1930],[999,2014],[999,2097],[999,2167],[999,2253],[999,2347],[999,2417],[999,2514],[999,2597],[999,2670],[999,2763],[999,2835],[999,2931],[999,3001],[999,3087],[999,3171],[999,3251],[999,3347],[999,3421],[999,3502],[999,3598],[999,3668],[999,3764],[999,3835],[999,3931],[999,4002],[999,4098],[999,4181],[999,4268],[999,4352],[999,4435],[999,4518],[999,4602],[999,4685],[999,4769],[999,4852],[999,4935],[999,5019],[999,5102],[999,5186],[999,5269],[999,5352],[999,5449],[999,5519],[999,5606],[999,5686],[999,5769],[999,5866],[999,5939],[999,6023],[999,6103],[999,6186],[999,6282],[999,6353],[999,6440],[999,6524],[999,6607],[999,6701],[999,6783],[999,6853],[999,6937],[999,7021],[999,7103],[999,7187],[999,7274],[999,7359],[999,7437],[999,7533],[999,7604],[999,7690],[999,7784],[999,7854],[999,7950],[999,8022],[999,8108],[999,8201],[999,8271],[999,8367],[999,8451],[999,8525],[999,8619],[999,8688],[999,8784],[999,8855],[999,8941],[999,9025],[999,9105],[999,9202],[999,9272],[999,9368],[999,9442],[999,9525],[999,9618],[999,9689],[999,9776],[999,9855],[999,9942],[999,10036],[999,10120],[999,10193],[999,10272],[999,10356],[999,10453],[999,10523],[999,10620],[999,10690],[999,10773],[999,10856],[999,10949],[999,11036],[999,11107],[999,11192],[999,11286],[999,11359],[999,11443],[999,11523],[58,12041],[58,12124],[58.3,12207],[58.4,12304],[58.4,12387],[58.4,12470],[58.6,12542],[59,12638],[59,12721],[59,12794],[59,12887],[58.6,12971],[56.9,13056],[55,13137],[54.5,13221],[54.5,13305],[54.5,13388],[54.5,13471],[54.5,13555],[54.5,13638],[54.5,13722],[54.5,13805],[54.5,13888],[54.5,13971],[54.5,14055],[54.5,14138],[54.5,14222],[54.5,14305],[54.5,14389],[54.5,14472],[54.2,14556],[53.8,14640],[52.9,14722],[51.2,14806],[50.5,14889],[50.4,14973],[50.2,15056],[49.6,15139],[48.2,15223],[47.1,15306],[46.3,15407],[46.3,15476],[46.3,15573],[45.5,15658],[43.2,15739],[41.7,15825],[40.8,15907],[40.4,15989],[40.1,16073],[39,16156],[33.8,16240],[29,17657],[29.5,17741],[29.5,17815],[29.5,17908],[29.5,17978],[29.5,18064],[29.5,18147],[29.5,18241],[29.5,18311],[29.5,18395],[29.5,18492],[29.5,18574],[29.5,18645],[29.5,18728],[29.5,18811],[29.5,18895],[29.5,18978],[29.5,19062],[29.5,19145],[29.5,19229],[29.5,19312],[29.5,19395],[29.5,19479],[31.3,19562],[39.5,19645],[45.5,19729],[51.2,19812],[54.2,19896],[54.7,19980],[55.4,20063],[56.4,20146],[56.8,20230],[56.8,20312],[56.8,20396],[56.8,20479],[56.8,20563],[56.8,20646],[56.8,20730],[56.8,20813],[56.8,20896],[56.8,20980],[56.8,21063],[56.8,21146],[56.8,21230],[56.8,21313],[56.8,21397],[56.8,21480],[56.8,21564],[56.8,21647],[56.8,21730],[56.8,21814],[56.8,21897],[56.8,21981],[56.8,22064],[56.8,22147],[56.8,22231],[56.8,22314],[56.8,22397],[56.8,22481],[56.8,22564],[56.8,22648],[56.8,22731],[56.8,22815],[56.8,22898],[56.8,22981],[56.8,23065],[56.8,23148],[56.8,23232],[56.8,23315],[56.8,23398],[56.8,23482],[56.8,23565],[56.8,23648],[56.8,23732],[56.8,23815],[56.8,23898],[56.8,23983],[56.8,24065],[56.8,24149],[56.8,24232],[56.8,24316],[56.8,24399],[56.8,24482],[56.8,24566],[56.8,24649],[56.8,24732],[56.8,24816],[56.8,24899],[56.8,24983],[56.8,25066],[56.8,25149],[56.8,25233],[56.8,25316],[56.8,25399],[56.8,25483],[56.8,25566],[56.8,25650],[56.8,25733],[56.8,25817],[56.8,25900],[56.8,25983],[56.8,26067],[56.8,26150],[56.8,26234],[56.8,26317],[56.8,26400],[56.8,26484],[56.8,26567],[56.8,26650],[56.8,26734],[56.8,26817],[56.8,26901],[56.8,26984],[56.8,27067],[56.8,27151],[56.8,27234],[56.8,27318],[56.8,27401],[56.8,27485],[56.8,27568],[56.8,27651],[56.8,27734],[56.8,27818],[56.8,27901],[56.8,27984],[56.8,28068],[56.8,28152],[56.8,28235],[56.8,28318],[56.8,28402],[56.8,28485],[56.8,28569],[56.8,28652],[56.8,28735],[56.8,28819],[56.8,28902],[56.8,28985],[56.8,29069],[56.8,29152],[56.8,29235],[56.8,29319],[56.8,29402],[56.8,29486],[56.8,29569],[56.8,29667],[56.8,29736]]",1,0,217.9956,226.918,74.41520468,6.5158,"[{""rating"":74.41520467836258,""responseTime"":6.515800000011922}]",space,8.3745,,226.9187,All the time,100,226.9289,,,[],,0,0,0,0,1,audio/Narrative13Situation2.wav,audio/Narrative13Situation2.wav,audio/Narrative13Situation2.wav,audio/Narrative13Situation2.wav,2,2,2,2,,,,,,,,,,,,,,,,,,,,,,,,,,,,,,,,,,,,,,,
,,,,,,6536a9f9ac4d61b9d34f5b3b,2024-05-13_09h09.06.023,group3.1-3.2-social-tom,2023.2.2,Win32,60.60606061,65c5074098b851296ff0b7ed,664236e9bda8db0f1c687a3e,,,,,,,,,,,,,,,,,,,,,,,,,,,,,226.9294,1,audio/Narrative8Situation1.wav,229.7015,space,229.7016,245.6292,"[[999,2],[999,95],[999,179],[999,262],[999,346],[999,430],[999,513],[999,596],[999,679],[999,763],[999,846],[999,930],[999,1013],[999,1096],[999,1196],[999,1266],[999,1353],[999,1436],[999,1530],[999,1602],[999,1697],[999,1780],[999,1863],[999,1946],[999,2031],[999,2114],[999,2187],[999,2281],[999,2354],[66.5,2452],[66.2,2535],[66,2618],[66,2701],[65.9,2798],[65.9,2881],[65.9,2964],[65.9,3034],[65.9,3121],[65.9,3214],[65.9,3285],[65.9,3369],[65.9,3452],[63,3550],[61.3,3634],[60.9,3718],[60.9,3785],[62.9,3868],[64.8,3952],[65.2,4035],[65.2,4119],[65.2,4202],[65.2,4286],[65.4,4369],[65.4,4455],[65.4,4536],[65.4,4619],[65.4,4703],[65.4,4786],[65.4,4869],[65.4,4953],[65.4,5036],[65.4,5119],[67.2,5203],[68.9,5286],[69.9,5369],[70.8,5453],[72,5536],[73,5621],[73.5,5703],[73.5,5787],[74.1,5871],[75,5954],[75.7,6037],[75.9,6120],[75.9,6203],[75.9,6287],[75.9,6370],[75.9,6454],[75.9,6537],[75.9,6620],[75.9,6704],[75.9,6787],[75.9,6871],[75.9,6954],[75.9,7037],[75.9,7121],[75.9,7204],[75.9,7288],[75.9,7371],[75.9,7455],[75.9,7538],[75.9,7621],[75.9,7705],[75.9,7788],[75.9,7871],[75.9,7955],[75.9,8038],[75.9,8123],[75.9,8205],[75.9,8288],[75.9,8372],[75.9,8455],[75.9,8538],[75.9,8622],[75.9,8705],[75.9,8789],[75.9,8872],[75.9,8955],[75.9,9039],[75.9,9122],[75.9,9206],[75.9,9289],[75.9,9373],[75.9,9456],[75.9,9539],[75.9,9622],[75.9,9706],[75.9,9789],[75.9,9874],[75.9,9956],[75.9,10039],[75.9,10123],[75.9,10206],[75.9,10290],[75.7,10391],[75.4,10473],[75.4,10556],[75.4,10646],[75.4,10738],[75.4,10807],[75.4,10890],[75.4,10986],[75.4,11070],[73,11154],[71.1,11234],[70.5,11310],[70,11391],[69.7,11474],[69.4,11557],[68.9,11641],[68.8,11725],[68.8,11807],[68.5,11891],[68.3,11974],[68.3,12057],[68.3,12141],[68.3,12224],[68.1,12308],[67.5,12391],[67.5,12474],[67.5,12558],[67.5,12642],[67.5,12725],[67.5,12808],[67.5,12891],[67.5,12975],[67.5,13058],[67.5,13142],[67.5,13225],[67.5,13308],[67.5,13392],[67.5,13475],[67.5,13559],[67.5,13642],[67.5,13725],[67.5,13809],[67.5,13892],[67.5,13975],[68.6,14059],[73.5,14142],[77.3,14225],[79.8,14309],[80.4,14393],[80.8,14476],[81.9,14559],[82.9,14643]]",1,0,245.6296,255.4492,79.89766082,9.4722,"[{""rating"":79.89766081871346,""responseTime"":7.4338000000118996},{""rating"":79.89766081871346,""responseTime"":9.47219999998805}]",space,9.2728,,255.4494,Not at all,0,255.4569,,,[],,0,1,1,1,1,audio/Narrative7Situation1.wav,audio/Narrative8Situation1.wav,audio/Narrative5Situation1.wav,audio/Narrative6Situation1.wav,2,5,5,2,2.7363,,,,,,,,,,,,,,,,,,,,,,,,,,,,,,,,,,,,,,
,,,,,,6536a9f9ac4d61b9d34f5b3b,2024-05-13_09h09.06.023,group3.1-3.2-social-tom,2023.2.2,Win32,60.60606061,65c5074098b851296ff0b7ed,664236e9bda8db0f1c687a3e,,,,,,,,,,,,,,,,,,,,,,,,,,,,,255.4575,1,audio/Narrative8Situation2.wav,258.4676,,258.4676,268.5785,"[[75.7,4089],[76.2,4173],[76.4,4256],[76.6,4339],[76.9,4423],[77.9,4507],[78.4,4589],[78.5,4673],[78.8,4756],[78.8,4840],[78.8,4923],[78.8,5006],[78.8,5090],[78.8,5173],[78.8,5257],[87.6,5340],[90.4,5423],[90.4,5507],[90.4,5590],[90.4,5676],[90.4,5757],[90.5,5841],[90.5,5924],[90.5,6007],[90.5,6091],[90.5,6174],[90.5,6257],[90.5,6341],[90.5,6424],[90.5,6507],[90.5,6591],[90.5,6674],[90.5,6758],[90.5,6841],[90.5,6925],[90.5,7008],[90.5,7091],[90.5,7175],[90.5,7258],[90.5,7341],[90.2,7425],[89.8,7509],[89.5,7592],[89.5,7675],[89.4,7758],[89.4,7842],[89.4,7925],[89.4,8009],[89.4,8092],[89.4,8175],[89.4,8259],[89.4,8342],[89.4,8426],[89.4,8509],[89.4,8592],[89.4,8676],[89.4,8759],[89.4,8842],[89.4,8926],[89.4,9009],[89.4,9092],[89.4,9176],[89.4,9259],[89.4,9343],[89.4,9426],[89.4,9510],[89.4,9593],[89.4,9676],[89.4,9760],[89.4,9844],[89.4,9927],[89.4,10010],[89.4,10093]]",1,0,268.5787,272.2142,90.27777778,1.7316,"[{""rating"":90.27777777777779,""responseTime"":1.7316000000238887}]",space,3.0874,,272.2143,Not at all,0,272.2179,,,[],,0,2,2,2,1,audio/Narrative7Situation2.wav,audio/Narrative8Situation2.wav,audio/Narrative5Situation2.wav,audio/Narrative6Situation2.wav,3,3,3,3,,,,,,,,,,,,,,,,,,,,,,,,,,,,,,,,,,,,,,,
,,,,,,6536a9f9ac4d61b9d34f5b3b,2024-05-13_09h09.06.023,group3.1-3.2-social-tom,2023.2.2,Win32,60.60606061,65c5074098b851296ff0b7ed,664236e9bda8db0f1c687a3e,,,,,,,,,,,,,,,,,,,,,,,,,,,,,272.2185,1,audio/Narrative8Situation3.wav,276.2336,,276.2336,298.6323,"[[88.7,3697],[88.3,3783],[88.3,3865],[88.3,3936],[88.3,4022],[88.3,4115],[88.3,4202],[88.2,4282],[87.9,4366],[87.5,4449],[87.4,4524],[87.4,4615],[87.4,4699],[87.4,4782],[87.4,4853],[87.4,4949],[87.4,5032],[87.4,5106],[87.4,5199],[87.4,5270],[87.4,5353],[87.4,5439],[87.4,5533],[87.4,5604],[87.4,5690],[87.4,5784],[87.4,5853],[87.4,5936],[87.4,6020],[87.4,6116],[87.4,6187],[87.4,6283],[87.4,6367],[87.4,6437],[87.4,6524],[87.4,6617],[87.4,6700],[87.4,6773],[87.4,6867],[87.4,6950],[87.4,7024],[87.4,7108],[87.4,7201],[87.4,7272],[87.4,7369],[87.4,7438],[87.4,7521],[87.4,7604],[87.4,7688],[87.4,7771],[87.4,7855],[87.4,7938],[87.4,8021],[87.4,8105],[87.4,8188],[87.4,8271],[87.4,8355],[87.4,8438],[87.4,8521],[87.4,8605],[87.4,8688],[87.4,8772],[87.4,8855],[87.4,8939],[87.4,9022],[87.4,9105],[87.4,9189],[87.4,9272],[87.4,9356],[87.4,9439],[87.4,9522],[87.4,9606],[87.4,9689],[87.4,9773],[87.4,9856],[87.4,9939],[87.4,10023],[87.4,10108],[87.4,10190],[86.9,10274],[84.6,10357],[83.9,11274],[83.6,11358],[83.6,11440],[83.6,11524],[83.6,11607],[83.6,11691],[83.6,11774],[83.6,11857],[83.6,11941],[83.6,12024],[83.6,12108],[83.6,12191],[83.6,12274],[83.6,12358],[83.6,12441],[83.6,12524],[83.6,12608],[83.6,12691],[83.6,12775],[83.6,12858],[83.6,12941],[84.3,13025],[84.5,13108],[85.1,13192],[86,13276],[86.8,13359],[87.7,13442],[87.9,13525],[87.9,13608],[87.9,13692],[87.9,13775],[87.9,13859],[87.9,13942],[87.9,14025],[87.9,14109],[87.9,14192],[87.9,14276],[87.9,14359],[87.9,14442],[87.9,14526],[87.9,14609],[87.9,14692],[87.9,14776],[87.9,14859],[87.9,14943],[87.9,15026],[87.9,15110],[87.9,15192],[87.9,15276],[87.9,15360],[87.9,15443],[87.9,15527],[87.9,15610],[87.9,15693],[87.9,15777],[87.9,15860],[87.9,15943],[87.9,16027],[87.9,16110],[87.9,16194],[87.9,16277],[87.9,16361],[87.9,16444],[87.9,16527],[87.9,16611],[87.9,16694],[87.9,16777],[87.9,16861],[87.9,16944],[87.9,17028],[87.9,17111],[87.9,17194],[87.9,17278],[87.9,17361],[87.9,17445],[87.9,17528],[87.9,17611],[87.9,17695],[87.9,17778],[87.9,17862],[87.9,17945],[87.9,18028],[87.9,18112],[87.9,18195],[87.9,18278],[87.9,18362],[87.9,18445],[87.9,18528],[87.9,18612],[87.9,18695],[87.9,18779],[87.9,18862],[87.9,18946],[87.9,19029],[87.9,19113],[87.9,19196],[87.9,19279],[87.9,19363],[87.9,19446],[87.9,19530],[87.9,19613],[87.9,19696],[87.9,19779],[87.9,19863],[87.9,19946],[87.9,20030],[87.9,20113],[87.9,20197],[87.9,20280],[87.9,20363],[87.9,20447],[87.9,20530],[87.9,20613],[87.9,20697],[87.9,20780],[83.9,20863],[80.8,20947],[78.4,21031],[69,21114],[66.7,21197],[66.7,21281],[69.1,21365],[74.1,21447],[78.5,21531],[81.6,21615],[85.2,21698],[86.1,21781],[85.9,21864],[85.9,21948],[89.5,22031],[90.9,22115],[91.1,22198],[91.1,22281],[91.1,22365]]",1,0,298.6328,301.7344,91.66666667,1.2368,"[{""rating"":91.66666666666667,""responseTime"":1.2368000000118968}]",space,2.5505,,301.7345,All the time,100,301.7415,,,[],,0,3,3,3,1,audio/Narrative7Situation3.wav,audio/Narrative8Situation3.wav,audio/Narrative5Situation3.wav,audio/Narrative6Situation3.wav,8,4,3,5,,,,,,,,,,,,,,,,,,,,,,,,,,,,,,,,,,,,,,,
,,,,,,6536a9f9ac4d61b9d34f5b3b,2024-05-13_09h09.06.023,group3.1-3.2-social-tom,2023.2.2,Win32,60.60606061,65c5074098b851296ff0b7ed,664236e9bda8db0f1c687a3e,,,,,,,,,,,,,,,,,,,,,,,,,,,,,301.7419,1,audio/Narrative8Situation4.wav,304.7664,,304.7664,318.9474,"[[999,20],[999,103],[999,186],[999,284],[999,355],[999,436],[999,520],[999,616],[999,700],[999,783],[999,856],[999,940],[999,1033],[999,1116],[999,1200],[61.9,1284],[59.3,1367],[54.1,1449],[49.5,1533],[48.5,1620],[49.9,1687],[52.6,1771],[52.7,1854],[52.8,1938],[54.3,2021],[57.2,2104],[57.3,2188],[57.2,2271],[56.8,2354],[56.7,2438],[56.7,2521],[56.7,2605],[56.7,2688],[56.7,2771],[56.7,2855],[56.7,2938],[56.7,3021],[56.7,3105],[56.7,3188],[56.7,3272],[56.7,3355],[56.7,3439],[56.7,3522],[56.7,3606],[56.7,3689],[56.7,3772],[56.7,3855],[56.7,3939],[56.7,4022],[56.7,4106],[56.7,4189],[56.7,4272],[56.7,4356],[42.9,4439],[40.5,4522],[39.3,4606],[38.2,4689],[38.2,4773],[38.2,4856],[38.2,4939],[29.2,5023],[26.2,5106],[23.5,5189],[22.7,5273],[22.7,5357],[22.7,5440],[22.7,5523],[22.7,5607],[22.7,5690],[22.7,5773],[22.7,5857],[22.7,5940],[22.2,6023],[21.6,6107],[20.7,6190],[18.9,6273],[18.5,6357],[18.5,6440],[18.5,6523],[18.5,6607],[18.5,6690],[18.5,6774],[18.5,6857],[18.5,6941],[18.5,7024],[18.5,7108],[18.5,7191],[18.5,7274],[18.5,7358],[18.5,7441],[18.5,7525],[18.5,7608],[27.6,7692],[37.6,7775],[46.4,7858],[51,7941],[55,8025],[61.6,8109],[65.4,8192],[67.1,8276],[68.7,8359],[69.9,8442],[69.9,8525],[69.9,8609],[73,8692],[74.1,8775],[74.6,8859],[74.6,8942],[74.6,9026],[74.6,9109],[74.6,9192],[74.6,9276],[74.6,9359],[74.6,9442],[74.6,9526],[74.6,9609],[74.6,9693],[74.6,9776],[74.6,9859],[74.6,9943],[74.6,10026],[74.6,10110],[74.6,10193],[74.6,10276],[74.6,10360],[74.6,10443],[78.7,10526],[83.3,10610],[84.9,10693],[86.7,10777],[87.6,10860],[87.7,10944],[87.7,11027],[87.7,11110],[87.7,11194],[87.7,11277],[87.7,11360],[87.7,11444],[87.7,11527],[87.7,11611],[87.7,11694],[87.7,11778],[87.7,11861],[87.7,11944],[87.7,12028],[87.7,12111],[87.7,12194],[87.7,12278],[87.7,12361],[87.7,12445],[87.7,12528],[87.7,12611],[87.7,12695],[87.7,12778],[87.7,12862],[87.7,12945],[89.6,13028],[89.8,13112],[89.8,13195],[89.8,13278],[89.8,13362],[89.8,13445],[90,13529],[90.2,13613],[90.2,13695],[90.2,13779],[90.2,13862],[90.4,13946],[90.6,14029],[90.6,14112]]",1,0,318.9477,323.4292,91.44736842,3.8135,"[{""rating"":92.10526315789474,""responseTime"":0.9284000000357651},{""rating"":91.44736842105263,""responseTime"":3.8134999999999764}]",space,3.9362,,323.4294,Not at all,0,323.4357,,,[],,0,4,4,4,1,audio/Narrative7Situation4.wav,audio/Narrative8Situation4.wav,audio/Narrative5Situation4.wav,audio/Narrative6Situation4.wav,3,3,1,2,,,,,,,,,,,,,,,,,,,,,,,,,,,,,,,,,,,,,,,
,,,,,,6536a9f9ac4d61b9d34f5b3b,2024-05-13_09h09.06.023,group3.1-3.2-social-tom,2023.2.2,Win32,60.60606061,65c5074098b851296ff0b7ed,664236e9bda8db0f1c687a3e,,,,,,,,,,,,,,,,,,,,,,,,,,,,,323.4362,1,audio/Narrative8Situation5.wav,325.4374,,325.4374,333.6731,"[[68.3,4283],[64.5,4365],[59.6,4449],[58.5,4532],[58.3,4616],[58.5,4699],[61.5,4782],[67,4866],[74.1,4949],[77.1,5032],[77.6,5116],[77.6,5203],[77.6,5296],[82.1,5381],[87.1,5462],[87.7,5537],[88.2,5616],[90.5,5712],[91.2,5797],[92,5881],[92.1,5963],[92.4,6047],[93.9,6130],[96.6,6216],[98.1,6296],[98.1,6370],[98.1,6453],[98.1,6534],[96.9,6621],[96.1,6702],[95.4,6785],[95.4,6870],[95.4,6964],[95.4,7034],[95.4,7130],[95.4,7214],[95.4,7285],[95.4,7368],[95.4,7451],[95.4,7534],[95.4,7621],[95.4,7714],[95.4,7799],[95.4,7871],[95.4,7951],[95.4,8035],[95.4,8121],[95.4,8205]]",1,0,333.6733,335.9382,95.39473684,0.853,"[{""rating"":95.39473684210526,""responseTime"":0.8530000000000086}]",space,1.7186,,335.9384,Not at all,0,335.9421,,,[],,0,5,5,5,1,audio/Narrative7Situation5.wav,audio/Narrative8Situation5.wav,audio/Narrative5Situation5.wav,audio/Narrative6Situation5.wav,5,2,5,2,,,,,,,,,,,,,,,,,,,,,,,,,,,,,,,,,,,,,,,
,,,,,,6536a9f9ac4d61b9d34f5b3b,2024-05-13_09h09.06.023,group3.1-3.2-social-tom,2023.2.2,Win32,60.60606061,65c5074098b851296ff0b7ed,664236e9bda8db0f1c687a3e,,,,,,,,,,,,,,,,,,,,,,,,,,,,,335.9426,1,audio/Narrative8Situation6.wav,337.9593,,337.9593,344.4306,"[[94.6,5586],[91.7,5670],[91.2,5753],[91.2,5837],[91.2,5920],[91.2,6004],[91,6087],[91,6170],[91,6254],[91,6337],[91,6420]]",1,0,344.4315,346.7986,93.93274854,1.0981,"[{""rating"":93.93274853801171,""responseTime"":1.0980999999642336}]",space,1.8184,,346.7987,All the time,100,346.8042,,,[],,0,6,6,6,1,audio/Narrative7Situation6.wav,audio/Narrative8Situation6.wav,audio/Narrative5Situation6.wav,audio/Narrative6Situation6.wav,3,2,3,2,,,,,,,,,,,,,,,,,,,,,,,,,,,,,,,,,,,,,,,
,,,,,,6536a9f9ac4d61b9d34f5b3b,2024-05-13_09h09.06.023,group3.1-3.2-social-tom,2023.2.2,Win32,60.60606061,65c5074098b851296ff0b7ed,664236e9bda8db0f1c687a3e,,,,,,,,,,,,,,,,,,,,,,,,,,,,,346.8047,1,audio/Narrative8Situation7.wav,349.8174,,349.8175,361.9091,"[[93.6,834],[93.6,917],[93.6,1000],[93.6,1083],[93.5,1167],[86,1250],[71.5,1334],[66.3,1417],[66,1500],[67.4,1584],[69.2,1667],[69.2,1750],[66.8,1834],[64.8,1917],[63.3,2000],[62.5,2084],[62.5,2167],[62.5,2251],[62.5,2334],[62.5,2418],[62.5,2501],[62.5,2584],[62.5,2668],[62.5,2751],[62.5,2835],[62.5,2918],[62.5,3001],[62.5,3085],[62.5,3168],[62.5,3251],[62.5,3335],[62.5,3418],[62.5,3502],[62.4,3585],[61.9,3669],[61.9,3754],[61.9,3835],[61.9,3918],[61.5,4003],[60.7,4085],[60.6,4169],[60.5,4252],[60.3,4336],[60,4419],[60,4502],[60,4586],[60,4669],[60,4752],[60,4836],[60,4919],[60,5003],[60,5086],[60,5169],[60,5253],[60,5336],[60,5420],[60,5503],[60,5587],[60.2,5670],[60.5,5753],[61.2,5837],[61.8,5920],[62.3,6004],[62.3,6087],[62.3,6170],[62.3,6253],[62.3,6337],[62.3,6420],[62.9,6504],[63.2,6587],[63.2,6671],[63.2,6754],[63.2,6837],[63.2,6921],[63.2,7004],[63.2,7088],[63.2,7171],[63.2,7255],[63.2,7338],[63.2,7421],[63.3,7504],[63.5,7588],[65.1,7671],[66.7,7755],[67.3,7838],[67.3,7921],[67.7,8005],[67.8,8088],[67.8,8171],[67.8,8255],[67.8,8338],[67.8,8422],[67.8,8505],[67.8,8589],[67.8,8672],[67.8,8756],[67.8,8839],[67.8,8922],[67.8,9006],[67.8,9089],[67.8,9172],[67.8,9256],[67.8,9339],[67.8,9422],[67.8,9506],[67.8,9589],[67.8,9673],[69.5,9760],[70,9839],[70.5,9923],[70.8,10006],[70.8,10089],[70.8,10173],[70.8,10256],[71.3,10340],[72.5,10423],[73.5,10507],[74.6,10590],[75.6,10673],[76.8,10757],[78.1,10840],[79.5,10923],[80.8,11007],[81.4,11091],[82,11174],[82.4,11257],[82.5,11341],[82.5,11424],[82.5,11507],[82.5,11590],[82.5,11674],[82.5,11757],[82.5,11841],[82.5,11924],[82.5,12008],[82.5,12091]]",1,0,361.9094,364.6777,82.89473684,1.9151,"[{""rating"":82.89473684210526,""responseTime"":1.9151000000238696}]",space,2.2183,,364.6778,Not at all,0,364.6841,,,[],,0,7,7,7,1,audio/Narrative7Situation7.wav,audio/Narrative8Situation7.wav,audio/Narrative5Situation7.wav,audio/Narrative6Situation7.wav,5,3,4,5,,,,,,,,,,,,,,,,,,,,,,,,,,,,,,,,,,,,,,,
,,,,,,6536a9f9ac4d61b9d34f5b3b,2024-05-13_09h09.06.023,group3.1-3.2-social-tom,2023.2.2,Win32,60.60606061,65c5074098b851296ff0b7ed,664236e9bda8db0f1c687a3e,,,,,,,,,,,,,,,,,,,,,,,,,,,,,364.6846,1,audio/Narrative8Situation8.wav,367.6964,,367.6964,380.5548,"[[70.3,3854],[65.7,3935],[64.9,4019],[64.8,4102],[66,4185],[70.5,4269],[75.7,4352],[78.3,4435],[78.6,4519],[78.9,4602],[79.2,4686],[79.9,4769],[80.7,4853],[81.4,4937],[82,5020],[82.1,5103],[82.1,5186],[82.1,5269],[82.1,5353],[82.1,5436],[82.1,5520],[82.1,5603],[82.1,5687],[82.1,5783],[82.1,5854],[82.1,5941],[82.1,6020],[82.1,6106],[82.1,6187],[82.1,6270],[84.7,6366],[88,6450],[89.3,6536],[90.1,6618],[90.2,6691],[90.2,6774],[90.2,6867],[90.2,6937],[90.2,7021],[90.2,7104],[90.2,7201],[90.2,7271],[90.2,7359],[90.1,7451],[89.7,7535],[89.3,7618],[89.1,7702],[89.1,7771],[89.1,7855],[89.1,7938],[89.1,8021],[89.1,8105],[89.1,8188],[89.1,8271],[89.1,8355],[89.1,8438],[89.1,8522],[89.1,8605],[89.1,8688],[89.1,8772],[89.1,8855],[89.1,8939],[89.1,9022],[89.1,9106],[89.1,9189],[89.1,9272],[89.1,9356],[89.1,9439],[89.1,9522],[89.1,9606],[89.1,9689],[89.1,9773],[89.1,9856],[89.1,9939],[89.1,10023],[89.1,10106],[89.1,10190],[89.1,10273],[89.1,10356],[89.1,10440],[89.1,10523],[89.1,10607],[89.1,10690],[89.1,10773],[89.1,10857],[89.1,10940],[89.1,11024],[89.1,11107],[89.1,11190],[89.1,11274],[89.1,11357],[89.1,11441],[89.1,11524],[89.1,11607],[89.1,11691],[89.1,11774],[89.1,11857],[89.1,11941],[89.1,12024],[89.1,12108],[89.1,12191],[89.1,12274],[89.1,12358],[89.1,12441],[89.1,12524],[88.2,12608],[75.4,12708],[67.1,12791]]",1,0,380.5548,382.4197,68.71345029,1.1645,"[{""rating"":68.71345029239765,""responseTime"":1.1645000000000323}]",space,1.3162,,382.4198,All the time,100,382.4257,,,[],,0,8,8,8,1,audio/Narrative7Situation8.wav,audio/Narrative8Situation8.wav,audio/Narrative5Situation8.wav,audio/Narrative6Situation8.wav,2,3,3,5,,,,,,,,,,,,,,,,,,,,,,,,,,,,,,,,,,,,,,,
,,,,,,6536a9f9ac4d61b9d34f5b3b,2024-05-13_09h09.06.023,group3.1-3.2-social-tom,2023.2.2,Win32,60.60606061,65c5074098b851296ff0b7ed,664236e9bda8db0f1c687a3e,,,,,,,,,,,,,,,,,,,,,,,,,,,,,382.4263,1,audio/Narrative8Situation9.wav,385.4417,,385.4418,396.7497,"[[66.2,1848],[65.3,1931],[64.6,2001],[64,2099],[64,2170],[64,2254],[64,2334],[64,2418],[64,2504],[64.5,2598],[65.1,2682],[65.4,2756],[65.5,2835],[65.6,2918],[65.6,3001],[65.6,3088],[65.6,3182],[65.6,3252],[65.6,3349],[66.1,3432],[67.6,3504],[70.6,3598],[78.9,3682],[82.5,3765],[84.9,3848],[86,3921],[88.5,4014],[89,4099],[89.5,4169],[89.8,4265],[90.1,4349],[90.1,4423],[90.1,4502],[90.1,4587],[90.1,4683],[90.1,4753],[90.1,4848],[90.1,4920],[90.1,5005],[90.1,5100],[90.1,5169],[90.1,5253],[90.1,5336],[90.1,5419],[90.1,5503],[90.1,5586],[90.1,5670],[90.1,5753],[90.1,5840],[90.1,5933],[90.1,6004],[90.1,6090],[90.1,6170],[90.1,6254],[90.1,6350],[90.1,6420],[90.1,6503],[90.1,6587],[90.1,6684],[90.1,6767],[90.1,6839],[90.1,6925],[90.1,7017],[90.1,7088],[90.1,7171],[90.1,7254],[90.1,7350],[90.1,7424],[90.1,7508],[90.1,7601],[90.1,7671],[90.1,7757],[90.1,7840],[90.1,7921],[90.1,8018],[90.1,8088],[90.1,8172],[90.1,8255],[90.1,8351],[90.1,8435],[90.1,8506],[90.1,8593],[90.1,8672],[90.1,8756],[90.1,8839],[90.1,8922],[90.1,9006],[90.1,9089],[90.1,9174],[90.1,9269],[90.1,9352],[90.1,9432],[90.1,9507],[90.1,9593],[90.1,9676],[90.1,9756],[90.1,9853],[90.1,9923],[90.1,10019],[90.1,10103],[90.1,10178],[90.1,10257],[90.1,10340],[90.1,10423],[90.1,10507],[90.1,10590],[90.1,10673],[90.1,10757],[90.1,10840],[90.1,10924],[90.1,11007],[90.1,11090],[90.1,11174],[90.1,11257]]",1,0,396.7499,398.4969,90.05847953,0.9584,"[{""rating"":90.05847953216374,""responseTime"":0.9583999999761659}]",space,1.2081,,398.497,Half the time,50,398.5029,,,[],,0,9,9,9,1,audio/Narrative7Situation9.wav,audio/Narrative8Situation9.wav,audio/Narrative5Situation9.wav,audio/Narrative6Situation9.wav,2,3,3,4,,,,,,,,,,,,,,,,,,,,,,,,,,,,,,,,,,,,,,,
,,,,,,6536a9f9ac4d61b9d34f5b3b,2024-05-13_09h09.06.023,group3.1-3.2-social-tom,2023.2.2,Win32,60.60606061,65c5074098b851296ff0b7ed,664236e9bda8db0f1c687a3e,,,,,,,,,,,,,,,,,,,,,,,,,,,,,398.5033,1,audio/Narrative7Situation1.wav,400.5187,,400.5187,456.4084,"[[84.1,2514],[34.6,3016],[28.7,3098],[27.3,3181],[27.2,3265],[27.2,3348],[27,3419],[24.9,3515],[23.9,3599],[26.2,3682],[33.5,3765],[37.3,3837],[38,3933],[38.3,4008],[38.3,4100],[38.3,4182],[38.3,4255],[38.3,4339],[38.3,4419],[38.3,4503],[38.3,4599],[38.3,4671],[38.3,4766],[38.3,4839],[38.3,4919],[38.3,5016],[38.3,5086],[38.3,5170],[38.3,5253],[38.3,5336],[38.3,5420],[38.3,5503],[38.3,5600],[38.3,5674],[38.3,5758],[38.3,5850],[38.3,5924],[38.3,6007],[38.3,6100],[38.3,6171],[38.3,6255],[38.3,6337],[38.3,6434],[38.3,6505],[38.3,6591],[38.3,6684],[38.3,6757],[38.3,6841],[38.3,6934],[38.3,7004],[38.3,7100],[38.3,7171],[38.3,7254],[38.3,7350],[38.3,7437],[38.3,7518],[38.3,7589],[38.3,7675],[38.3,7768],[38.3,7841],[38.3,7922],[38.3,8009],[38.3,8102],[38.3,8175],[38.3,8268],[38.3,8342],[38.3,8425],[38.3,8508],[38.3,8589],[37.2,8706],[34.6,8772],[32.7,8856],[31.9,8939],[31.9,9022],[31.9,9106],[31.9,9189],[31.9,9273],[31.9,9356],[32.2,9440],[32.2,9523],[32.5,9607],[32.5,9690],[32.7,9774],[34.4,9856],[40.8,9940],[48,10023],[52.2,10106],[52.5,10190],[52.5,10273],[52.5,10357],[52.5,10440],[52.1,10524],[51.5,10607],[50.1,10690],[47.4,10774],[46.1,10857],[44.9,10940],[42.3,11024],[41.2,11108],[40.4,11191],[40,11274],[39.8,11357],[39.8,11441],[39.8,11524],[40.1,11608],[40.6,11691],[41.2,11774],[41.4,11858],[41.4,11941],[41.4,12024],[41.4,12108],[41.4,12192],[41.4,12275],[41.4,12358],[41.4,12441],[41.4,12525],[41.4,12608],[41.4,12692],[41.4,12775],[41.4,12858],[41.4,12942],[41.4,13025],[41.4,13109],[41.4,13192],[41.4,13275],[41.4,13359],[47.1,13442],[54.8,13526],[57.5,13609],[58.2,13692],[59.1,13775],[59.1,13859],[59,13943],[58.8,14025],[58.8,14109],[58.8,14192],[58.8,14276],[58.8,14359],[58.8,14443],[58.8,14526],[58.8,14610],[58.8,14693],[58.8,14777],[58.8,14860],[58.8,14943],[58.8,15027],[58.8,15110],[58.8,15193],[58.8,15277],[58.8,15360],[58.8,15444],[59.1,15527],[59.2,15611],[59.2,15694],[59.5,15778],[59.6,15861],[59.8,15944],[59.9,16027],[60.1,16111],[60.1,16194],[60.1,16278],[60.1,16361],[60.1,16444],[60.1,16528],[60.1,16611],[60.1,16694],[60.1,16778],[60.1,16861],[60.1,16945],[60.1,17028],[60.1,17111],[60.1,17195],[60.1,17278],[60.1,17362],[60.1,17445],[60.1,17528],[60.1,17612],[60.1,17695],[60.1,17779],[60.1,17862],[60.1,17945],[60.1,18029],[60.1,18112],[60.1,18195],[60.1,18279],[60.1,18362],[60.1,18446],[60.1,18529],[60.1,18612],[60.1,18696],[60.1,18779],[60.1,18863],[60.1,18946],[60.1,19029],[60.1,19113],[60.1,19196],[60.1,19280],[60.1,19363],[60.1,19446],[60.1,19530],[60.1,19613],[60.1,19696],[60.1,19780],[60.1,19863],[60.1,19946],[60.1,20030],[60.1,20113],[60.1,20196],[60.1,20280],[60.1,20364],[60.1,20447],[60.1,20530],[60.1,20614],[60.1,20697],[60.1,20781],[60.1,20864],[60.1,20948],[60.1,21031],[60.1,21114],[60.1,21197],[60.1,21281],[60.1,21364],[60.1,21448],[60.1,21531],[60.1,21615],[60.1,21698],[60.1,21781],[60.1,21865],[60.1,21948],[60.1,22031],[60.1,22115],[60.1,22198],[60.1,22282],[60.1,22365],[60.1,22448],[60.1,22532],[60.1,22615],[60.1,22699],[60.1,22782],[60.1,22865],[60.1,22949],[60.1,23032],[60.1,23115],[60.1,23199],[60.1,23282],[60.1,23366],[60.1,23449],[60.1,23532],[60.1,23616],[60.1,23699],[60.1,23783],[60.1,23866],[60.1,23949],[60.1,24033],[60.1,24116],[60.1,24199],[62.2,24302],[64.2,24383],[65.8,24466],[66.9,24550],[67.8,24633],[69.1,24716],[71.1,24800],[72.8,24883],[73.8,24967],[75.1,25050],[76.1,25133],[76.6,25217],[76.6,25300],[76.6,25384],[76.6,25467],[76.6,25551],[76.6,25634],[76.6,25717],[76.6,25800],[76.6,25884],[76.6,25967],[76.6,26051],[76.6,26147],[76.6,26219],[76.6,26316],[76.6,26384],[76.6,26468],[76.6,26551],[76.6,26635],[76.6,26718],[76.6,26801],[76.6,26885],[76.6,26968],[76.6,27051],[76.6,27135],[76.6,27218],[76.6,27302],[76.6,27385],[76.6,27468],[76.6,27552],[76.6,27635],[76.6,27719],[76.6,27802],[76.6,27885],[76.6,27969],[76.6,28052],[78.1,28154],[78.4,28236],[78.4,28333],[78.4,28416],[78.4,28499],[78.4,28569],[78.4,28666],[78.4,28736],[78.4,28819],[78.4,28903],[78.4,28999],[78.4,29070],[78.4,29166],[78.4,29239],[78.4,29319],[78.4,29403],[78.4,29499],[78.4,29573],[78.4,29657],[78.4,29750],[78.4,29823],[78.4,29907],[78.4,30000],[78.4,30070],[78.4,30167],[78.4,30237],[78.4,30333],[78.4,30404],[78.4,30490],[78.4,30583],[78.4,30654],[78.4,30737],[78.4,30821],[78.4,30904],[78.4,30988],[78.4,31071],[78.4,31167],[78.4,31238],[85.7,31335],[96.5,31419],[98.8,31502],[98.8,31574],[98,31654],[91.1,31751],[81.9,31836],[79.9,31907],[78.7,32002],[78.3,32072],[78.3,32159],[78.3,32252],[78.3,32324],[78.3,32408],[78.3,32488],[78.3,32572],[78.3,32668],[77.5,32752],[86.8,35671],[86.8,35743],[87.1,35839],[87.1,35922],[87.1,36005],[87.4,36078],[87.4,36171],[87.4,36244],[87.4,36337],[87.4,36408],[87.4,36494],[87.4,36575],[87.4,36671],[87.4,36744],[87.4,36825],[87.4,36912],[87.4,37004],[87.4,37078],[87.4,37172],[87.4,37255],[87.4,37325],[87.4,37422],[87.4,37492],[87.4,37575],[87.4,37659],[87.4,37742],[87.4,37839],[87.4,37909],[87.4,37992],[87.4,38089],[87.4,38173],[87.4,38242],[87.4,38326],[87.4,38411],[87.4,38493],[87.4,38576],[87.4,38672],[87.4,38743],[87.4,38829],[87.4,38923],[87.4,38993],[87.4,39081],[87.4,39173],[87.4,39244],[87.4,39327],[87.4,39424],[87.4,39507],[87.4,39577],[87.4,39663],[87.4,39757],[87.4,39827],[87.4,39911],[87.4,40008],[87.4,40077],[87.4,40160],[87.4,40244],[87.4,40340],[87.4,40417],[87.4,40494],[87.4,40578],[87.4,40661],[87.4,40744],[87.4,40828],[87.4,40911],[87.4,40994],[87.4,41078],[87.4,41161],[87.4,41245],[87.4,41328],[87.4,41411],[87.4,41495],[87.4,41578],[87.4,41662],[87.4,41745],[87.4,41829],[87.4,41912],[87.4,41995],[87.4,42079],[87.4,42162],[87.4,42245],[87.4,42329],[87.4,42412],[87.4,42495],[87.4,42579],[87.4,42662],[87.4,42746],[87.4,42829],[87.4,42912],[87.4,42996],[87.4,43079],[87.4,43163],[87.4,43246],[87.4,43329],[87.4,43413],[87.4,43496],[87.4,43580],[87.4,43663],[87.4,43746],[87.4,43830],[87.4,43913],[87.4,43996],[87.4,44080],[87.4,44163],[87.4,44247],[87.4,44330],[87.4,44413],[87.4,44497],[87.4,44580],[87.4,44664],[87.4,44747],[87.4,44830],[87.4,44914],[87.4,44997],[87.4,45081],[87.4,45164],[87.4,45248],[87.4,45332],[87.4,45414],[87.4,45497],[87.4,45581],[87.4,45664],[87.4,45748],[87.4,45831],[87.4,45915],[87.4,45998],[87.4,46081],[87.4,46165],[87.4,46248],[87.4,46331],[87.4,46415],[87.4,46498],[87.4,46582],[87.4,46665],[87.4,46748],[87.4,46832],[87.4,46915],[87.4,46999],[87.4,47082],[87.4,47165],[87.4,47249],[87.4,47332],[87.4,47416],[87.4,47499],[87.4,47582],[87.4,47666],[87.4,47749],[87.4,47833],[87.4,47916],[87.4,47999],[87.4,48083],[88.6,48184],[89.6,48280],[90.1,48353],[90.1,48447],[90.1,48519],[90.1,48600],[90.1,48683],[90.1,48766],[90.6,48864],[90.9,48947],[91.2,49021],[91.4,49100],[91.4,49183],[91.4,49280],[91.4,49353],[91.4,49446],[91.4,49517],[91.4,49600],[91.4,49687],[91.4,49780],[91.4,49851],[91.4,49937],[91.4,50031],[91.4,50115],[91.4,50184],[91.4,50281],[91.4,50351],[91.4,50434],[91.4,50523],[91.4,50615],[91.4,50687],[91.4,50771],[91.4,50864],[91.4,50934],[91.4,51018],[91.4,51114],[91.4,51185],[91.4,51281],[91.4,51355],[91.4,51448],[91.4,51518],[91.4,51605],[91.4,51685],[91.4,51768],[91.4,51852],[91.4,51935],[91.4,52032],[91.4,52116],[91.4,52199],[91.4,52282],[91.4,52352],[91.4,52439],[91.4,52519],[91.4,52602],[91.4,52686],[91.4,52769],[91.4,52856],[91.4,52936],[91.4,53023],[91.4,53117],[91.4,53186],[91.4,53283],[91.4,53366],[91.4,53439],[91.4,53520],[91.4,53617],[91.4,53690],[91.4,53770],[91.4,53857],[91.4,53950],[91.4,54023],[91.4,54117],[91.4,54200],[91.4,54274],[91.4,54357],[91.4,54440],[91.4,54520],[91.4,54617],[91.4,54687],[91.4,54783],[91.4,54855],[91.4,54941],[91.4,55021],[91.4,55104],[91.4,55187],[91.4,55280],[91.4,55354],[91.4,55438],[91.4,55524],[91.4,55618],[91.4,55688],[91.4,55785],[91.4,55868]]",1,0,456.4089,460.8437,91.37426901,0.4817,"[{""rating"":91.37426900584795,""responseTime"":0.48169999998805224}]",space,3.8869,,460.8438,Not at all,0,460.8674,,,[],,0,10,10,10,1,audio/Narrative8Situation1.wav,audio/Narrative7Situation1.wav,audio/Narrative6Situation1.wav,audio/Narrative5Situation1.wav,5,2,2,5,,,,,,,,,,,,,,,,,,,,,,,,,,,,,,,,,,,,,,,
,,,,,,6536a9f9ac4d61b9d34f5b3b,2024-05-13_09h09.06.023,group3.1-3.2-social-tom,2023.2.2,Win32,60.60606061,65c5074098b851296ff0b7ed,664236e9bda8db0f1c687a3e,,,,,,,,,,,,,,,,,,,,,,,,,,,,,460.8677,1,audio/Narrative7Situation2.wav,463.879,,463.8791,471.3642,"[[82,6120],[77.7,6203],[76.5,6287],[75.4,6371],[74.6,6455],[74,6537],[74,6634],[74,6704],[74,6787],[74,6871],[74,6954],[78,7052],[80.6,7136],[81.9,7221],[82,7304],[81.7,7388],[81.7,7484]]",1,0,471.3643,472.9823,85.81871345,1.1876,"[{""rating"":85.81871345029239,""responseTime"":1.1876000000238491}]",space,1.0684,,472.9824,Half the time,50,472.9891,,,[],,0,11,11,11,1,audio/Narrative8Situation2.wav,audio/Narrative7Situation2.wav,audio/Narrative6Situation2.wav,audio/Narrative5Situation2.wav,3,3,3,3,,,,,,,,,,,,,,,,,,,,,,,,,,,,,,,,,,,,,,,
,,,,,,6536a9f9ac4d61b9d34f5b3b,2024-05-13_09h09.06.023,group3.1-3.2-social-tom,2023.2.2,Win32,60.60606061,65c5074098b851296ff0b7ed,664236e9bda8db0f1c687a3e,,,,,,,,,,,,,,,,,,,,,,,,,,,,,472.9896,1,audio/Narrative7Situation3.wav,480.9907,,480.9908,490.2474,"[[85.7,1697],[85.7,1769],[84.2,1864],[77.2,1947],[72.4,2019],[71.6,2105],[71.6,2188],[71.6,2267],[71.6,2364],[71.6,2438],[71.6,2531],[76.7,2615],[79.2,2686],[79.7,2781],[79.7,2852],[79.7,2938],[80.9,3019],[83,3116],[83.6,3185],[84.1,3272],[85.2,3366],[86.5,3448],[89.5,3531],[91.6,3604],[92.3,3685],[92.4,3769],[92.4,3852],[92.4,3935],[92.4,4019],[92.4,4102],[92.4,4186],[92.4,4269],[92.4,4352],[92.4,4436],[92.4,4519],[92.4,4603],[92.4,4686],[92.4,4769],[92.4,4853],[92.4,4936],[92.4,5019],[92.4,5103],[92.4,5186],[92.4,5270],[92.4,5353],[92.4,5436],[92.4,5520],[92.4,5603],[92.4,5687],[92.4,5770],[92.4,5853],[92.4,5937],[92.4,6020],[92.4,6104],[92.4,6187],[92.4,6270],[92.4,6354],[92.4,6437],[92.4,6520],[92.4,6604],[92.4,6687],[92.4,6770],[92.4,6854],[92.4,6937],[92.4,7021],[92.4,7104],[92.4,7188],[92.4,7271],[92.4,7354],[92.4,7438],[92.4,7521],[92.4,7605],[92.4,7688],[92.4,7771],[92.4,7855],[92.4,7938],[92.4,8022],[92.4,8105],[92.4,8188],[92.4,8272],[92.4,8355],[92.4,8439],[92.4,8522],[92.4,8605],[92.4,8689],[92.4,8772],[92.4,8856],[92.4,8939],[92.4,9022],[92.4,9106],[92.4,9189]]",1,0,490.2476,492.312,91.95906433,1.1066,"[{""rating"":92.47076023391814,""responseTime"":0.6448999999761895},{""rating"":91.95906432748538,""responseTime"":1.10659999996426}]",space,1.5177,,492.3121,All the time,100,492.3174,,,[],,0,12,12,12,1,audio/Narrative8Situation3.wav,audio/Narrative7Situation3.wav,audio/Narrative6Situation3.wav,audio/Narrative5Situation3.wav,4,8,5,3,,,,,,,,,,,,,,,,,,,,,,,,,,,,,,,,,,,,,,,
,,,,,,6536a9f9ac4d61b9d34f5b3b,2024-05-13_09h09.06.023,group3.1-3.2-social-tom,2023.2.2,Win32,60.60606061,65c5074098b851296ff0b7ed,664236e9bda8db0f1c687a3e,,,,,,,,,,,,,,,,,,,,,,,,,,,,,492.3179,1,audio/Narrative7Situation4.wav,495.3339,,495.3339,507.0588,"[[79.3,5937],[52,6020],[43.2,6103],[37.9,6187],[37.8,6774],[37.6,6867],[37.6,6950],[37.6,7021],[37.6,7104],[37.6,7191],[37.6,7284],[37.6,7355],[37.6,7438],[37.6,7535],[37.6,7605],[37.6,7694],[37.6,7772],[37.6,7855],[37.6,7938],[37.6,8022],[37.6,8105],[37.6,8188],[37.6,8272],[37.6,8355],[36.9,8439],[35.9,8523],[35.6,8605],[35.6,8689],[35.4,8772],[35.4,8855],[35.4,8939],[35.4,9022],[35.4,9106],[35.4,9189],[35.4,9272],[35.4,9356],[35.4,9439],[35.4,9523],[35.4,9606],[35.4,9689],[35.4,9773],[35.4,9856],[35.4,9940],[35.4,10023],[35.4,10106],[35.4,10190],[35.4,10273],[35.4,10357],[35.4,10440],[35.4,10524],[35.4,10607],[35.4,10690],[35.4,10774],[35.4,10857],[35.4,10940],[35.4,11024],[35.4,11107],[35.4,11191],[35.3,11274],[35,11357],[34.4,11441],[34,11524],[33.9,11607],[33.9,11691]]",1,0,507.059,509.1771,35.45321637,1.4656,"[{""rating"":35.453216374269005,""responseTime"":1.4655999999641836}]",space,1.5694,,509.1771,All the time,100,509.18,,,[],,0,13,13,13,1,audio/Narrative8Situation4.wav,audio/Narrative7Situation4.wav,audio/Narrative6Situation4.wav,audio/Narrative5Situation4.wav,3,3,2,1,,,,,,,,,,,,,,,,,,,,,,,,,,,,,,,,,,,,,,,
,,,,,,6536a9f9ac4d61b9d34f5b3b,2024-05-13_09h09.06.023,group3.1-3.2-social-tom,2023.2.2,Win32,60.60606061,65c5074098b851296ff0b7ed,664236e9bda8db0f1c687a3e,,,,,,,,,,,,,,,,,,,,,,,,,,,,,509.1804,1,audio/Narrative7Situation5.wav,514.197,,514.1971,522.6695,"[[35.3,3949],[33.7,4032],[31.8,4115],[30.9,4198],[30.8,4282],[30.8,4352],[30.8,4449],[30.8,4533],[30.8,4615],[30.8,4686],[30.8,4769],[30.8,4852],[30.8,4936],[30.8,5022],[30.8,5115],[30.8,5186],[30.8,5282],[30.8,5366],[30.8,5450],[30.8,5520],[30.8,5606],[30.8,5699],[30.8,5770],[30.8,5853],[30.8,5950],[30.8,6020],[30.8,6107],[30.8,6187],[30.8,6270],[30.8,6354],[30.8,6451],[30.8,6520],[30.8,6605],[30.8,6690],[30.8,6772],[30.8,6854],[30.8,6938],[30.8,7021],[30.8,7104],[30.8,7188],[30.8,7271],[30.8,7354],[30.8,7438],[30.8,7521],[30.8,7604],[30.8,7688],[30.8,7771],[30.8,7855],[30.8,7938],[30.8,8021],[30.8,8105],[30.8,8188],[30.8,8272],[30.8,8355],[30.8,8438]]",1,0,522.6698,523.9055,30.84795322,0.3618,"[{""rating"":30.84795321637427,""responseTime"":0.36180000001195367}]",space,0.6854,,523.9056,Half the time,50,523.911,,,[],,0,14,14,14,1,audio/Narrative8Situation5.wav,audio/Narrative7Situation5.wav,audio/Narrative6Situation5.wav,audio/Narrative5Situation5.wav,2,5,2,5,,,,,,,,,,,,,,,,,,,,,,,,,,,,,,,,,,,,,,,
,,,,,,6536a9f9ac4d61b9d34f5b3b,2024-05-13_09h09.06.023,group3.1-3.2-social-tom,2023.2.2,Win32,60.60606061,65c5074098b851296ff0b7ed,664236e9bda8db0f1c687a3e,,,,,,,,,,,,,,,,,,,,,,,,,,,,,523.9115,1,audio/Narrative7Situation6.wav,526.9225,,526.9226,536.9128,"[[39.2,3835],[53.4,3919],[61.2,4002],[61.5,4085],[59.4,4169],[54.5,4252],[54.5,4335],[54.5,4419],[54.5,4502],[56.5,4586],[61.4,4669],[63.3,4752],[65.4,4836],[67.8,4919],[69.9,5004],[70.5,5087],[70.6,5170],[70.6,5253],[70.6,5336],[70.6,5420],[70.6,5503],[70.6,5586],[70.6,5670],[70.6,5753],[70.6,5837],[70.6,5920],[70.6,6003],[72.1,6086],[73.1,6170],[74.3,6253],[75.9,6337],[76.5,6420],[76.5,6504],[76.5,6587],[76.5,6670],[76.5,6754],[76.5,6837],[76.5,6921],[76.5,7004],[76.5,7087],[76.5,7171],[76.5,7254],[76.5,7338],[76.5,7421],[76.5,7504],[76.5,7588],[76.5,7671],[76.5,7755],[76.5,7838],[76.5,7922],[76.5,8005],[76.5,8088],[76.5,8171],[76.5,8255],[76.5,8338],[76.5,8422],[76.5,8505],[76.5,8588],[76.5,8672],[76.5,8755],[76.5,8838],[76.5,8923],[76.5,9005],[76.5,9089],[76.5,9172],[76.5,9256],[76.5,9339],[76.5,9423],[76.5,9506],[76.5,9589],[76.5,9672],[76.5,9756],[76.5,9839],[76.5,9926]]",1,0,536.913,538.1082,78.3625731,0.5972,"[{""rating"":78.36257309941521,""responseTime"":0.5971999999881064}]",space,0.6362,,538.1083,All the time,100,538.1132,,,[],,0,15,15,15,1,audio/Narrative8Situation6.wav,audio/Narrative7Situation6.wav,audio/Narrative6Situation6.wav,audio/Narrative5Situation6.wav,2,3,2,3,,,,,,,,,,,,,,,,,,,,,,,,,,,,,,,,,,,,,,,
,,,,,,6536a9f9ac4d61b9d34f5b3b,2024-05-13_09h09.06.023,group3.1-3.2-social-tom,2023.2.2,Win32,60.60606061,65c5074098b851296ff0b7ed,664236e9bda8db0f1c687a3e,,,,,,,,,,,,,,,,,,,,,,,,,,,,,538.1138,1,audio/Narrative7Situation7.wav,543.1168,,543.1168,560.2788,"[[79.1,3098],[81.4,3186],[82.7,3268],[84.6,3351],[85.7,3435],[86.5,3518],[87.3,3602],[87.6,3686],[87,3768],[87,3852],[87,3935],[87,4019],[87,4102],[87,4185],[87,4269],[87,4352],[87,4436],[87,4519],[87,4616],[87,4690],[87,4782],[87,4852],[87,4939],[87,5033],[87,5103],[87,5189],[87,5270],[87,5363],[87,5439],[87,5533],[87,5617],[87,5699],[87,5783],[87,5868],[87,5937],[87,6033],[87,6104],[87,6187],[87,6270],[87,6357],[87,6450],[87,6521],[87,6607],[87,6687],[87,6774],[87,6854],[87,6951],[87,7041],[87,7121],[87,7207],[87,7288],[87,7371],[87,7455],[87,7538],[87,7621],[87,7705],[87,7788],[87,7871],[87,7955],[87,8038],[87,8122],[87,8205],[87,8288],[87,8372],[87,8455],[87,8539],[87,8622],[87,8705],[87,8789],[87,8872],[87,8955],[87,9039],[87,9122],[87,9206],[87,9289],[87,9372],[87,9456],[87,9539],[87,9623],[87,9706],[87,9789],[87,9873],[87,9956],[87,10040],[87,10123],[87,10206],[87,10290],[87,10373],[87,10457],[87,10540],[87,10623],[87,10707],[87,10790],[87,10873],[87,10957],[87,11040],[87,11124],[87,11207],[87,11290],[87,11374],[87,11457],[82.3,11541],[66.8,11624],[62.7,11707],[60.7,11791],[58.8,11874],[57.5,11958],[56.9,12041],[56.5,12124],[55.9,12208],[55.2,12291],[55.2,12375],[55.2,12458],[55.2,12541],[55.2,12625],[55.2,12708],[54.2,12792],[52,12875],[51.2,12959],[51.2,13042],[51.2,13125],[51.2,13209],[51.2,13292],[51.2,13375],[51.2,13459],[51.2,13542],[51.2,13625],[51.2,13709],[51.2,13792],[51.2,13875],[51.2,13959],[51.2,14042],[51.2,14126],[51.2,14209],[51.2,14292],[51.2,14376],[51.2,14459],[51.2,14543],[51.2,14626],[51.2,14710],[51.2,14793],[51.2,14876],[51.2,14960],[51.2,15043],[51.2,15127],[51.2,15210],[51.2,15293],[51.2,15376],[51.2,15460],[51.2,15543],[51.2,15627],[51.2,15710],[51.2,15794],[51.2,15877],[51.2,15960],[51.2,16044],[51.2,16127],[51.2,16211],[51.2,16294],[51.2,16377],[51.2,16462],[51.2,16544],[51.2,16628],[51.2,16711],[51.2,16794],[51.2,16878],[51.2,16961],[51.2,17044],[51.2,17128]]",1,0,560.2795,564.7653,49.70760234,3.0304,"[{""rating"":49.70760233918129,""responseTime"":3.0303999999762254}]",space,3.9354,,564.7655,Not at all,0,564.7724,,,[],,0,16,16,16,1,audio/Narrative8Situation7.wav,audio/Narrative7Situation7.wav,audio/Narrative6Situation7.wav,audio/Narrative5Situation7.wav,3,5,5,4,,,,,,,,,,,,,,,,,,,,,,,,,,,,,,,,,,,,,,,
,,,,,,6536a9f9ac4d61b9d34f5b3b,2024-05-13_09h09.06.023,group3.1-3.2-social-tom,2023.2.2,Win32,60.60606061,65c5074098b851296ff0b7ed,664236e9bda8db0f1c687a3e,,,,,,,,,,,,,,,,,,,,,,,,,,,,,564.7729,1,audio/Narrative7Situation8.wav,566.7927,,566.7929,576.8063,[],1,0,576.8064,580.2425,49.70760234,1.7729,"[{""rating"":49.70760233918129,""responseTime"":1.772900000035861}]",space,2.9027,,580.2425,Not at all,0,580.2461,,,[],,0,17,17,17,1,audio/Narrative8Situation8.wav,audio/Narrative7Situation8.wav,audio/Narrative6Situation8.wav,audio/Narrative5Situation8.wav,3,2,5,3,,,,,,,,,,,,,,,,,,,,,,,,,,,,,,,,,,,,,,,
,,,,,,6536a9f9ac4d61b9d34f5b3b,2024-05-13_09h09.06.023,group3.1-3.2-social-tom,2023.2.2,Win32,60.60606061,65c5074098b851296ff0b7ed,664236e9bda8db0f1c687a3e,,,,,,,,,,,,,,,,,,,,,,,,,,,,,580.2467,1,audio/Narrative7Situation9.wav,582.2606,,582.2607,590.8992,[],1,0,590.8994,592.9846,49.70760234,1.6598,"[{""rating"":49.70760233918129,""responseTime"":0.9583999999762227},{""rating"":49.70760233918129,""responseTime"":1.6598000000119555}]",space,1.5523,,592.9849,Half the time,50,612.3809,49.78070175,17.2383,"[{""rating"":49.70760233918129,""responseTime"":8.233300000011923},{""rating"":49.780701754385966,""responseTime"":17.238300000011918}]",space,0,18,18,18,1,audio/Narrative8Situation9.wav,audio/Narrative7Situation9.wav,audio/Narrative6Situation9.wav,audio/Narrative5Situation9.wav,3,2,4,3,,,18.8456,,,,,,,,,,,,,,,,,,,,,,,,,,,,,,,,,,,,
,,,,,,6536a9f9ac4d61b9d34f5b3b,2024-05-13_09h09.06.023,group3.1-3.2-social-tom,2023.2.2,Win32,60.60606061,65c5074098b851296ff0b7ed,664236e9bda8db0f1c687a3e,,,,,,,,,,,,,,,,,,,,,,,,,,,646.3271,648.8894,648.9146,2,audio/Narrative13Situation2.wav,648.9148,,648.9149,678.6602,"[[999,0],[999,74],[999,170],[999,254],[999,324],[999,409],[999,491],[999,587],[999,657],[999,743],[999,837],[999,908],[999,991],[999,1075],[999,1167],[999,1243],[999,1326],[999,1408],[999,1492],[999,1575],[999,1658],[999,1744],[999,1839],[999,1922],[999,1992],[999,2075],[999,2159],[999,2242],[42.7,2326],[46.2,2409],[44.7,2492],[38.1,2576],[37.2,2659],[37.2,2742],[37.2,2826],[37.2,2909],[37.2,2993],[31.9,3076],[29.6,3160],[29.3,3243],[29.3,3326],[29.3,3409],[29.3,3493],[29.3,3576],[29.3,3660],[29.3,3743],[29.3,3826],[29.3,3910],[31,3993],[31.1,4077],[31.1,4161],[31.6,4244],[34.5,4327],[37.3,4411],[37.6,4495],[37.8,4577],[38,4662],[39,4744],[39.7,4827],[39.8,4911],[39.8,4994],[39.8,5077],[39.8,5161],[39.8,5245],[39.8,5328],[39.8,5411],[39.8,5495],[39.8,5578],[39.8,5662],[39.8,5745],[39.8,5828],[39.8,5913],[39.8,5995],[39.8,6078],[39.8,6162],[39.8,6245],[39.8,6329],[39.9,6412],[39.9,6495],[39.9,6578],[39.9,6662],[39.9,6746],[40.1,6830],[40.1,6912],[40.1,6996],[40.1,7079],[40.1,7162],[40.1,7246],[40.1,7329],[40.1,7412],[40.1,7496],[40.1,7579],[40.1,7662],[40.1,7746],[40.1,7829],[40.1,7913],[40.1,7996],[40.1,8079],[40.1,8163],[40.1,8247],[40.1,8330],[40.1,8414],[40.1,8497],[40.1,8580],[40.1,8663],[40.1,8747],[40.1,8830],[40.1,8914],[40.1,8997],[40.2,9081],[40.4,9164],[40.4,9247],[40.4,9331],[40.4,9414],[40.4,9497],[40.4,9581],[40.4,9664],[40.4,9748],[40.4,9831],[40.5,9914],[40.8,9998],[40.8,10081],[40.8,10164],[40.8,10248],[40.8,10332],[40.8,10415],[40.8,10498],[40.8,10582],[40.8,10665],[40.8,10748],[40.8,10832],[40.8,10915],[40.8,10999],[40.8,11082],[40.8,11165],[40.8,11249],[40.8,11332],[40.8,11416],[40.8,11499],[40.8,11582],[40.8,11666],[40.8,11749],[41.1,11833],[41.7,11916],[41.7,11999],[41.7,12083],[41.7,12166],[41.7,12249],[41.7,12333],[41.7,12416],[41.7,12499],[41.7,12583],[41.2,12667],[38.8,12750],[38.1,12833],[37.5,12917],[33.4,13000],[30.7,13084],[30.3,13167],[30.3,13250],[30.3,13334],[30.3,13417],[30.3,13500],[30.3,13584],[30.3,13667],[30.3,13750],[30.3,13834],[30.3,13918],[30.3,14001],[30.3,14084],[30.3,14168],[30.3,14251],[30.3,14334],[30.3,14418],[30.3,14501],[30.3,14584],[30.3,14668],[30.3,14751],[28.4,14835],[24,14918],[21.9,15001],[18,15084],[14.7,15168],[13.5,15252],[13.4,15335],[13.4,15418],[13.4,15502],[13.4,15585],[13.4,15668],[13.4,15751],[13.4,15835],[13.4,15918],[13.4,16002],[13.4,16085],[13.4,16169],[13.4,16252],[13.4,16335],[13.4,16419],[13.4,16502],[13.4,16586],[13.4,16669],[13.4,16752],[13.4,16836],[13.4,16919],[13.4,17003],[13.4,17086],[13.4,17169],[13.4,17253],[13.4,17336],[13.4,17419],[13.4,17503],[13.4,17586],[13.4,17670],[13.4,17753],[13.4,17836],[13.4,17920],[13.4,18003],[13.4,18087],[13.4,18170],[13.4,18253],[13.4,18337],[13.4,18420],[13.4,18503],[13.4,18587],[13.4,18670],[13.4,18754],[13.4,18837],[13.4,18920],[13.4,19004],[13.4,19087],[13.4,19171],[13.4,19254],[13.4,19338],[13.4,19421],[13.4,19504],[13.4,19588],[13.4,19671],[13.4,19754],[13.4,19838],[13.4,19921],[13.4,20004],[13.4,20088],[13.4,20171],[13.4,20254],[13.4,20338],[13.4,20421],[13.4,20505],[13.4,20588],[13.4,20671],[13.4,20791],[13.4,20884],[13.4,20981],[13.4,21055],[13.4,21138],[13.4,21221],[13.4,21305],[13.4,21389],[13.4,21485],[13.4,21557],[13.4,21652],[13.4,21735],[13.4,21806],[13.4,21892],[13.4,21986],[13.4,22069],[13.4,22139],[13.4,22223],[13.4,22310],[13.4,22402],[13.4,22476],[13.4,22556],[13.5,22643],[14.9,22752],[17.2,22836],[18,22907],[18.4,23004],[18.4,23073],[18.4,23160],[18.4,23253],[18.4,23324],[18.4,23407],[18.4,23504],[18.4,23574],[18.4,23661],[18.4,23744],[18.4,23837],[18.4,23909],[18.4,23993],[18.4,24087],[18.4,24158],[18.4,24245],[18.4,24337],[18.4,24410],[18.4,24491],[18.4,24574],[18.4,24658],[18.4,24741],[18.4,24828],[18.4,24921],[18.4,24991],[18.4,25075],[18.4,25171],[18.4,25242],[20.3,25327],[30.1,25411],[37.9,25505],[38.3,25592],[38.3,25676],[38.3,25759],[38.3,25842],[38.3,25925],[38.3,26009],[38.3,26092],[38.3,26175],[44.2,26259],[50,26342],[50.9,26426],[50.7,26509],[50.4,26592],[50.4,26676],[50.4,26759],[50.4,26843],[50.4,26926],[50.4,27009],[50.4,27093],[50.4,27176],[50.4,27260],[50.4,27343],[50.4,27426],[50.4,27510],[50.4,27593],[50.4,27677],[50.4,27760],[50.4,27843],[50.4,27927],[50.4,28010],[50.4,28094],[50.4,28177],[50.4,28260],[50.4,28344],[50.4,28427],[50.4,28510],[50.4,28594],[50.4,28677],[50.4,28761],[50.4,28844],[50.4,28927],[50.4,29011],[50.4,29094],[50.4,29177],[50.4,29261],[50.4,29344],[50.4,29428],[50.4,29511],[50.4,29595],[50.4,29678]]",1,0,678.6606,678.6833,,,[],,,,678.6834,Not at all,0,678.6869,,,[],,0,0,0,0,1,audio/Narrative13Situation2.wav,audio/Narrative13Situation2.wav,audio/Narrative13Situation2.wav,audio/Narrative13Situation2.wav,2,2,2,2,,,,,612.3827,646.3061,space,33.3841,0.0002,,,,,,,,,,,,,,,,,,,,,,,,,,,,,,
,,,,,,6536a9f9ac4d61b9d34f5b3b,2024-05-13_09h09.06.023,group3.1-3.2-social-tom,2023.2.2,Win32,60.60606061,65c5074098b851296ff0b7ed,664236e9bda8db0f1c687a3e,,,,,,,,,,,,,,,,,,,,,,,,,,,,,678.6874,2,audio/Narrative6Situation1.wav,680.6948,,680.6949,707.2763,"[[49.9,2013],[49.3,2090],[48.5,2167],[47.2,2251],[45.9,2334],[44.3,2417],[43.1,2501],[42.4,2584],[42,2668],[41.7,2751],[41.2,2835],[40.6,2918],[39,3001],[37.5,3084],[36.6,3168],[35.5,3252],[35.1,3335],[35.1,3418],[35.1,3502],[35.1,3585],[35.1,3668],[35.1,3752],[40.1,3836],[43.3,3918],[46.1,4002],[49.6,4085],[51.8,4169],[53.9,4252],[54.7,4336],[54.1,4419],[53.9,4502],[53.9,4586],[53.9,4669],[53.9,4753],[53.9,4836],[53.9,4919],[53.9,5003],[53.9,5087],[53.9,5169],[53.9,5253],[53.9,5336],[53.9,5420],[53.9,5503],[53.9,5586],[53.9,5670],[53.9,5753],[53.9,5837],[53.9,5920],[53.9,6003],[53.9,6087],[53.9,6170],[53.9,6253],[53.9,6337],[53.9,6420],[53.9,6504],[53.9,6587],[53.9,6670],[53.9,6754],[53.9,6837],[53.9,6920],[53.9,7004],[53.9,7087],[53.9,7171],[51.1,7255],[50.8,7338],[50.8,7421],[50.8,7504],[50.8,7588],[50.8,7671],[50.8,7754],[50.5,7838],[50.5,7921],[50.5,8005],[50.5,8088],[50.5,8172],[50.5,8255],[46.6,8338],[43.8,8425],[43.2,8505],[42.8,8588],[42.8,8672],[42.8,8755],[42.8,8839],[42.8,8922],[42.8,9005],[42.8,9089],[42.8,9172],[42.8,9255],[42.8,9339],[42.8,9422],[42.8,9506],[42.8,9589],[42.8,9672],[42.8,9756],[42.8,9839],[42.8,9923],[42.8,10006],[42.8,10089],[42.8,10173],[42.8,10257],[42.8,10339],[42.8,10423],[42.8,10506],[42.8,10590],[42.8,10673],[42.8,10756],[42.8,10840],[42.8,10923],[42.8,11007],[42.8,11090],[42.8,11174],[42.8,11257],[42.8,11341],[42.8,11424],[42.8,11507],[50.5,11590],[58.6,11674],[59.5,11757],[59.5,11841],[59.5,11924],[59.5,12007],[59.5,12091],[59,12175],[32.5,13008],[31.9,13091],[31.9,13175],[31.9,13258],[31.9,13342],[31.9,13425],[31.9,13509],[31.9,13592],[31.9,13675],[31.9,13759],[31.9,13842],[31.9,13925],[31.9,14009],[31.9,14092],[31.9,14176],[31.9,14259],[31.9,14342],[31.9,14426],[31.9,14509],[31.9,14593],[31.9,14676],[31.9,14759],[31.9,14843],[31.9,14926],[31.9,15009],[31.9,15093],[31.9,15176],[31.9,15260],[31.9,15343],[31.9,15427],[31.9,15510],[31.9,15593],[31.9,15677],[31.9,15760],[31.9,15843],[31.9,15927],[31.9,16010],[31.9,16093],[31.9,16177],[31.9,16260],[31.9,16344],[31.9,16427],[31.9,16510],[31.9,16594],[31.9,16677],[31.9,16761],[31.9,16844],[31.9,16928],[31.9,17011],[31.9,17094],[31.9,17178],[31.9,17261],[31.9,17344],[31.9,17428],[31.9,17511],[31.9,17595],[31.9,17678],[31.9,17761],[31.9,17845],[31.9,17928],[31.9,18012],[31.9,18095],[31.9,18178],[31.9,18262],[31.9,18345],[31.9,18428],[31.9,18512],[31.9,18595],[31.9,18679],[31.9,18762],[31.9,18846],[31.9,18929],[31.9,19012],[31.9,19096],[31.9,19179],[31.9,19262],[31.9,19346],[31.9,19429],[31.9,19513],[31.9,19596],[31.9,19679],[31.9,19763],[31.9,19846],[31.9,19930],[31.9,20013],[31.9,20096],[31.9,20180],[31.9,20263],[31.9,20347],[31.9,20430],[31.9,20513],[31.9,20597],[31.9,20680],[31.9,20764],[31.9,20847],[31.9,20930],[31.9,21014],[31.9,21097],[31.9,21180],[31.9,21264],[37.4,21367],[48.8,21461],[64.1,22378],[68.8,22461],[68.9,22545],[68.3,22629],[65.7,22700]]",1,0,707.2765,711.7329,63.66959064,3.7002,"[{""rating"":63.66959064327485,""responseTime"":3.700199999988058}]",space,3.9213,,711.733,Half the time,50,711.739,,,[],,0,1,1,1,1,audio/Narrative7Situation1.wav,audio/Narrative8Situation1.wav,audio/Narrative5Situation1.wav,audio/Narrative6Situation1.wav,2,5,5,2,,,,,,,,,,,,,,,,,,,,,,,,,,,,,,,,,,,,,,,
,,,,,,6536a9f9ac4d61b9d34f5b3b,2024-05-13_09h09.06.023,group3.1-3.2-social-tom,2023.2.2,Win32,60.60606061,65c5074098b851296ff0b7ed,664236e9bda8db0f1c687a3e,,,,,,,,,,,,,,,,,,,,,,,,,,,,,711.7396,2,audio/Narrative6Situation2.wav,714.7515,,714.7517,743.2548,"[[53.5,2530],[33.9,2603],[15.6,3032],[15.4,3101],[15.4,3198],[15.4,3269],[15.4,3354],[16.2,3447],[17,3522],[17,3605],[17,3699],[17,3771],[17,3855],[17,3936],[17,4022],[23,4114],[28,4198],[35.2,4273],[50,4366],[58.3,4438],[61.7,4533],[63,4616],[63.5,4699],[63.5,4782],[63.2,4866],[62,4948],[60.9,5033],[60.5,5104],[60.5,5189],[60.5,5272],[59.9,5366],[59.9,5440],[59.7,5533],[59.6,5608],[59.4,5687],[58.6,5784],[56.9,5867],[55.8,5950],[55.5,6020],[55.5,6106],[55.5,6200],[55.5,6270],[55.5,6353],[55.5,6437],[55.5,6520],[55.5,6604],[55.5,6687],[55.5,6770],[55.5,6854],[55.5,6937],[55.5,7021],[55.5,7104],[55.5,7187],[55.5,7271],[55.5,7354],[55.5,7437],[55.5,7521],[55.5,7605],[55.5,7688],[55.5,7771],[55.5,7854],[55.5,7938],[55.5,8021],[55.5,8105],[55.5,8188],[55.5,8272],[55.5,8355],[55.5,8438],[55.5,8522],[55.5,8605],[55.5,8689],[55.5,8772],[55.5,8855],[55.5,8939],[55.5,9022],[55.5,9105],[55.5,9189],[55.5,9272],[55.5,9356],[55.5,9439],[55.5,9522],[55.5,9606],[55.5,9690],[55.5,9772],[55.5,9856],[55.5,9939],[55.5,10023],[55.5,10106],[55.5,10190],[55.5,10273],[55.5,10356],[55.5,10440],[55.5,10523],[55.5,10606],[55.5,10690],[55.5,10773],[55.5,10856],[55.5,10940],[55.5,11023],[55.5,11107],[55.5,11190],[55.5,11274],[55.5,11357],[55.5,11440],[55.5,11524],[55.5,11607],[55.5,11690],[55.5,11774],[55.5,11857],[55.5,11941],[55.5,12024],[55.5,12108],[55.5,12191],[55.5,12274],[50.7,12377],[46.9,12457],[38.7,12542],[31.4,12628],[27.4,12712],[26.5,12805],[26.5,12888],[26.5,12959],[26.5,13055],[26.5,13125],[26.5,13208],[26.5,13292],[26.5,13389],[26.5,13472],[26.5,13542],[26.5,13638],[26.5,13722],[26.5,13795],[26.5,13878],[26.5,13959],[26.5,14042],[26.5,14125],[26.5,14221],[26.5,14306],[26.5,14376],[26.5,14472],[26.5,14556],[26.5,14626],[26.5,14722],[26.5,14793],[26.5,14876],[26.5,14960],[26.5,15048],[26.5,15139],[26.5,15211],[26.5,15297],[26.5,15390],[26.5,15463],[26.5,15543],[26.5,15626],[26.5,15710],[26.5,15793],[26.5,15880],[26.5,15973],[26.5,16043],[26.5,16130],[26.5,16213],[26.5,16294],[26.5,16377],[26.5,16461],[26.5,16557],[26.5,16627],[26.5,16715],[26.5,16807],[26.5,16877],[26.5,16964],[26.5,17057],[26.5,17128],[26.5,17214],[26.5,17308],[26.5,17378],[26.5,17461],[26.5,17557],[26.5,17645],[26.5,17724],[26.5,17808],[26.5,17892],[26.5,17975],[26.5,18059],[26.5,18141],[26.5,18224],[26.5,18308],[26.5,18391],[26.5,18475],[26.5,18558],[26.5,18642],[26.5,18725],[26.5,18808],[26.5,18892],[26.5,18975],[26.5,19058],[26.5,19142],[26.5,19225],[26.5,19308],[26.5,19393],[26.5,19476],[26.5,19558],[26.5,19642],[26.5,19726],[26.5,19810],[26.5,19892],[26.5,19976],[26.5,20059],[26.5,20142],[26.5,20226],[26.5,20310],[26.5,20395],[26.5,20480],[26.5,20567],[26.5,20660],[26.5,20730],[26.5,20813],[26.5,20900],[26.5,20994],[26.5,21067],[26.5,21150],[26.5,21243],[26.5,21314],[26.5,21397],[26.5,21484],[26.5,21577],[26.5,21650],[26.5,21735],[26.5,21829],[26.5,21911],[26.5,21994],[26.5,22078],[26.5,22148],[26.5,22244],[26.5,22314],[26.5,22398],[26.5,22481],[26.5,22568],[26.5,22662],[26.5,22744],[26.5,22818],[26.5,22912],[26.5,22982],[26.5,23079],[26.5,23162],[26.5,23232],[26.5,23315],[26.5,23402],[26.5,23495],[26.5,23565],[26.5,23652],[26.5,23745],[26.5,23830],[26.5,23899],[26.5,23996],[26.5,24066],[26.5,24149],[26.5,24236],[26.5,24329],[26.5,24412],[26.5,24495],[26.5,24580],[26.5,24649],[26.5,24733],[26.5,24819],[26.5,24900],[26.5,24983],[26.5,25069],[26.5,25162],[26.5,25234],[26.5,25320],[26.5,25400],[26.5,25483],[26.5,25570],[26.5,25650],[26.5,25733],[26.5,25817],[26.5,25913],[26.5,25997],[26.5,26070],[26.5,26154],[26.5,26247],[26.5,26330],[26.5,26400],[26.5,26484],[26.5,26567],[26.5,26651],[26.5,26737],[26.5,26831],[26.5,26901],[26.5,26987],[26.5,27071],[26.5,27151],[26.5,27234],[26.5,27318],[26.5,27401],[26.5,27489],[26.5,27571],[26.5,27668],[26.5,27735],[26.5,27818],[26.5,27902],[26.5,27985],[26.5,28068],[26.5,28152],[26.5,28235],[26.5,28319],[26.5,28402],[26.5,28485]]",1,0,743.2552,760.7166,33.11403509,1.9763,"[{""rating"":33.114035087719294,""responseTime"":1.9763000000119746}]",space,16.9137,,760.7168,Half the time,50,760.74,,,[],,0,2,2,2,1,audio/Narrative7Situation2.wav,audio/Narrative8Situation2.wav,audio/Narrative5Situation2.wav,audio/Narrative6Situation2.wav,3,3,3,3,,,,,,,,,,,,,,,,,,,,,,,,,,,,,,,,,,,,,,,
,,,,,,6536a9f9ac4d61b9d34f5b3b,2024-05-13_09h09.06.023,group3.1-3.2-social-tom,2023.2.2,Win32,60.60606061,65c5074098b851296ff0b7ed,664236e9bda8db0f1c687a3e,,,,,,,,,,,,,,,,,,,,,,,,,,,,,760.7404,2,audio/Narrative6Situation3.wav,765.7531,,765.7531,778.3624,"[[64.8,10550],[66.7,10658],[68.6,10759],[69.6,10842],[70,10925],[70,11007],[70,11091],[70,11174],[70,11271],[70,11354],[70,11424],[70,11511],[70,11604],[70,11674],[70,11762],[70,11854],[70,11924],[70,12009],[70,12095],[70,12188],[70,12259],[70,12341],[70,12438],[70,12509],[70,12596]]",1,0,778.3626,782.0143,65.78947368,2.4863,"[{""rating"":65.78947368421053,""responseTime"":2.4863000000119655}]",space,3.1026,,782.0143,Half the time,50,782.0172,,,[],,0,3,3,3,1,audio/Narrative7Situation3.wav,audio/Narrative8Situation3.wav,audio/Narrative5Situation3.wav,audio/Narrative6Situation3.wav,8,4,3,5,,,,,,,,,,,,,,,,,,,,,,,,,,,,,,,,,,,,,,,
,,,,,,6536a9f9ac4d61b9d34f5b3b,2024-05-13_09h09.06.023,group3.1-3.2-social-tom,2023.2.2,Win32,60.60606061,65c5074098b851296ff0b7ed,664236e9bda8db0f1c687a3e,,,,,,,,,,,,,,,,,,,,,,,,,,,,,782.0176,2,audio/Narrative6Situation4.wav,784.0457,,784.0457,796.6707,"[[31.8,10193],[34.3,10276],[34,10360],[33.6,10443],[33.3,10527],[33,10610],[32.5,10694],[32.4,10777],[32.4,10860],[32.4,10957],[32.4,11027],[32.4,11124],[32.4,11194],[32.4,11291],[32.4,11364],[32.4,11457],[32.4,11527],[32.4,11614],[32.4,11707],[32.4,11781],[32.4,11877],[32.4,11961],[32.4,12044],[32.4,12128],[32.4,12211],[32.4,12295],[32.4,12378],[32.4,12476],[32.4,12558]]",1,0,796.6708,799.2066,32.38304094,1.8007,"[{""rating"":32.38304093567251,""responseTime"":1.800700000047641}]",space,2.0116,,799.2067,All the time,100,813.2008,99.41520468,12.4889,"[{""rating"":99.41520467836258,""responseTime"":12.488900000035756}]",space,0,4,4,4,1,audio/Narrative7Situation4.wav,audio/Narrative8Situation4.wav,audio/Narrative5Situation4.wav,audio/Narrative6Situation4.wav,3,3,1,2,,,13.4429,,,,,,,,,,,,,,,,,,,,,,,,,,,,,,,,,,,,
,,,,,,6536a9f9ac4d61b9d34f5b3b,2024-05-13_09h09.06.023,group3.1-3.2-social-tom,2023.2.2,Win32,60.60606061,65c5074098b851296ff0b7ed,664236e9bda8db0f1c687a3e,,,,,,,,,,,,,,,,,,,,,,,,,,,,,813.2013,2,audio/Narrative6Situation5.wav,815.2038,,815.2038,823.1762,"[[100,2505],[91.8,2584],[69.6,3336],[68.8,3419],[68.6,3502],[68.6,3585],[68.6,3669],[68.6,3752],[67.6,3835],[67.3,3919],[67.3,4002],[67.3,4086],[67.3,4169],[67.3,4252],[67.3,4336],[67.3,4419],[67.3,4502],[67.3,4586],[67.3,4669],[67.3,4753],[67.3,4836],[67.3,4919],[67.3,5003],[67.3,5086],[67.3,5170],[67.3,5253],[67.3,5336],[67.3,5420],[67.3,5503],[67.3,5587],[67.3,5670],[67.3,5753],[67.3,5837],[67.3,5920],[67.3,6003],[67.3,6087],[67.3,6170],[67.3,6254],[67.3,6337],[67.3,6420],[67.3,6504],[67.3,6587],[67.3,6671],[67.3,6754],[67.3,6838],[67.3,6921],[67.3,7004],[67.3,7088],[67.3,7171],[67.3,7254],[67.3,7338],[67.3,7421],[67.3,7504],[67.3,7588],[67.3,7671],[67.3,7755],[67.3,7838],[67.3,7921]]",1,0,823.1765,825.1569,82.38304094,1.6642,"[{""rating"":82.38304093567251,""responseTime"":0.8753000000118618},{""rating"":82.38304093567251,""responseTime"":1.664199999988}]",space,1.4204,,825.157,Half the time,50,825.1627,,,[],,0,5,5,5,1,audio/Narrative7Situation5.wav,audio/Narrative8Situation5.wav,audio/Narrative5Situation5.wav,audio/Narrative6Situation5.wav,5,2,5,2,,,,,,,,,,,,,,,,,,,,,,,,,,,,,,,,,,,,,,,
,,,,,,6536a9f9ac4d61b9d34f5b3b,2024-05-13_09h09.06.023,group3.1-3.2-social-tom,2023.2.2,Win32,60.60606061,65c5074098b851296ff0b7ed,664236e9bda8db0f1c687a3e,,,,,,,,,,,,,,,,,,,,,,,,,,,,,825.1632,2,audio/Narrative6Situation6.wav,827.1787,,827.1788,838.253,"[[82.7,1000],[75.1,1180],[74.8,1263],[75.6,1347],[75.8,1430],[76,1514],[76,1585],[72.4,1681],[68.8,1763],[68.5,1837],[68.5,1930],[68.5,2013],[68.8,2098],[71,2180],[71.9,2265],[71.9,2334],[71.9,2424],[71.9,2501],[71.9,2585],[71.9,2668],[71.6,2751],[71.6,2835],[71.6,2918],[71.6,3001],[67.4,3085],[60,3168],[53.1,3251],[52.8,3335],[52.8,3418],[52.8,3502],[51.6,3586],[40.8,3669],[39.3,3752],[38.5,3835],[38.2,3919],[38.1,4002],[38.1,4086],[38.1,4169],[38.1,4252],[38.1,4336],[38.1,4419],[38.1,4502],[38.1,4586],[38.1,4669],[38.1,4753],[38.1,4836],[38.1,4920],[38.1,5003],[38.1,5086],[38.1,5170],[38.1,5253],[38.1,5336],[38.1,5420],[38.1,5503],[38.1,5587],[38.1,5670],[38.1,5753],[38.1,5837],[38.1,5920],[38.1,6004],[38.1,6087],[38.1,6170],[38.1,6254],[38.1,6337],[38.1,6421],[38.1,6504],[38.1,6587],[38.1,6671],[38.1,6754],[38.1,6837],[38.1,6922],[37.2,7004],[34.9,7087],[33.8,7171],[33.8,7254],[33.8,7338],[33.8,7421],[33.8,7504],[33,7588],[28.4,7671],[27.6,7755],[27.5,7838],[27.5,7921],[27.5,8005],[27.5,8088],[27.5,8172],[27.5,8255],[27.5,8338],[27.5,8422],[27.5,8505],[27.5,8589],[27.5,8672],[27.5,8755],[27.5,8839],[27.5,8922],[27.5,9005],[27.5,9089],[27.5,9172],[27.5,9256],[27.5,9339],[27.5,9422],[27.5,9506],[27.5,9589],[27.5,9673],[27.5,9756],[27.5,9839],[27.5,9923],[27.5,10006],[27.5,10090],[27.5,10173],[27.5,10256],[27.5,10340],[27.5,10423],[27.5,10507],[27.5,10590],[27.5,10673],[27.5,10757],[27.5,10840],[27.5,10924],[27.5,11007]]",1,0,838.2532,841.6358,27.19298246,1.778,"[{""rating"":27.192982456140353,""responseTime"":1.7779999999999063}]",space,2.8357,,841.6358,All the time,100,841.6419,,,[],,0,6,6,6,1,audio/Narrative7Situation6.wav,audio/Narrative8Situation6.wav,audio/Narrative5Situation6.wav,audio/Narrative6Situation6.wav,3,2,3,2,,,,,,,,,,,,,,,,,,,,,,,,,,,,,,,,,,,,,,,
,,,,,,6536a9f9ac4d61b9d34f5b3b,2024-05-13_09h09.06.023,group3.1-3.2-social-tom,2023.2.2,Win32,60.60606061,65c5074098b851296ff0b7ed,664236e9bda8db0f1c687a3e,,,,,,,,,,,,,,,,,,,,,,,,,,,,,841.6423,2,audio/Narrative6Situation7.wav,846.6426,,846.6428,871.4793,"[[30.7,4469],[32.7,4551],[34.8,4619],[35,4703],[33.3,4786],[32.1,4869],[31.9,4952],[31.9,5035],[31.9,5119],[31.9,5202],[31.9,5285],[31.9,5369],[32,5452],[32.2,5536],[32.2,5619],[32.3,5703],[32.3,5786],[32.3,5870],[32.3,5953],[32.3,6036],[32.3,6120],[32.3,6204],[32.3,6286],[32.5,6370],[32.5,6453],[32.5,6537],[32.5,6620],[32.1,6704],[31.8,6787],[31.5,6871],[31.1,6954],[27.7,7037],[11.5,7788],[11.6,7871],[11.5,7955],[10.3,8038],[10,8121],[10.4,8204],[11.6,8288],[12.8,8371],[25,8454],[35.2,8538],[38.5,8622],[42.8,8704],[54.5,8788],[64.5,8872],[68.6,8955],[68.9,9039],[69,9122],[69,9205],[69,9288],[69,9372],[69,9455],[69,9538],[69,9622],[69,9705],[69.2,9789],[71.2,9872],[71.3,9955],[71.3,10039],[71.3,10122],[71.3,10206],[71.3,10289],[71.3,10372],[71.1,10456],[71.1,10539],[71.1,10623],[71.1,10706],[71.1,10789],[71.1,10873],[70.8,10957],[66.1,11039],[63.8,11123],[63.2,11206],[63.2,11290],[63.2,11373],[63.2,11456],[63.2,11540],[63.3,11624],[67.3,11707],[70.5,11790],[71.3,11874],[71.3,11957],[71.3,12040],[71.9,12124],[72.1,12207],[72.1,12290],[72.1,12374],[72.1,12457],[72.1,12541],[72.1,12624],[72.1,12707],[74.4,12791],[75.4,12875],[75.4,12957],[75.4,13041],[75.4,13124],[75.4,13208],[75.4,13291],[74.6,13375],[74.3,13458],[74.3,13541],[74.3,13625],[74.3,13709],[74.3,13791],[74.3,13875],[74.3,13958],[74.3,14042],[74.3,14125],[74.3,14208],[74.3,14292],[74.3,14375],[74.3,14458],[74.3,14542],[74.3,14625],[74.3,14708],[74.3,14792],[74.3,14876],[74.3,14959],[74.3,15042],[74.3,15126],[74.3,15209],[74.3,15293],[74.3,15376],[74.3,15459],[74.3,15543],[74.3,15626],[74.3,15710],[73,15793],[72.3,15877],[72,15960],[71,16043],[67.9,16129],[64.9,16210],[63.8,16293],[63.8,16377],[63.8,16460],[63.8,16543],[63.8,16627],[63.8,16710],[63.8,16794],[63.9,16877],[63.9,16960],[63.9,17044],[63.9,17127],[63.9,17210],[63.9,17294],[65.5,17378],[69.4,17461],[72.1,17544],[74.1,17627],[78.1,17711],[89,18211],[89,18294],[89,18378],[89,18461],[89,18545],[89,18628],[89,18712],[89,18795],[89,18878],[89,18961],[89,19045],[89,19129],[89,19212],[89,19295],[89,19379],[89,19462],[89,19546],[89,19629],[89,19712],[89,19796],[89,19879],[89,19962],[89,20046],[89,20129],[89,20213],[89,20296],[89,20379],[89,20463],[89,20546],[89,20629],[89,20713],[89,20796],[89,20880],[89,20963],[89,21046],[89,21130],[89,21213],[89,21297],[89,21380],[89,21463],[89,21547],[89,21630],[89,21714],[89,21797],[89,21880],[89,21964],[89,22048],[88.5,22147],[88,22232],[88,22314],[88,22397],[88,22481],[88.1,22564],[88.1,22648],[88.1,22731],[88.1,22814],[88.1,22898],[88.1,22981],[88.1,23078],[88.1,23148],[88.1,23231],[88.1,23328],[88.1,23401],[88.1,23482],[88.1,23565],[88.1,23651],[88.1,23745],[88.1,23815],[88.1,23902],[88.1,23995],[88.1,24066],[88.1,24161],[88.1,24245],[88.1,24315],[88.1,24399],[88.1,24486],[88.1,24565],[88.1,24649],[88.1,24736],[88.1,24829]]",1,0,871.4795,875.3918,88.08479532,1.143,"[{""rating"":88.08479532163742,""responseTime"":0.6756999999880691},{""rating"":88.08479532163742,""responseTime"":1.143000000000029}]",space,3.3679,,875.3919,Not at all,0,875.3976,,,[],,0,7,7,7,1,audio/Narrative7Situation7.wav,audio/Narrative8Situation7.wav,audio/Narrative5Situation7.wav,audio/Narrative6Situation7.wav,5,3,4,5,,,,,,,,,,,,,,,,,,,,,,,,,,,,,,,,,,,,,,,
,,,,,,6536a9f9ac4d61b9d34f5b3b,2024-05-13_09h09.06.023,group3.1-3.2-social-tom,2023.2.2,Win32,60.60606061,65c5074098b851296ff0b7ed,664236e9bda8db0f1c687a3e,,,,,,,,,,,,,,,,,,,,,,,,,,,,,875.398,2,audio/Narrative6Situation8.wav,880.4024,,880.4025,887.2725,"[[95.8,6869]]",1,0,887.2727,889.185,93.71345029,1.1764,"[{""rating"":93.71345029239765,""responseTime"":1.1763999999761836}]",space,1.3571,,889.1851,Half the time,50,889.1904,,,[],,0,8,8,8,1,audio/Narrative7Situation8.wav,audio/Narrative8Situation8.wav,audio/Narrative5Situation8.wav,audio/Narrative6Situation8.wav,2,3,3,5,,,,,,,,,,,,,,,,,,,,,,,,,,,,,,,,,,,,,,,
,,,,,,6536a9f9ac4d61b9d34f5b3b,2024-05-13_09h09.06.023,group3.1-3.2-social-tom,2023.2.2,Win32,60.60606061,65c5074098b851296ff0b7ed,664236e9bda8db0f1c687a3e,,,,,,,,,,,,,,,,,,,,,,,,,,,,,889.1908,2,audio/Narrative6Situation9.wav,893.2073,,893.2074,903.148,"[[88.1,3865],[82.7,4132],[76.8,4456],[76.8,4540],[76.8,4623],[69.7,4704],[66.4,4787],[66.1,4870],[66.7,4953],[66.9,5037],[71.3,5119],[84.9,5203],[96.2,5286],[99,5370],[98.9,5453],[96.3,5536],[92.7,5620],[90.1,5703],[89.4,5787],[89.4,5870],[89.4,5954],[89.4,6037],[89.4,6120],[89.4,6204],[89.4,6287],[89.4,6371],[89.4,6454],[89.4,6537],[89.4,6621],[89.3,6704],[89.3,6787],[89.3,6871],[89.3,6954],[89.3,7038],[89.6,7121],[95,7204],[96,7287],[89.5,7371],[84.6,7455],[82.2,7538],[81.1,7621],[80.8,7705],[80.8,7788],[80.3,7871],[79.3,7955],[79.1,8038],[80.3,8122],[88.2,8206],[96.9,8288],[98,8372],[98,8455],[98,8539],[98,8622],[98,8705],[98,8789],[98,8872],[98,8956],[98,9039],[98,9122],[98,9206],[98,9289],[98,9373],[98,9456],[98,9539],[98,9623],[98,9706],[98,9789],[98,9873]]",1,0,903.1482,905.3159,97.95321637,0.8159,"[{""rating"":97.953216374269,""responseTime"":0.8158999999760681}]",space,1.6181,,905.3163,Half the time,50,905.3189,,,[],,0,9,9,9,1,audio/Narrative7Situation9.wav,audio/Narrative8Situation9.wav,audio/Narrative5Situation9.wav,audio/Narrative6Situation9.wav,2,3,3,4,,,,,,,,,,,,,,,,,,,,,,,,,,,,,,,,,,,,,,,
,,,,,,6536a9f9ac4d61b9d34f5b3b,2024-05-13_09h09.06.023,group3.1-3.2-social-tom,2023.2.2,Win32,60.60606061,65c5074098b851296ff0b7ed,664236e9bda8db0f1c687a3e,,,,,,,,,,,,,,,,,,,,,,,,,,,,,905.3194,2,audio/Narrative5Situation1.wav,910.3358,,910.3359,923.612,"[[48.5,3799],[26.8,5037],[29.8,5134],[29.9,5216],[29.9,5299],[29.9,5384],[29.9,5455],[29.9,5540],[29.9,5624],[29.9,5703],[29.9,5789],[29.9,5884],[29.9,5954],[29.9,6037],[29.9,6123],[29.9,6216],[29.9,6288],[29.9,6373],[29.9,6454],[29.9,6537],[29.9,6620],[29.9,6707],[29.9,6801],[29.9,6871],[29.9,6957],[29.9,7051],[29.9,7121],[29.9,7205],[29.9,7289],[29.9,7371],[34.4,7455],[75,7872],[74.9,7955],[65,8038],[59,8121],[58.6,8205],[58.6,8288],[60.4,8372],[64,8455],[66.1,8538],[68.4,8622],[69.4,8705],[70.7,8789],[70.8,8872],[70.8,8956],[70.8,9039],[70.8,9122],[70.8,9206],[70.8,9289],[70.8,9373],[70.8,9456],[70.8,9539],[70.8,9623],[70.8,9706],[70.8,9789],[70.8,9873],[70.8,9956],[70.8,10040],[70.8,10123],[70.8,10207],[70.8,10290],[70.8,10373],[70.8,10456],[70.8,10540],[70.8,10623],[70.8,10707],[70.8,10790],[43.9,11375],[43.6,11457],[44.4,11541],[44.4,11624],[44.4,11707],[44.4,11791],[44.4,11874],[44.4,11958],[44.4,12041],[44.4,12125],[44.4,12208],[44.4,12291],[44.4,12375],[44.4,12458],[44.4,12541],[44.4,12625],[44.4,12708],[44.4,12792],[44.4,12875],[44.4,12958],[44.4,13042],[44.4,13125],[44.4,13208]]",1,0,923.6123,926.3599,49.85380117,1.6633,"[{""rating"":49.853801169590646,""responseTime"":1.6633000000118727}]",space,2.2004,,926.36,All the time,100,926.3649,,,[],,0,10,10,10,1,audio/Narrative8Situation1.wav,audio/Narrative7Situation1.wav,audio/Narrative6Situation1.wav,audio/Narrative5Situation1.wav,5,2,2,5,,,,,,,,,,,,,,,,,,,,,,,,,,,,,,,,,,,,,,,
,,,,,,6536a9f9ac4d61b9d34f5b3b,2024-05-13_09h09.06.023,group3.1-3.2-social-tom,2023.2.2,Win32,60.60606061,65c5074098b851296ff0b7ed,664236e9bda8db0f1c687a3e,,,,,,,,,,,,,,,,,,,,,,,,,,,,,926.3653,2,audio/Narrative5Situation2.wav,929.379,,929.379,958.8462,"[[20,4022],[18.9,4105],[18.8,4189],[18.8,4272],[18.8,4356],[18.8,4439],[18.8,4522],[18.8,4606],[18.8,4689],[18.8,4773],[18.8,4856],[18.8,4939],[18.8,5023],[18.8,5106],[18.8,5192],[18.8,5286],[18.8,5357],[18.8,5443],[18.8,5523],[18.8,5621],[18.8,5690],[18.8,5777],[18.8,5870],[18.8,5942],[18.8,6026],[18.8,6120],[18.8,6190],[18.8,6274],[18.8,6357],[18.8,6454],[18.8,6524],[18.8,6610],[18.8,6704],[18.8,6775],[18.8,6857],[18.8,6942],[18.8,7028],[18.8,7121],[18.8,7192],[18.8,7278],[18.8,7358],[18.8,7444],[18.8,7538],[18.8,7621],[18.8,7694],[18.8,7787],[18.8,7858],[20.5,7971],[21.7,8046],[22.1,8134],[22.1,8211],[22,8296],[21.3,8390],[20.4,8474],[20,8542],[20,8625],[20,8708],[20,8792],[20,8875],[20,8959],[20,9042],[20,9126],[20,9209],[20,9292],[20,9376],[20,9459],[20,9543],[20,9626],[20,9709],[20,9793],[20,9876],[20,9960],[20,10043],[20,10126],[20,10210],[20,10293],[20,10376],[20,10460],[20,10543],[20,10627],[20,10710],[20,10793],[20,10877],[20,10960],[20,11044],[20,11127],[20,11211],[20,11294],[20,11377],[20,11461],[20,11544],[20,11627],[20,11711],[20,11794],[20,11878],[20,11961],[20,12044],[20,12128],[20,12211],[20,12294],[20,12378],[20,12461],[20,12545],[20,12628],[20,12712],[20,12795],[20,12878],[20,12961],[20,13045],[20,13128],[20,13212],[20,13295],[20,13379],[20,13462],[20,13545],[23.2,13646],[24.6,13728],[25.1,13813],[25.1,13895],[25.1,13979],[25.1,14062],[25.1,14146],[25.1,14229],[25.1,14313],[70.1,14827],[69.2,14910],[69.1,14982],[68.9,15076],[68.9,15150],[68.3,15243],[68.1,15326],[69.4,15409],[70.2,15493],[70.7,15578],[70.7,15660],[70.7,15731],[70.7,15817],[70.7,15910],[70.7,15981],[70.7,16068],[70.7,16158],[70.7,16231],[70.7,16314],[70.7,16397],[70.7,16481],[70.7,16568],[70.7,16651],[70.7,16745],[70.7,16815],[70.7,16910],[70.7,16981],[70.7,17068],[70.7,17152],[70.7,17232],[75.7,17327],[79.8,17410],[82.7,17494],[84.3,17579],[86.2,17661],[89.2,17744],[90.6,17829],[90.6,17899],[90.6,17982],[90.6,18065],[90.6,18152],[90.3,18251],[90.3,18332],[90.3,18415],[90.3,18499],[90.3,18582],[90.3,18665],[90.3,18749],[90.3,18832],[90.3,18915],[90.3,18999],[90.3,19082],[90.3,19166],[90.3,19250],[90.3,19333],[90.3,19429],[90.3,19513],[90.3,19583],[88.1,19679],[87.5,19752],[84,19846],[78.3,19930],[74,20012],[72,20098],[71.3,20180],[70.1,20264],[70.1,20333],[70.1,20420],[70.1,20504],[70.1,20583],[70.1,20667],[67,20764],[66.6,20835],[66.6,20930],[66.6,21000],[66.6,21087],[66.4,21181],[65.1,21280],[64.8,21352],[64.8,21438],[64.8,21530],[64.8,21601],[64.6,21698],[64.6,21781],[65.2,21853],[65.8,21939],[66.2,22028],[66.5,22106],[66.7,22197],[66.7,22268],[66.8,22351],[66.8,22435],[66.8,22521],[66.8,22615],[51.8,22698],[43.9,22781],[43.6,22865],[43.6,22937],[43.6,23022],[43.6,23105],[35.9,23201],[33.6,23281],[33.6,23353],[33.6,23438],[33.6,23519],[33.6,23605],[33.6,23699],[33.6,23782],[33.6,23856],[33.6,23939],[33.6,24019],[33.6,24106],[33.6,24200],[33.6,24283],[33.6,24353],[33.6,24449],[33.6,24533],[33.6,24603],[33.6,24686],[33.6,24783],[33.6,24853],[33.6,24936],[33.6,25023],[33.6,25118],[33.6,25187],[33.6,25274],[33.6,25353],[33.6,25440],[33.6,25520],[33.6,25603],[33.6,25700],[33.6,25771],[33.6,25857],[33.6,25950],[33.6,26020],[33.6,26107],[33.6,26187],[33.6,26271],[33.6,26354],[33.6,26437],[33.6,26521],[33.6,26604],[33.6,26700],[33.6,26784],[33.6,26854],[33.6,26941],[33.6,27034],[33.6,27118],[33.6,27193],[33.6,27284],[33.6,27368],[32.4,27465],[30.8,27541],[28.8,27626],[28.4,27719],[28.4,27792],[28.4,27884],[28.4,27955],[28.4,28038],[19.5,28134],[16.3,28218],[16,28302],[16.5,28386],[18.2,28468],[19.3,28555],[19.4,28622],[19.6,28706],[19.6,28789],[19.6,28873],[19.7,28956],[20,29039],[20,29123],[20,29206],[20,29290],[20,29373],[20,29466]]",1,0,958.8467,960.851,49.19590643,1.1198,"[{""rating"":49.19590643274854,""responseTime"":1.1198000000118782}]",space,1.4621,,960.851,Half the time,50,960.8569,,,[],,0,11,11,11,1,audio/Narrative8Situation2.wav,audio/Narrative7Situation2.wav,audio/Narrative6Situation2.wav,audio/Narrative5Situation2.wav,3,3,3,3,,,,,,,,,,,,,,,,,,,,,,,,,,,,,,,,,,,,,,,
,,,,,,6536a9f9ac4d61b9d34f5b3b,2024-05-13_09h09.06.023,group3.1-3.2-social-tom,2023.2.2,Win32,60.60606061,65c5074098b851296ff0b7ed,664236e9bda8db0f1c687a3e,,,,,,,,,,,,,,,,,,,,,,,,,,,,,960.8573,2,audio/Narrative5Situation3.wav,963.8591,,963.8592,977.7821,"[[49.1,1843],[49.1,1916],[44,2002],[6.9,2682],[6.7,2765],[6.4,2848],[6.4,2932],[6.4,3015],[6.4,3098],[6.4,3182],[6.4,3265],[6.4,3349],[6.4,3432],[6.4,3517],[6.4,3600],[6.4,3687],[6.4,3779],[6.4,3849],[6.4,3932],[6.4,4015],[6.4,4099],[6.4,4183],[6.4,4279],[6.4,4362],[6.4,4445],[6.4,4527],[6.4,4599],[6.4,4694],[6.4,4765],[6.4,4850],[6.4,4932],[6.4,5016],[6.4,5112],[6.4,5196],[6.4,5267],[6.4,5353],[6.4,5447],[6.4,5517],[6.4,5600],[6.4,5683],[6.4,5770],[6.4,5851],[6.4,5937],[6.4,6030],[6.4,6101],[6.4,6188],[6.4,6267],[6.4,6351],[6.4,6434],[6.4,6520],[6.4,6614],[6.4,6687],[6.4,6768],[6.4,6851],[6.4,6934],[6.4,7018],[6.4,7101],[6.4,7186],[6.4,7268],[6.4,7351],[6.4,7435],[6.4,7518],[6.4,7602],[6.4,7685],[6.4,7768],[6.4,7851],[6.4,7935],[6.4,8018],[6.4,8102],[6.4,8185],[6.4,8269],[6.4,8352],[6.4,8435],[6.4,8519],[6.4,8602],[6.4,8685],[6.4,8769],[6.4,8852],[6.4,8936],[6.4,9022],[6.4,9102],[6.4,9186],[6.4,9269],[6.4,9353],[6.4,9436],[6.4,9519],[6.4,9603],[6.4,9686],[6.4,9770],[6.4,9853],[6.4,9937],[6.4,10020],[6.4,10103],[6.4,10187],[6.4,10270],[6.4,10353],[6.4,10437],[6.4,10520],[6.4,10604],[6.4,10687],[6.4,10770],[6.4,10854],[6.4,10937],[6.4,11020],[6.4,11104],[6.4,11187],[6.4,11271],[6.4,11354],[6.4,11437],[6.4,11521],[6.4,11604],[6.4,11688],[6.4,11771],[6.4,11854],[6.4,11938],[6.4,12021],[6.4,12104],[6.4,12188],[6.4,12271],[6.4,12355],[6.4,12438],[6.4,12521],[6.4,12605],[6.4,12688],[6.4,12772],[6.4,12855],[6.4,12938],[6.4,13022],[6.4,13105],[13.7,13189],[55,13538],[52.9,13622],[54.1,13706],[54.1,13789],[54.1,13872]]",1,0,977.7824,979.2464,30.62865497,0.8978,"[{""rating"":30.628654970760234,""responseTime"":0.8978000000118982}]",space,0.918,,979.2465,Not at all,0,979.2525,,,[],,0,12,12,12,1,audio/Narrative8Situation3.wav,audio/Narrative7Situation3.wav,audio/Narrative6Situation3.wav,audio/Narrative5Situation3.wav,4,8,5,3,,,,,,,,,,,,,,,,,,,,,,,,,,,,,,,,,,,,,,,
,,,,,,6536a9f9ac4d61b9d34f5b3b,2024-05-13_09h09.06.023,group3.1-3.2-social-tom,2023.2.2,Win32,60.60606061,65c5074098b851296ff0b7ed,664236e9bda8db0f1c687a3e,,,,,,,,,,,,,,,,,,,,,,,,,,,,,979.2531,2,audio/Narrative5Situation4.wav,980.2672,,980.2673,1000.648,"[[23.9,9089],[21.3,9172],[21.6,9256],[23.2,9339],[23.8,9423],[26.8,9506],[28.1,9590],[28.1,9673],[28.1,9756],[28.1,9839],[28.1,9923],[28.1,10006],[28.1,10090],[28.1,10173],[28.1,10256],[28.1,10340],[28.1,10423],[28.1,10507],[28.1,10590],[28.1,10673],[28.1,10756],[28.1,10840],[28.1,10924],[28.1,11007],[28.1,11090],[28.1,11174],[28.1,11257],[28.1,11340],[28.1,11424],[28.1,11507],[28.1,11591],[28.1,11674],[28.1,11757],[28.1,11841],[28.1,11924],[28.1,12008],[28.1,12091],[28.1,12174],[28.1,12258],[28.1,12341],[28.1,12424],[28.1,12508],[28.1,12591],[28.1,12675],[28.1,12758],[28.1,12841],[28.1,12925],[28.1,13009],[28.1,13092],[28.1,13175],[28.1,13258],[28.1,13342],[28.1,13425],[28.1,13508],[28.1,13592],[28.1,13675],[28.1,13759],[28.1,13842],[28.1,13926],[28.1,14009],[28.1,14092],[28.1,14176],[28.1,14259],[28.1,14342],[28.1,14427],[28.1,14509],[28.1,14593],[28.1,14676],[28.1,14759],[28.1,14843],[28.1,14926],[28.1,15010],[28.1,15093],[28.1,15177],[28.1,15260],[28.1,15343],[28.1,15427],[28.1,15510],[28.1,15593],[28.1,15677],[28.1,15760],[28.1,15844],[28.1,15927],[28.1,16010],[28.1,16094],[28.1,16177],[28.1,16261],[28.1,16344],[28.1,16427],[28.1,16511],[28.1,16594],[28.1,16677],[28.1,16761],[28.1,16844],[28.1,16928],[28.1,17011],[28.1,17095],[28.1,17178],[28.1,17261],[28.1,17344],[28.1,17428],[28.1,17511],[28.1,17595],[28.1,17678],[28.1,17762],[28.1,17845],[28.1,17928],[28.1,18012],[28.1,18095],[28.1,18178],[28.1,18262],[28.1,18345],[28.1,18429],[28.1,18512],[28.1,18596],[28.1,18679],[28.1,18762],[28.1,18846],[47.1,18946],[55.5,19029],[60.5,19112],[61.3,19196],[62,19279],[63.7,19362],[64.5,19446],[64.5,19529],[64.5,19613],[64.5,19696],[64.4,19779],[64.4,19863],[64.4,19946],[64.4,20030],[64.4,20113],[64.4,20196],[64.4,20280],[64.4,20363]]",1,0,1000.6483,1002.2159,64.32748538,0.5126,"[{""rating"":64.32748538011695,""responseTime"":0.5126000000238946}]",space,1.0183,,1002.216,All the time,100,1002.2216,,,[],,0,13,13,13,1,audio/Narrative8Situation4.wav,audio/Narrative7Situation4.wav,audio/Narrative6Situation4.wav,audio/Narrative5Situation4.wav,3,3,2,1,,,,,,,,,,,,,,,,,,,,,,,,,,,,,,,,,,,,,,,
,,,,,,6536a9f9ac4d61b9d34f5b3b,2024-05-13_09h09.06.023,group3.1-3.2-social-tom,2023.2.2,Win32,60.60606061,65c5074098b851296ff0b7ed,664236e9bda8db0f1c687a3e,,,,,,,,,,,,,,,,,,,,,,,,,,,,,1002.2222,2,audio/Narrative5Situation5.wav,1007.2359,,1007.2359,1022.6633,"[[999,20],[999,100],[999,183],[999,266],[999,350],[999,433],[999,516],[999,611],[999,683],[999,766],[999,850],[999,933],[999,1030],[999,1100],[999,1197],[999,1280],[999,1363],[999,1447],[999,1520],[999,1600],[999,1687],[999,1770],[999,1863],[999,1934],[999,2018],[999,2101],[999,2188],[999,2282],[999,2351],[999,2434],[999,2518],[999,2601],[999,2698],[999,2781],[999,2864],[999,2934],[999,3018],[999,3101],[999,3199],[999,3268],[999,3354],[999,3435],[999,3531],[999,3615],[999,3685],[999,3768],[999,3852],[999,3948],[999,4019],[999,4102],[999,4186],[999,4269],[999,4355],[999,4436],[999,4519],[999,4602],[999,4686],[999,4769],[999,4853],[999,4936],[999,5019],[999,5103],[999,5186],[999,5270],[999,5353],[999,5436],[999,5520],[999,5603],[999,5687],[999,5770],[999,5854],[999,5937],[999,6020],[999,6104],[999,6187],[999,6270],[999,6354],[999,6437],[999,6520],[999,6604],[999,6687],[999,6771],[999,6855],[999,6937],[999,7021],[999,7104],[20.5,7187],[18.5,7271],[18.3,7354],[17.8,7438],[17,7521],[16.4,7604],[16.4,7689],[17.1,7772],[17.5,7855],[17.5,7938],[17.5,8021],[17.5,8105],[17.5,8188],[17.5,8271],[17.5,8355],[17.5,8438],[17.5,8522],[17.5,8605],[17.5,8688],[17.5,8772],[17.7,8855],[17.9,8939],[18.1,9022],[18.1,9106],[18.3,9189],[18.3,9272],[18.3,9356],[18.3,9439],[18.3,9523],[18.6,9606],[18.6,9689],[18.7,9773],[18.9,9856],[18.9,9939],[19.2,10023],[19.3,10107],[20.5,10189],[22.5,10273],[23,10358],[23,10440],[23,10523],[23,10607],[23.1,10691],[31.3,10774],[43.8,10857],[51.7,10940],[57.6,11023],[59.9,11107],[66.2,11190],[72.4,11274],[74.3,11357],[76.6,11440],[77.5,11524],[77.5,11607],[77.7,11691],[77.7,11774],[77.7,11857],[77.7,11941],[77.7,12024],[77.7,12107],[77.7,12191],[77.7,12274],[77.7,12358],[77.7,12441],[77.7,12525],[77.7,12608],[77.7,12691],[77.7,12775],[77.7,12858],[77.7,12941],[77.7,13025],[77.7,13108],[77.7,13192],[77.7,13275],[77.7,13358],[77.7,13442],[77.7,13526],[77.7,13609],[77.7,13692],[77.7,13776],[77.7,13859],[77.7,13942],[77.7,14026],[77.7,14109],[77.7,14192],[77.7,14276],[77.7,14359],[77.7,14442],[77.7,14526],[77.7,14609],[77.7,14693],[77.7,14776],[77.7,14860],[77.7,14943],[77.7,15026],[77.7,15110],[77.7,15193],[77.7,15276],[77.7,15360]]",1,0,1022.6636,1026.4964,62.42690058,2.6605,"[{""rating"":62.42690058479532,""responseTime"":2.6604999999999563}]",space,3.2863,,1026.4965,All the time,100,1026.5003,,,[],,0,14,14,14,1,audio/Narrative8Situation5.wav,audio/Narrative7Situation5.wav,audio/Narrative6Situation5.wav,audio/Narrative5Situation5.wav,2,5,2,5,,,,,,,,,,,,,,,,,,,,,,,,,,,,,,,,,,,,,,,
,,,,,,6536a9f9ac4d61b9d34f5b3b,2024-05-13_09h09.06.023,group3.1-3.2-social-tom,2023.2.2,Win32,60.60606061,65c5074098b851296ff0b7ed,664236e9bda8db0f1c687a3e,,,,,,,,,,,,,,,,,,,,,,,,,,,,,1026.5008,2,audio/Narrative5Situation6.wav,1029.5138,,1029.5139,1035.1883,[],1,0,1035.1886,1037.7866,10.16081871,1.8941,"[{""rating"":10.160818713450293,""responseTime"":1.8940999999642827}]",space,2.0502,,1037.7867,Not at all,0,1037.7934,,,[],,0,15,15,15,1,audio/Narrative8Situation6.wav,audio/Narrative7Situation6.wav,audio/Narrative6Situation6.wav,audio/Narrative5Situation6.wav,2,3,2,3,,,,,,,,,,,,,,,,,,,,,,,,,,,,,,,,,,,,,,,
,,,,,,6536a9f9ac4d61b9d34f5b3b,2024-05-13_09h09.06.023,group3.1-3.2-social-tom,2023.2.2,Win32,60.60606061,65c5074098b851296ff0b7ed,664236e9bda8db0f1c687a3e,,,,,,,,,,,,,,,,,,,,,,,,,,,,,1037.7938,2,audio/Narrative5Situation7.wav,1041.8064,,1041.8065,1062.8575,"[[10.7,3192],[11.7,3271],[11,3358],[9.4,3451],[9.4,3521],[9.4,3608],[9.4,3701],[9.4,3786],[9.4,3855],[9.9,3951],[10.5,4035],[10.8,4119],[10.8,4201],[10.8,4285],[10.8,4355],[10.8,4439],[11.1,4523],[11.1,4619],[11.1,4699],[11.1,4786],[11.1,4869],[11.1,4940],[11.1,5022],[11.1,5120],[11.1,5190],[11.5,5277],[12,5357],[12.3,5453],[12.3,5523],[12.4,5610],[12.4,5702],[12.6,5775],[12.6,5860],[12.6,5940],[12.6,6023],[12.6,6107],[12.6,6193],[12.6,6287],[12.6,6358],[12.6,6444],[12.6,6538],[12.6,6620],[12.6,6694],[12.6,6774],[12.6,6870],[12.6,6941],[12.6,7028],[12.6,7120],[12.6,7191],[12.6,7287],[12.7,7370],[12.7,7441],[12.7,7524],[12.7,7607],[12.7,7704],[12.7,7774],[12.8,7862],[12.9,7954],[12.9,8030],[13,8112],[13,8191],[13,8274],[13,8358],[13.2,8455],[13.2,8525],[13.2,8622],[13.2,8693],[13.3,8788],[13.3,8858],[13.5,8955],[13.5,9038],[13.5,9109],[13.5,9192],[13.5,9288],[13.5,9372],[13.5,9442],[13.5,9526],[13.5,9623],[13.5,9695],[13.5,9781],[13.5,9872],[13.5,9943],[13.5,10026],[13.5,10124],[13.5,10193],[13.5,10276],[13.5,10359],[13.5,10443],[13.5,10528],[13.5,10613],[13.5,10706],[13.5,10777],[13.5,10860],[13.5,10956],[13.5,11027],[13.5,11110],[13.5,11203],[13.5,11290],[13.5,11374],[13.5,11447],[13.5,11528],[13.5,11610],[13.5,11694],[13.5,11778],[13.5,11860],[13.5,11944],[13.5,12027],[13.5,12111],[13.5,12194],[13.5,12277],[13.5,12361],[13.5,12444],[13.5,12528],[13.5,12611],[13.5,12694],[13.5,12778],[13.5,12861],[13.5,12945],[13.5,13028],[13.5,13111],[13.5,13195],[13.5,13278],[13.5,13362],[13.5,13445],[13.5,13528],[13.5,13612],[13.5,13695],[13.5,13778],[13.5,13862],[13.5,13945],[13.5,14029],[13.5,14112],[13.5,14195],[13.5,14279],[13.5,14362],[13.5,14446],[13.5,14529],[13.5,14612],[13.5,14696],[13.5,14779],[13.5,14863],[13.5,14946],[13.5,15030],[13.5,15113],[13.5,15196],[13.5,15280],[13.5,15363],[13.5,15446],[13.5,15530],[13.5,15613],[13.5,15696],[13.5,15780],[13.6,15880],[13.6,15964],[13.6,16047],[13.7,16135],[13.7,16218],[13.7,16310],[13.7,16381],[13.7,16467],[13.7,16549],[13.7,16631],[13.7,16714],[13.7,16797],[13.7,16881],[13.7,16964],[13.7,17048],[13.7,17131],[13.7,17214],[13.7,17297],[13.7,17381],[13.7,17464],[13.7,17548],[13.7,17631],[13.7,17714],[13.7,17798],[13.7,17881],[13.7,17965],[15.4,18048],[15.4,18132],[15.4,18215],[15.4,18298],[15.4,18382],[15.4,18465],[15.4,18549],[15.4,18632],[15.4,18715],[15.4,18798],[15.4,18882],[15.4,18965],[15.4,19049],[15.4,19132],[15.4,19216],[15.4,19299],[15.4,19382],[15.4,19466],[15.4,19549],[15.4,19633],[15.4,19716],[15.4,19799],[15.4,19883],[15.4,19966],[15.3,20049],[15.3,20133],[15.3,20216],[15.3,20300],[15.3,20383],[15.3,20466],[15.3,20550],[15.3,20633],[15.3,20717],[15.3,20800],[15.3,20883],[15.3,20967],[15.3,21050]]",1,0,1062.8577,1065.7231,14.10818713,1.5806,"[{""rating"":14.108187134502925,""responseTime"":1.580599999964079}]",space,2.3338,,1065.7233,All the time,100,1065.7291,,,[],,0,16,16,16,1,audio/Narrative8Situation7.wav,audio/Narrative7Situation7.wav,audio/Narrative6Situation7.wav,audio/Narrative5Situation7.wav,3,5,5,4,,,,,,,,,,,,,,,,,,,,,,,,,,,,,,,,,,,,,,,
,,,,,,6536a9f9ac4d61b9d34f5b3b,2024-05-13_09h09.06.023,group3.1-3.2-social-tom,2023.2.2,Win32,60.60606061,65c5074098b851296ff0b7ed,664236e9bda8db0f1c687a3e,,,,,,,,,,,,,,,,,,,,,,,,,,,,,1065.7295,2,audio/Narrative5Situation8.wav,1068.7416,,1068.7417,1077.5639,"[[14.2,1504],[14.2,1587],[14.2,1674],[14.2,1767],[13.7,1851],[13.7,1921],[13.7,2007],[13.7,2100],[13.7,2170],[13.7,2256],[13.7,2350],[13.7,2421],[13.7,2507],[13.7,2600],[13.7,2671],[13.7,2758],[13.7,2852],[13.7,2934],[13.7,3006],[13.7,3091],[13.7,3184],[13.7,3254],[13.7,3338],[13.7,3421],[13.7,3505],[13.7,3601],[13.7,3674],[13.7,3756],[13.7,3838],[13.7,3924],[13.7,4005],[13.7,4089],[13.7,4185],[13.7,4255],[13.7,4339],[13.7,4435],[13.7,4506],[13.7,4602],[13.7,4675],[13.7,4768],[13.7,4853],[13.7,4925],[13.7,5009],[13.7,5089],[13.7,5173],[13.7,5256],[13.7,5342],[13.7,5436],[13.7,5507],[13.7,5594],[13.7,5687],[13.7,5756],[13.7,5840],[13.7,5936],[13.7,6019],[13.7,6090],[13.7,6186],[13.7,6270],[13.7,6340],[13.7,6427],[13.7,6520],[13.7,6591],[13.7,6676],[13.7,6757],[13.7,6840],[13.7,6924],[13.7,7010],[13.7,7105],[13.7,7177],[13.7,7271],[13.7,7354],[13.7,7424],[13.7,7520],[13.7,7591],[13.7,7674],[13.7,7760],[13.7,7844],[13.7,7925],[13.7,8008],[13.7,8096],[13.7,8188],[13.7,8258],[13.7,8354],[13.7,8425],[13.7,8508],[13.7,8591],[13.7,8678],[13.7,8771]]",1,0,1077.5641,1080.5665,8.333333333,1.0472,"[{""rating"":8.333333333333332,""responseTime"":1.0471999999881518}]",space,2.4653,,1080.5666,Not at all,0,1080.5724,,,[],,0,17,17,17,1,audio/Narrative8Situation8.wav,audio/Narrative7Situation8.wav,audio/Narrative6Situation8.wav,audio/Narrative5Situation8.wav,3,2,5,3,,,,,,,,,,,,,,,,,,,,,,,,,,,,,,,,,,,,,,,
,,,,,,6536a9f9ac4d61b9d34f5b3b,2024-05-13_09h09.06.023,group3.1-3.2-social-tom,2023.2.2,Win32,60.60606061,65c5074098b851296ff0b7ed,664236e9bda8db0f1c687a3e,,,,,,,,,,,,,,,,,,,,,,,,,,,,,1080.5729,2,audio/Narrative5Situation9.wav,1083.5755,,1083.5755,1123.1157,"[[8.5,2681],[8.9,2766],[8.9,2848],[9.1,2931],[9.2,3014],[9.4,3098],[9.4,3181],[9.4,3264],[9.4,3348],[9.4,3431],[9.4,3515],[9.4,3598],[9.4,3681],[9.4,3765],[9.4,3848],[9.4,3932],[9.4,4015],[9.4,4098],[9.4,4182],[9.4,4265],[9.4,4348],[9.4,4432],[9.4,4515],[9.4,4598],[9.4,4682],[9.9,4766],[10.1,4849],[10.1,4932],[10.1,5016],[10.1,5099],[10.1,5182],[10.1,5266],[10.1,5349],[10.1,5432],[10.1,5516],[10.1,5599],[10.1,5683],[10.1,5766],[10.1,5850],[10.1,5933],[10.1,6018],[10.1,6100],[10.1,6183],[10.1,6266],[10.1,6350],[10.1,6433],[10.1,6517],[10.1,6600],[10.1,6683],[10.1,6767],[10.1,6850],[10.1,6939],[10.1,7017],[10.1,7100],[10.1,7184],[10.1,7267],[10.1,7350],[10.1,7434],[10.1,7517],[10.1,7600],[10.1,7684],[10.1,7767],[10.1,7851],[10.1,7934],[10.1,8018],[10.1,8101],[10.1,8184],[10.1,8268],[10.1,8351],[10.1,8435],[10.1,8518],[10.1,8601],[10.1,8685],[10.1,8768],[10.1,8851],[10.1,8935],[10.1,9018],[10.1,9102],[10.1,9185],[10.1,9268],[10.1,9352],[10.1,9435],[10.1,9519],[10.1,9602],[10.1,9685],[10.1,9769],[10.1,9852],[10.1,9936],[10.1,10019],[10.1,10102],[10.1,10186],[10.1,10269],[10.1,10352],[10.1,10436],[10.1,10519],[10.1,10603],[10.1,10686],[10.1,10769],[10.1,10853],[10.1,10936],[10.1,11023],[10.1,11103],[10.1,11187],[10.1,11270],[10.1,11353],[10.1,11437],[10.1,11520],[10.1,11603],[10.1,11687],[10.1,11770],[10.1,11854],[10.1,11937],[10.1,12022],[10.1,12104],[10.1,12187],[10.1,12270],[10.1,12354],[10.1,12437],[10.1,12521],[10.1,12604],[10.1,12687],[10.1,12771],[10.1,12854],[10.1,12938],[10.1,13021],[10.1,13104],[10.1,13188],[10.1,13271],[10.1,13355],[10.1,13438],[10.1,13521],[10.1,13605],[10.1,13688],[10.1,13772],[10.1,13855],[10.1,13938],[10.1,14022],[10.1,14105],[10.1,14188],[10.1,14272],[10.1,14355],[10.1,14439],[10.1,14522],[10.1,14606],[16,14689],[17.5,14773],[17.7,14856],[17.7,14939],[17.7,15022],[17.7,15106],[17.7,15189],[17.7,15273],[17.7,15356],[17.7,15439],[17.7,15523],[17.7,15606],[17.7,15690],[17.7,15773],[17.7,15856],[17.7,15940],[17.7,16023],[17.7,16106],[17.7,16190],[17.7,16273],[17.7,16357],[17.7,16440],[17.7,16523],[17.7,16607],[17.7,16690],[17.7,16774],[17.7,16857],[17.7,16941],[17.7,17024],[17.7,17107],[17.7,17191],[17.7,17274],[17.7,17357],[17.7,17441],[17.7,17524],[17.7,17608],[17.7,17691],[17.7,17774],[17.7,17858],[17.7,17941],[17.7,18024],[17.7,18108],[17.7,18191],[17.7,18275],[17.7,18358],[17.7,18441],[17.7,18525],[17.7,18608],[17.7,18692],[17.7,18775],[17.7,18858],[17.7,18942],[17.7,19025],[22.2,19113],[28.4,19192],[32.6,19275],[35.4,19359],[36.8,19442],[40.4,19526],[43.7,19609],[48,19692],[52.7,19776],[55.6,19859],[55.6,19942],[55.6,20026],[54.4,20109],[54,20193],[54,20276],[54,20360],[55.6,20443],[59.1,20526],[61.8,20609],[62,20693],[62,20776],[62,20860],[62,20943],[62,21027],[62,21110],[62,21194],[62,21277],[62,21360],[62,21443],[62,21527],[62,21610],[62,21693],[62,21777],[62,21861],[62,21944],[62,22027],[62,22111],[62,22194],[62,22277],[62,22361],[62,22444],[62,22528],[62,22611],[62,22694],[62,22778],[62,22861],[62,22945],[62,23028],[62,23111],[64.3,23212],[65.9,23296],[67.3,23380],[69.7,23475],[72.4,23560],[74.4,23643],[75.6,23725],[76.3,23809],[76.3,23882],[76.3,23975],[76.3,24046],[76.5,24142],[76.5,24225],[76.5,24295],[76.5,24379],[77.5,24477],[78.4,24559],[78.4,24643],[78.7,24726],[78.7,24808],[78.7,24880],[78.7,24966],[78.7,25060],[78.7,25129],[78.7,25213],[78.7,25296],[78.7,25393],[78.7,25467],[78.7,25551],[78.7,25643],[78.7,25713],[78.7,25809],[78.7,25880],[78.7,25963],[78.7,26047],[78.7,26130],[78.7,26226],[78.7,26297],[78.7,26384],[78.7,26478],[78.7,26547],[78.7,26634],[78.7,26727],[78.7,26797],[78.7,26881],[78.7,26964],[78.7,27060],[78.7,27131],[78.7,27218],[78.7,27310],[78.7,27381],[78.7,27468],[78.7,27561],[78.7,27631],[78.7,27718],[78.7,27798],[78.7,27882],[78.7,27968],[78.7,28051],[78.7,28145],[78.7,28227],[78.7,28298],[78.7,28394],[78.7,28465],[78.7,28548],[78.7,28634],[78.7,28728],[78.7,28801],[78.7,28895],[78.7,28979],[78.7,29049],[78.7,29147],[78.7,29216],[78.7,29299],[78.7,29383],[78.7,29466],[78.7,29549],[78.7,29633],[78.7,29716],[78.7,29799],[78.7,29883],[78.7,29966],[78.7,30049],[78.7,30133],[78.7,30216],[78.7,30300],[78.7,30383],[78.7,30466],[78.7,30550],[78.7,30633],[78.7,30716],[78.7,30800],[78.7,30883],[78.7,30967],[78.7,31050],[78.7,31134],[78.7,31217],[78.7,31300],[78.7,31384],[78.7,31467],[78.7,31550],[78.7,31634],[78.7,31717],[78.7,31801],[78.7,31884],[78.7,31967],[78.7,32051],[78.7,32134],[78.7,32218],[78.7,32301],[78.7,32384],[78.7,32468],[78.7,32551],[78.7,32634],[78.7,32718],[78.7,32801],[78.7,32885],[78.7,32968],[78.7,33051],[78.7,33135],[78.7,33218],[78.7,33302],[78.7,33385],[78.7,33468],[78.7,33552],[78.7,33635],[78.7,33719],[78.8,33819],[78.8,33915],[78.8,33999],[78.8,34072],[78.8,34156],[78.8,34249],[78.8,34319],[78.8,34416],[78.8,34486],[78.8,34569],[78.8,34653],[78.8,34736],[78.8,34832],[78.8,34903],[78.8,34988],[78.8,35082],[78.8,35156],[78.8,35239],[78.8,35320],[78.8,35407],[78.8,35486],[78.8,35579],[78.8,35668],[78.8,35737],[78.8,35831],[78.8,35917],[78.8,35987],[78.8,36071],[78.8,36167],[81.1,36250],[83.1,36334],[84.3,36409],[84.6,36488],[84.6,36570],[84.6,36657],[84.6,36751],[84.6,36825],[84.6,36907],[84.6,36988],[84.6,37071],[84.6,37154],[84.6,37238],[84.6,37335],[84.6,37407],[84.6,37491],[84.6,37585],[84.6,37654],[84.6,37741],[84.6,37835],[84.6,37905],[84.6,37988],[84.6,38071],[84.6,38168],[84.6,38253],[84.6,38326],[84.6,38418],[84.6,38489],[84.6,38575],[84.6,38655],[84.6,38739],[84.6,38822],[84.6,38909],[84.6,39003],[84.6,39074],[84.6,39159],[84.6,39252],[84.6,39322],[84.6,39406],[84.6,39502]]",1,0,1123.1162,1125.2998,83.69883041,1.3936,"[{""rating"":83.69883040935673,""responseTime"":1.3935999999641808}]",space,1.6394,,1125.2998,Half the time,50,1125.3021,,,[],,0,18,18,18,1,audio/Narrative8Situation9.wav,audio/Narrative7Situation9.wav,audio/Narrative6Situation9.wav,audio/Narrative5Situation9.wav,3,2,4,3,,,,,,,,,,,,,,,,,,,,,,,,,,,,,,,,,,,,,,,
,,,,,,6536a9f9ac4d61b9d34f5b3b,2024-05-13_09h09.06.023,group3.1-3.2-social-tom,2023.2.2,Win32,60.60606061,65c5074098b851296ff0b7ed,664236e9bda8db0f1c687a3e,,,,,,,,,,,,,,,,,,,,,,,,,,,,,,,,,,,,,,,,,,,,,,,,,,,,,,,,,,,,,,,,,,,,,,,,1125.3023,1182.1066,space,56.2716,,1182.1081,1213.6298,space,31.1882,,,,,,,,,,,,,,,,,,,,,,,,,,
