exp_question,consent.started,consent.stopped,consentResponse.keys,consentResponse.rt,consentResponse.duration,participantID,date,expName,psychopyVersion,OS,frameRate,STUDY_ID,SESSION_ID,opening1.started,opening1.stopped,keyEndingOpening1.keys,keyEndingOpening1.rt,keyEndingOpening1.duration,volumeAdjust.started,volumeAdjust.stopped,endingAdjust.keys,endingAdjust.rt,endingAdjust.duration,opening2.started,opening2.stopped,keyEndingOpening.keys,keyEndingOpening.rt,keyEndingOpening.duration,mouse.x,mouse.y,mouse.leftButton,mouse.midButton,mouse.rightButton,mouse.time,instructionLoop.thisRepN,instructionLoop.thisTrialN,instructionLoop.thisN,instructionLoop.thisIndex,instructionLoop.ran,readyForAudio.started,readyForAudio.stopped,fixation.started,run,audio_played,fixation.stopped,endPractice.keys,audioPre.started,audioPre.stopped,continuousResponses_audio,continuousSlider.response,continuousSlider.rt,intRating.started,intRating.stopped,intQuestionSlider.response,intQuestionSlider.rt,intQuestionSlider.history,confirmResponse.keys,confirmResponse.rt,confirmResponse.duration,catchQuestion.started,catch_label,catch_value,catchQuestion.stopped,catchQuestionSlider.response,catchQuestionSlider.rt,catchQuestionSlider.history,confirmResponse_2.keys,audioRunLoop.thisRepN,audioRunLoop.thisTrialN,audioRunLoop.thisN,audioRunLoop.thisIndex,audioRunLoop.ran,conditions1_1,conditions2_1,conditions1_2,conditions2_2,dur1_1,dur2_1,dur1_2,dur2_2,endPractice.rt,endPractice.duration,confirmResponse_2.rt,confirmResponse_2.duration,runIntervalBreak.started,runIntervalBreak.stopped,endingBreakKey.keys,endingBreakKey.rt,endingBreakKey.duration,connection.started,connection.stopped,connectionEnding.keys,connectionEnding.rt,connectionEnding.duration,readyForText.started,readyForText.stopped,textPre.started,run_dup,textPre.stopped,continuousResponses_text,textRunLoop.thisRepN,textRunLoop.thisTrialN,textRunLoop.thisN,textRunLoop.thisIndex,textRunLoop.ran,text1_1,text1_2,text2_1,text2_2,runBreakText.started,runBreakText.stopped,endingBreakKey_2.keys,endingBreakKey_2.rt,endingBreakKey_2.duration,ending.started,ending.stopped,endingEnding.keys,endingEnding.rt,endingEnding.duration
social,0.0005,7.7145,y,7.1542,,653932c48f1f4427af84a7f0,2024-02-08_12h48.24.020,group3.1-3.2-social-tom,2023.2.2,Win32,8.467400508,65c5074098b851296ff0b7ed,65c513a38162edf01ba94e0d,,,,,,,,,,,,,,,,,,,,,,,,,,,,,,,,,,,,,,,,,,,,,,,,,,,,,,,,,,,,,,,,,,,,,,,,,,,,,,,,,,,,,,,,,,,,,,,,,,,,,,,,,,
,,,,,,653932c48f1f4427af84a7f0,2024-02-08_12h48.24.020,group3.1-3.2-social-tom,2023.2.2,Win32,8.467400508,65c5074098b851296ff0b7ed,65c513a38162edf01ba94e0d,7.7148,13.6062,space,5.7288,,,,,,,,,,,,,,,,,,,,,,,,,,,,,,,,,,,,,,,,,,,,,,,,,,,,,,,,,,,,,,,,,,,,,,,,,,,,,,,,,,,,,,,,,,,,,,,,,,,,,,
,,,,,,653932c48f1f4427af84a7f0,2024-02-08_12h48.24.020,group3.1-3.2-social-tom,2023.2.2,Win32,8.467400508,65c5074098b851296ff0b7ed,65c513a38162edf01ba94e0d,,,,,,13.6063,27.5385,space,13.4912,,,,,,,,,,,,,,,,,,,,,,,,,,,,,,,,,,,,,,,,,,,,,,,,,,,,,,,,,,,,,,,,,,,,,,,,,,,,,,,,,,,,,,,,,,,,,,,,,
,,,,,,653932c48f1f4427af84a7f0,2024-02-08_12h48.24.020,group3.1-3.2-social-tom,2023.2.2,Win32,8.467400508,65c5074098b851296ff0b7ed,65c513a38162edf01ba94e0d,,,,,,,,,,,27.5514,38.2764,space,10.5723,0.0003,[],[],[],[],[],[],0,0,0,0,1,,,,,,,,,,,,,,,,,,,,,,,,,,,,,,,,,,,,,,,,,,,,,,,,,,,,,,,,,,,,,,,,,,,,,,,,,,,,,,,,
,,,,,,653932c48f1f4427af84a7f0,2024-02-08_12h48.24.020,group3.1-3.2-social-tom,2023.2.2,Win32,8.467400508,65c5074098b851296ff0b7ed,65c513a38162edf01ba94e0d,,,,,,,,,,,38.2846,59.2699,space,20.7413,9.99999E-05,[],[],[],[],[],[],1,0,1,0,1,,,,,,,,,,,,,,,,,,,,,,,,,,,,,,,,,,,,,,,,,,,,,,,,,,,,,,,,,,,,,,,,,,,,,,,,,,,,,,,,
,,,,,,653932c48f1f4427af84a7f0,2024-02-08_12h48.24.020,group3.1-3.2-social-tom,2023.2.2,Win32,8.467400508,65c5074098b851296ff0b7ed,65c513a38162edf01ba94e0d,,,,,,,,,,,59.2784,89.0575,space,29.5761,,[],[],[],[],[],[],2,0,2,0,1,,,,,,,,,,,,,,,,,,,,,,,,,,,,,,,,,,,,,,,,,,,,,,,,,,,,,,,,,,,,,,,,,,,,,,,,,,,,,,,,
,,,,,,653932c48f1f4427af84a7f0,2024-02-08_12h48.24.020,group3.1-3.2-social-tom,2023.2.2,Win32,8.467400508,65c5074098b851296ff0b7ed,65c513a38162edf01ba94e0d,,,,,,,,,,,89.0664,126.4707,space,37.2282,,[],[],[],[],[],[],3,0,3,0,1,,,,,,,,,,,,,,,,,,,,,,,,,,,,,,,,,,,,,,,,,,,,,,,,,,,,,,,,,,,,,,,,,,,,,,,,,,,,,,,,
,,,,,,653932c48f1f4427af84a7f0,2024-02-08_12h48.24.020,group3.1-3.2-social-tom,2023.2.2,Win32,8.467400508,65c5074098b851296ff0b7ed,65c513a38162edf01ba94e0d,,,,,,,,,,,126.4788,138.3547,space,11.705,,[],[],[],[],[],[],4,0,4,0,1,,,,,,,,,,,,,,,,,,,,,,,,,,,,,,,,,,,,,,,,,,,,,,,,,,,,,,,,,,,,,,,,,,,,,,,,,,,,,,,,
,,,,,,653932c48f1f4427af84a7f0,2024-02-08_12h48.24.020,group3.1-3.2-social-tom,2023.2.2,Win32,8.467400508,65c5074098b851296ff0b7ed,65c513a38162edf01ba94e0d,,,,,,,,,,,,,,,,,,,,,,,,,,,138.3663,140.9697,140.9883,1,audio/Narrative13Situation2.wav,143.0134,,143.0136,173.0164,"[[999,0],[999,154],[999,283],[999,419],[999,553],[999,687],[999,815],[999,941],[999,1077],[999,1218],[999,1358],[999,1499],[999,1627],[999,1756],[999,1876],[999,2011],[999,2151],[999,2287],[999,2415],[999,2551],[999,2695],[999,2837],[999,2972],[999,3109],[999,3238],[999,3376],[999,3520],[999,3662],[999,3792],[999,3928],[22.7,4073],[22.3,4204],[22.3,4335],[22.3,4463],[21.9,4592],[21.8,4717],[21.8,4850],[21.7,4991],[20.9,5122],[20.4,5252],[20.1,5384],[19.9,5515],[19.9,5643],[18.5,5775],[18,5905],[18,6032],[18,6163],[18,6307],[18,6447],[18,6581],[18,6726],[18,6851],[18,6987],[17.7,7121],[17.5,7251],[17.4,7387],[17.4,7522],[17.4,7645],[17.4,7776],[17.4,7912],[17.4,8041],[17.4,8170],[20.9,8306],[36.7,8444],[52.7,8576],[60.2,8720],[65.8,8849],[66.6,8972],[67.5,9103],[69.1,9231],[76,9368],[80.8,9496],[82.5,9623],[84.7,9753],[86.6,9878],[86.7,10010],[87.9,10145],[88.4,10287],[88.4,10438],[88.4,10570],[88.4,10704],[89.9,10827],[91.6,10956],[91.6,11089],[91.6,11224],[92.5,11359],[94.5,11484],[96.1,11610],[96.4,11739],[98.5,11871],[98.8,11998],[98.8,12122],[98.8,12249],[98.8,12377],[99.3,12520],[100,12658],[100,12781],[100,12919],[100,13056],[100,13191],[100,13330],[100,13472],[100,13615],[100,13753],[100,13882],[100,14026],[100,14156],[100,14291],[100,14416],[100,14540],[100,14668],[100,14794],[100,14920],[100,15040],[100,15163],[100,15286],[100,15415],[100,15544],[100,15675],[100,15803],[100,15947],[100,16073],[100,16205],[100,16344],[100,16474],[100,16606],[100,16729],[100,16864],[100,16992],[100,17127],[100,17241],[100,17372],[100,17490],[95.6,17616],[92.4,17754],[88.1,17879],[83.6,18022],[82,18150],[80.2,18278],[77.5,18415],[74.9,18549],[71.6,18691],[69.9,18818],[67.9,18941],[67.3,19081],[67.2,19211],[67.2,19339],[67.2,19460],[67.2,19592],[67.2,19715],[67,19839],[64.1,19973],[62.1,20098],[59.7,20223],[57.1,20356],[52.9,20479],[48,20605],[45,20741],[43.2,20878],[43.2,21004],[43.2,21128],[43.2,21251],[43.2,21368],[41.1,21505],[37.5,21634],[35.8,21766],[35,21894],[34,22020],[31,22144],[30.6,22275],[30.3,22399],[30.3,22526],[30.3,22662],[29,22798],[28.2,22930],[27.8,23057],[27.5,23177],[27.2,23306],[27.2,23434],[27.2,23566],[27.2,23700],[27.2,23835],[27.2,23958],[26.3,24078],[23.1,24210],[22.5,24331],[22.5,24456],[25.2,24589],[25.2,24714],[25.2,24849],[23.3,24979],[22.8,25098],[21.4,25223],[20.9,25351],[20.7,25484],[20.7,25607],[20.7,25736],[20.7,25861],[20.7,25997],[20.7,26140],[16.3,26271],[15.5,26393],[15.5,26516],[15.5,26653],[15.5,26778],[15.5,26906],[15.5,27050],[15.5,27179],[14.2,27315],[14,27441],[13.9,27567],[13.9,27686],[13.8,27812],[13.8,27935],[13.8,28059],[13.8,28194],[13.8,28322],[13.8,28451],[13.8,28570],[13.8,28705],[13.8,28830],[13.8,28964],[13.8,29090],[13.8,29213],[13.8,29338],[13.8,29473],[13.8,29598],[13.8,29737],[13.8,29858],[13.8,30002]]",1,0,173.0166,183.7167,39.89583333,7.1176,"[{""rating"":38.645833333333336,""responseTime"":6.5745000000000005},{""rating"":39.89583333333333,""responseTime"":7.117600000023856}]",space,9.8595,,183.7247,Partially,50,183.7282,,,[],,0,0,0,0,1,audio/Narrative13Situation2.wav,audio/Narrative13Situation2.wav,audio/Narrative13Situation2.wav,audio/Narrative13Situation2.wav,2,2,2,2,,,,,,,,,,,,,,,,,,,,,,,,,,,,,,,,,,,,,,,
,,,,,,653932c48f1f4427af84a7f0,2024-02-08_12h48.24.020,group3.1-3.2-social-tom,2023.2.2,Win32,8.467400508,65c5074098b851296ff0b7ed,65c513a38162edf01ba94e0d,,,,,,,,,,,,,,,,,,,,,,,,,,,,,183.7285,1,audio/Narrative7Situation1.wav,186.8218,space,186.8219,242.9906,"[[999,0],[999,135],[999,254],[999,382],[999,513],[999,632],[999,764],[999,897],[999,1016],[999,1152],[999,1279],[999,1408],[999,1543],[999,1670],[999,1796],[999,1918],[999,2042],[999,2166],[999,2287],[999,2419],[999,2545],[999,2663],[999,2788],[999,2913],[999,3040],[999,3166],[999,3286],[999,3410],[999,3533],[999,3672],[999,3788],[999,3906],[999,4027],[999,4173],[999,4310],[999,4428],[999,4551],[999,4685],[999,4819],[43.3,4951],[43.3,5081],[43.3,5202],[43.3,5328],[43.3,5454],[43.1,5575],[42,5696],[40,5828],[37.1,5970],[35.3,6101],[34.8,6231],[34.7,6355],[34.5,6480],[33.5,6605],[32.1,6742],[31.1,6867],[30.6,6989],[30.4,7110],[30.2,7236],[30.1,7361],[30.1,7488],[30.1,7615],[30.1,7742],[30.1,7859],[30.1,7985],[30.7,8114],[44.1,8248],[54,8375],[59.3,8501],[65.7,8635],[70.9,8759],[72.3,8884],[77.1,9017],[85.9,9149],[90,9275],[90.1,9397],[92.2,9539],[93.5,9666],[95,9793],[96.3,9929],[96.6,10054],[96.9,10180],[97,10306],[97,10433],[97,10559],[97,10680],[96.9,10807],[96.9,10940],[96.9,11082],[96.9,11208],[96.9,11332],[96.9,11464],[96.8,11583],[96.7,11701],[96.6,11828],[96.4,11964],[96.1,12089],[95.9,12225],[95.5,12354],[95.2,12487],[94.5,12610],[90.2,12745],[89.9,12868],[89,12990],[87.7,13124],[86.4,13252],[83.1,13381],[78.4,13504],[75,13630],[73,13753],[71.1,13887],[70.8,14012],[70.7,14132],[69.8,14254],[66.9,14387],[60.2,14514],[54.7,14641],[50,14783],[46.7,14917],[46.7,15041],[46.6,15165],[45.3,15293],[42.1,15418],[38.1,15545],[34.7,15677],[32.3,15807],[30.7,15941],[30.2,16070],[30.1,16194],[30.1,16326],[30.1,16461],[30.1,16586],[30.1,16708],[30.1,16831],[30.1,16961],[35.2,17096],[43.6,17230],[49.5,17373],[62.5,17506],[65,17639],[65,17761],[65,17890],[65.7,18016],[65.8,18149],[66.5,18289],[67.7,18415],[68,18541],[69,18676],[70.9,18804],[75.4,18931],[84.2,19067],[86.6,19202],[87.6,19347],[88.1,19471],[89.4,19597],[90.6,19718],[93.4,19844],[95.6,19974],[95.6,20097],[95.6,20226],[95.6,20352],[95.6,20479],[94.8,20606],[92.7,20735],[84.6,20862],[74.2,20989],[70.1,21117],[65.6,21249],[65.5,21375],[65.5,21494],[64.8,21622],[60.1,21751],[56.4,21873],[55,22003],[55,22125],[55,22256],[55,22373],[55,22499],[55,22622],[52.3,22756],[49.5,22897],[48.4,23032],[47.7,23157],[46.7,23277],[46.4,23400],[44.6,23517],[42.1,23640],[41.5,23766],[41.5,23892],[41.5,24014],[41.5,24140],[41.3,24269],[41.1,24388],[41.1,24529],[41.1,24656],[39.7,24783],[34.4,24912],[28.4,25047],[26.1,25175],[25.8,25297],[25.4,25426],[25.3,25568],[24.2,25692],[22.7,25830],[22.1,25957],[22,26096],[22,26214],[22,26340],[22,26474],[22,26605],[22,26732],[22,26855],[22,26975],[22,27099],[22,27222],[22,27350],[22,27473],[22,27604],[22,27733],[21.5,27873],[21.3,27994],[21,28117],[20.9,28238],[20.7,28361],[20.7,28487],[20.7,28606],[20.6,28726],[20.6,28853],[20.6,28979],[20.6,29107],[20.6,29243],[20.6,29374],[20.6,29494],[20.6,29619],[20.6,29740],[20.6,29865],[20.6,29997],[20.6,30130],[20.6,30254],[20.6,30388],[20.6,30522],[20.6,30660],[20.6,30796],[20.6,30921],[20.6,31044],[20.6,31169],[20.6,31299],[20.6,31422],[20.6,31547],[20.6,31673],[20.6,31794],[28.8,31924],[50.9,32064],[57.4,32198],[67.4,32330],[72.1,32464],[73.9,32597],[76.8,32724],[79,32842],[80.8,32963],[81.6,33092],[83.4,33214],[85.5,33336],[86.3,33461],[86.3,33595],[86.8,33722],[86.9,33850],[86.9,33970],[87,34090],[87.2,34217],[87.2,34359],[87.2,34484],[87.3,34620],[87.9,34751],[88.9,34872],[89.3,34993],[89.4,35127],[90.3,35258],[90.5,35381],[90.6,35511],[90.6,35629],[90.6,35754],[90.6,35893],[90.6,36018],[90.4,36142],[90.4,36277],[90.4,36404],[90.4,36527],[90.4,36648],[90.4,36780],[90.3,36913],[91.7,37054],[92.8,37188],[94.2,37313],[94.9,37432],[95.4,37557],[96,37673],[96.1,37793],[96.1,37913],[96.1,38046],[96.1,38173],[96.1,38305],[96.1,38434],[96.1,38560],[96.1,38686],[96.1,38816],[96.1,38941],[96.1,39069],[96,39195],[96,39321],[95.9,39442],[95.9,39577],[95.9,39694],[95.7,39821],[95.6,39948],[95.6,40076],[95.6,40208],[95.6,40331],[95.6,40451],[95.6,40575],[95.6,40707],[95.6,40845],[95.6,40968],[95.6,41091],[95.6,41214],[95.6,41352],[95.6,41477],[95.6,41610],[95.6,41734],[95.6,41861],[95.6,41987],[95.6,42112],[95.6,42238],[95.6,42369],[95.6,42495],[95.6,42628],[95.6,42748],[95.6,42869],[95.6,42990],[95.6,43113],[98.5,43245],[100,43372],[100,43494],[100,43621],[100,43747],[99.8,43884],[99.7,44029],[99.7,44158],[99.7,44287],[99.7,44420],[99.7,44558],[99.7,44682],[99.7,44807],[99.7,44933],[99.7,45071],[99.7,45201],[99.7,45328],[99.7,45470],[99.7,45594],[99.7,45733],[99.7,45859],[99.7,45984],[99.7,46111],[99.7,46235],[99.7,46348],[99.7,46476],[99.7,46608],[99.7,46735],[99.7,46860],[99.6,46986],[99.6,47120],[99.6,47240],[99.6,47360],[99.6,47484],[99.6,47610],[99.6,47735],[99.6,47856],[99.6,47982],[99.6,48116],[99.6,48251],[99.6,48390],[99.6,48513],[99.6,48644],[99.6,48768],[99.6,48899],[99.6,49020],[99.6,49146],[99.6,49270],[99.6,49389],[99.6,49525],[99.6,49662],[99.6,49795],[99.6,49915],[99.6,50044],[99.6,50164],[99.6,50280],[99.6,50405],[99.6,50526],[99.6,50645],[99.6,50773],[99.6,50898],[99.6,51016],[99.6,51135],[99.6,51254],[99.6,51386],[99.6,51504],[99.6,51624],[99.6,51745],[99.6,51866],[99.6,52002],[99.6,52131],[99.6,52276],[99.6,52405],[99.6,52529],[99.6,52664],[99.6,52785],[99.6,52911],[99.6,53050],[99.6,53178],[99.6,53300],[99.6,53415],[99.6,53550],[99.6,53687],[99.6,53812],[99.6,53933],[99.6,54065],[99.6,54193],[97.7,54314],[97.1,54454],[97,54581],[96.5,54717],[96.4,54851],[95.6,54984],[95.6,55101],[95.6,55238],[95.6,55363],[95.6,55484],[95.6,55624],[95.6,55758],[95.6,55899],[95.6,56029],[95.6,56168]]",1,0,242.9909,250.1144,96.04166667,3.9435,"[{""rating"":96.04166666666667,""responseTime"":3.943499999999972}]",space,6.2974,,250.1145,Partially,50,250.1157,,,[],,0,1,1,1,1,audio/Narrative7Situation1.wav,audio/Narrative8Situation1.wav,audio/Narrative5Situation1.wav,audio/Narrative6Situation1.wav,2,5,5,2,2.9688,,,,,,,,,,,,,,,,,,,,,,,,,,,,,,,,,,,,,,
,,,,,,653932c48f1f4427af84a7f0,2024-02-08_12h48.24.020,group3.1-3.2-social-tom,2023.2.2,Win32,8.467400508,65c5074098b851296ff0b7ed,65c513a38162edf01ba94e0d,,,,,,,,,,,,,,,,,,,,,,,,,,,,,250.1158,1,audio/Narrative7Situation2.wav,253.1927,,253.1927,261.0014,"[[999,8],[999,135],[999,263],[999,400],[999,528],[999,649],[999,776],[999,912],[999,1037],[999,1157],[999,1280],[999,1405],[999,1538],[999,1673],[999,1811],[999,1942],[999,2062],[999,2189],[50.5,2318],[50.4,2443],[50.4,2575],[50.4,2706],[50.3,2840],[53.2,2966],[64,3089],[68.9,3221],[74.9,3348],[79.8,3476],[83.1,3599],[87.1,3739],[90.5,3864],[93.9,4004],[97,4130],[100,4260],[100,4393],[100,4508],[100,4629],[100,4754],[100,4887],[100,5017],[100,5133],[100,5257],[100,5377],[100,5495],[100,5619],[100,5740],[100,5859],[100,5979],[100,6107],[100,6223],[100,6344],[100,6464],[100,6595],[100,6714],[100,6832],[100,6948],[100,7074],[100,7199],[100,7322],[100,7444],[100,7561],[100,7682],[100,7808]]",1,0,261.0015,265.4882,100,3.3815,"[{""rating"":99.79166666666667,""responseTime"":2.721300000071494},{""rating"":100,""responseTime"":3.381500000000017}]",space,3.6728,,265.4883,Definitely yes,100,265.4907,,,[],,0,2,2,2,1,audio/Narrative7Situation2.wav,audio/Narrative8Situation2.wav,audio/Narrative5Situation2.wav,audio/Narrative6Situation2.wav,3,3,3,3,,,,,,,,,,,,,,,,,,,,,,,,,,,,,,,,,,,,,,,
,,,,,,653932c48f1f4427af84a7f0,2024-02-08_12h48.24.020,group3.1-3.2-social-tom,2023.2.2,Win32,8.467400508,65c5074098b851296ff0b7ed,65c513a38162edf01ba94e0d,,,,,,,,,,,,,,,,,,,,,,,,,,,,,265.4908,1,audio/Narrative7Situation3.wav,273.5846,,273.5847,283.1153,"[[999,9],[999,129],[999,266],[999,395],[999,527],[999,661],[999,794],[999,924],[999,1062],[999,1178],[999,1304],[999,1436],[999,1554],[999,1674],[999,1802],[999,1943],[50.3,2072],[49.2,2200],[49.2,2338],[49.7,2463],[49.9,2586],[49.9,2712],[50,2845],[50,2966],[50,3089],[50,3230],[50,3359],[50,3493],[50.1,3612],[50.2,3732],[50.1,3881],[50.1,3999],[49.5,4127],[49.5,4262],[49.2,4395],[48.9,4517],[48.8,4643],[47.5,4780],[46.3,4903],[44.7,5030],[43.5,5162],[43.5,5294],[43.4,5426],[43.4,5559],[43.4,5693],[43.4,5827],[43.4,5954],[43.4,6080],[43.4,6211],[43.4,6325],[43.4,6445],[43.4,6575],[43.4,6699],[43.6,6826],[46,6963],[51.1,7091],[56.9,7229],[60.2,7347],[65.6,7472],[73.3,7602],[79,7737],[84.6,7866],[88.6,7989],[89.5,8110],[90.7,8237],[93.4,8364],[94.8,8497],[94.8,8626],[95.1,8752],[95.1,8885],[95.1,9011],[95.1,9153],[95.1,9281],[95.1,9409],[94.7,9530]]",1,0,283.1154,287.7063,70.52083333,2.9982,"[{""rating"":73.33333333333334,""responseTime"":1.6546000000238905},{""rating"":70.52083333333333,""responseTime"":2.9982000000476887}]",space,3.7717,0.0002,287.7063,Definitely yes,100,287.7075,,,[],,0,3,3,3,1,audio/Narrative7Situation3.wav,audio/Narrative8Situation3.wav,audio/Narrative5Situation3.wav,audio/Narrative6Situation3.wav,8,4,3,5,,,,,,,,,,,,,,,,,,,,,,,,,,,,,,,,,,,,,,,
,,,,,,653932c48f1f4427af84a7f0,2024-02-08_12h48.24.020,group3.1-3.2-social-tom,2023.2.2,Win32,8.467400508,65c5074098b851296ff0b7ed,65c513a38162edf01ba94e0d,,,,,,,,,,,,,,,,,,,,,,,,,,,,,287.7077,1,audio/Narrative7Situation4.wav,290.7887,,290.7887,302.7127,"[[999,0],[999,120],[999,237],[999,363],[999,492],[999,620],[999,742],[999,870],[999,1003],[999,1137],[999,1275],[999,1401],[999,1519],[50,1652],[50.3,1785],[50.5,1919],[50.4,2050],[50.1,2183],[50.1,2309],[50,2442],[49.9,2565],[49.8,2685],[47,2807],[39.2,2934],[36.1,3060],[34.3,3193],[34.3,3315],[33.1,3436],[30.8,3564],[28.4,3690],[26.5,3823],[26.3,3942],[25.8,4064],[25.5,4186],[24.3,4305],[22.5,4436],[22.1,4559],[21.9,4683],[21.1,4816],[20.4,4940],[20.3,5063],[20.3,5184],[20.3,5315],[20.3,5436],[15.9,5562],[8,5687],[7.5,5808],[7.5,5950],[6.4,6084],[0.5,6205],[4,8084],[4,8204],[4.1,8331],[9.7,8464],[31.8,8592],[59.9,8724],[74,8857],[78.6,8984],[89.2,9112],[91.5,9238],[91.5,9366],[91.5,9492],[91.5,9620],[91.5,9752],[91.5,9888],[91.5,10008],[91.5,10148],[91.5,10282],[91.5,10406],[91.5,10536],[91.5,10662],[82.1,10787],[70.4,10924],[68.3,11046],[68.3,11177],[68.3,11295],[67.6,11418],[67.6,11545],[67.5,11671],[67.5,11799],[67.5,11923]]",1,0,302.7128,310.5326,59.375,6.4688,"[{""rating"":59.375,""responseTime"":6.468799999952353}]",space,7.0295,,310.5326,Partially,50,325.818,50,12.3036,"[{""rating"":50,""responseTime"":12.303600000023835}]",space,0,4,4,4,1,audio/Narrative7Situation4.wav,audio/Narrative8Situation4.wav,audio/Narrative5Situation4.wav,audio/Narrative6Situation4.wav,3,3,1,2,,,14.4991,,,,,,,,,,,,,,,,,,,,,,,,,,,,,,,,,,,,
,,,,,,653932c48f1f4427af84a7f0,2024-02-08_12h48.24.020,group3.1-3.2-social-tom,2023.2.2,Win32,8.467400508,65c5074098b851296ff0b7ed,65c513a38162edf01ba94e0d,,,,,,,,,,,,,,,,,,,,,,,,,,,,,325.8183,1,audio/Narrative7Situation5.wav,330.8842,,330.8842,339.6315,"[[999,8],[999,125],[999,247],[999,361],[999,496],[999,613],[999,738],[999,862],[999,997],[999,1118],[999,1251],[999,1376],[999,1499],[999,1614],[999,1750],[999,1869],[999,2005],[999,2117],[999,2245],[999,2377],[999,2499],[999,2631],[999,2756],[999,2889],[48.4,3026],[35.8,3161],[35.8,3282],[35.8,3408],[35.8,3533],[35.7,3656],[33.4,3780],[27.4,3914],[24.4,4042],[20.4,4173],[19.8,4301],[19.7,4433],[18.9,4551],[18.8,4675],[18.8,4794],[18.5,4919],[17.7,5061],[17.4,5187],[17.3,5321],[17.3,5446],[17.3,5567],[17.3,5696],[17.3,5826],[17.3,5954],[17.2,6074],[17.1,6200],[17.1,6318],[17.1,6444],[17.1,6580],[17.1,6718],[17.1,6840],[17.1,6966],[17.1,7087],[17.1,7208],[17.1,7336],[17.1,7469],[17.1,7597],[17.1,7725],[17.1,7850],[17.1,7973],[17.1,8107],[17.1,8234],[17.1,8367],[17.1,8487],[17.1,8614],[17.1,8747]]",1,0,339.6316,343.5836,0,2.8089,"[{""rating"":0,""responseTime"":2.808899999976177}]",space,3.1393,,343.5837,Partially,50,343.5849,,,[],,0,5,5,5,1,audio/Narrative7Situation5.wav,audio/Narrative8Situation5.wav,audio/Narrative5Situation5.wav,audio/Narrative6Situation5.wav,5,2,5,2,,,,,,,,,,,,,,,,,,,,,,,,,,,,,,,,,,,,,,,
,,,,,,653932c48f1f4427af84a7f0,2024-02-08_12h48.24.020,group3.1-3.2-social-tom,2023.2.2,Win32,8.467400508,65c5074098b851296ff0b7ed,65c513a38162edf01ba94e0d,,,,,,,,,,,,,,,,,,,,,,,,,,,,,343.5851,1,audio/Narrative7Situation6.wav,346.7004,,346.7004,356.8812,"[[999,0],[999,123],[999,241],[999,367],[999,492],[999,625],[999,756],[999,882],[999,1011],[999,1140],[999,1268],[999,1395],[999,1519],[999,1645],[999,1762],[999,1888],[999,2026],[999,2151],[999,2286],[999,2420],[999,2554],[59.9,2691],[66.6,2821],[68.2,2943],[69.3,3069],[71.5,3198],[73.3,3325],[76.8,3459],[77.9,3581],[78,3701],[78,3826],[78,3956],[78,4084],[78,4211],[78,4333],[78,4451],[77.9,4572],[77.9,4689],[77.8,4821],[77.8,4945],[77.8,5071],[77.8,5190],[77.8,5318],[77.8,5442],[77.8,5570],[77.8,5696],[77.8,5826],[77.8,5967],[77.8,6103],[77.5,6232],[77.3,6353],[77.3,6470],[76.6,6597],[71.5,6733],[68.4,6859],[67.8,6992],[67.8,7113],[67.8,7241],[67.8,7373],[67.8,7496],[67.8,7621],[67.8,7746],[67.8,7869],[67.8,7990],[67.8,8111],[67.8,8236],[67.8,8365],[67.8,8495],[67.8,8614],[66,8745],[61.6,8877],[59.3,9008],[57.4,9142],[57,9267],[56.1,9401],[56,9541],[56,9672],[56,9803],[56,9930],[56,10055],[56,10180]]",1,0,356.8813,359.4634,48.22916667,1.6298,"[{""rating"":48.229166666666664,""responseTime"":1.629799999952354}]",space,1.785,0,359.4634,Definitely yes,100,359.4651,,,[],,0,6,6,6,1,audio/Narrative7Situation6.wav,audio/Narrative8Situation6.wav,audio/Narrative5Situation6.wav,audio/Narrative6Situation6.wav,3,2,3,2,,,,,,,,,,,,,,,,,,,,,,,,,,,,,,,,,,,,,,,
,,,,,,653932c48f1f4427af84a7f0,2024-02-08_12h48.24.020,group3.1-3.2-social-tom,2023.2.2,Win32,8.467400508,65c5074098b851296ff0b7ed,65c513a38162edf01ba94e0d,,,,,,,,,,,,,,,,,,,,,,,,,,,,,359.4653,1,audio/Narrative7Situation7.wav,364.4703,,364.4703,381.8954,"[[47,496],[46.8,637],[46.8,769],[46.8,894],[46.8,1028],[46.8,1158],[47.1,1283],[47.1,1411],[47.1,1538],[47.1,1670],[47.1,1783],[47.1,1916],[47.1,2040],[47.1,2161],[47.1,2288],[47.1,2411],[47.1,2530],[47.1,2664],[47,2783],[46.8,2907],[46.7,3033],[46.7,3174],[46.7,3299],[46.7,3420],[46.7,3548],[46.7,3671],[46.7,3797],[46.5,3930],[44.4,4057],[38.9,4191],[35.1,4321],[31.6,4441],[29.9,4577],[29.4,4699],[29.2,4828],[29.1,4951],[29.1,5076],[29.1,5203],[29.1,5327],[29.1,5454],[29.1,5580],[29.1,5700],[29.1,5824],[29.1,5952],[29.1,6083],[29.1,6212],[29.1,6342],[29.1,6478],[29.1,6605],[29.1,6738],[34.6,6876],[42.4,7018],[51,7142],[58.1,7285],[65.9,7429],[72,7573],[74,7712],[76.9,7856],[79.1,7991],[81.8,8117],[84.3,8258],[87.8,8390],[90.7,8525],[94.6,8661],[97.1,8786],[98.8,8930],[100,9071],[100,9211],[100,9333],[100,9469],[100,9590],[100,9718],[100,9842],[99.9,9974],[99.7,10113],[99.7,10248],[99.7,10368],[99.5,10492],[99.5,10629],[99.5,10762],[99.4,10890],[99.2,11017],[99.2,11149],[99.2,11278],[99.2,11411],[99.2,11526],[99.2,11658],[99.2,11781],[99.2,11913],[99.2,12050],[99.2,12181],[99.2,12305],[99.2,12429],[99.2,12560],[99.2,12691],[99.2,12817],[99.2,12938],[99.2,13066],[99.2,13193],[99.3,13333],[99.4,13470],[99.7,13600],[99.9,13724],[100,13849],[100,13977],[100,14105],[100,14248],[100,14376],[100,14507],[100,14641],[100,14762],[100,14884],[100,15013],[100,15144],[100,15272],[100,15405],[100,15524],[100,15650],[99.9,15771],[99.8,15897],[99.8,16031],[99.8,16155],[100,16288],[100,16413],[100,16533],[100,16662],[100,16795],[100,16923],[100,17047],[100,17173],[100,17299],[100,17424]]",1,0,381.8954,385.4788,98.85416667,1.5841,"[{""rating"":98.85416666666667,""responseTime"":1.5841000000238523}]",space,2.8246,,385.4788,Definitely yes,100,385.4799,,,[],,0,7,7,7,1,audio/Narrative7Situation7.wav,audio/Narrative8Situation7.wav,audio/Narrative5Situation7.wav,audio/Narrative6Situation7.wav,5,3,4,5,,,,,,,,,,,,,,,,,,,,,,,,,,,,,,,,,,,,,,,
,,,,,,653932c48f1f4427af84a7f0,2024-02-08_12h48.24.020,group3.1-3.2-social-tom,2023.2.2,Win32,8.467400508,65c5074098b851296ff0b7ed,65c513a38162edf01ba94e0d,,,,,,,,,,,,,,,,,,,,,,,,,,,,,385.48,1,audio/Narrative7Situation8.wav,387.5934,,387.5935,397.8556,"[[97.1,1403],[79.7,1656],[79.2,1797],[80.5,1924],[80.7,2052],[81,2177],[81.1,2308],[81.1,2433],[81.1,2562],[81.1,2682],[81.1,2809],[80.6,2940],[80.4,3060],[80.3,3189],[80.2,3318],[80.2,3437],[80.2,3558],[80.2,3700],[80.2,3823],[80.2,3947],[80.2,4071],[79.4,4205],[79.1,4338],[79.1,4464],[79.1,4596],[79.1,4721],[78,4853],[77,4978],[76.1,5100],[74.7,5241],[74.5,5357],[74.2,5483],[73.9,5608],[73.9,5733],[73.9,5857],[73.9,5992],[73.9,6133],[73.9,6262],[73.9,6401],[73.9,6535],[70.2,6667],[68,6802],[67.9,6943],[67.9,7059],[67.9,7182],[67.9,7312],[67.9,7434],[67.9,7554],[67.9,7679],[68.5,7801],[69,7929],[70,8067],[71.1,8183],[72.8,8321],[74.5,8469],[75.7,8599],[76.6,8729],[77.5,8854],[78.1,8980],[78.5,9105],[79.2,9231],[79.5,9367],[79.6,9498],[79.6,9631],[79.6,9761],[79.6,9891],[79.6,10018],[79.6,10142],[79.6,10262]]",1,0,397.8557,401.4514,84.16666667,2.5537,"[{""rating"":90.52083333333334,""responseTime"":1.7577000000476914},{""rating"":84.16666666666667,""responseTime"":2.5537000000476837}]",space,2.816,,401.4515,Not at all,0,401.4534,,,[],,0,8,8,8,1,audio/Narrative7Situation8.wav,audio/Narrative8Situation8.wav,audio/Narrative5Situation8.wav,audio/Narrative6Situation8.wav,2,3,3,5,,,,,,,,,,,,,,,,,,,,,,,,,,,,,,,,,,,,,,,
,,,,,,653932c48f1f4427af84a7f0,2024-02-08_12h48.24.020,group3.1-3.2-social-tom,2023.2.2,Win32,8.467400508,65c5074098b851296ff0b7ed,65c513a38162edf01ba94e0d,,,,,,,,,,,,,,,,,,,,,,,,,,,,,401.4535,1,audio/Narrative7Situation9.wav,403.5651,,403.5652,412.5128,"[[999,0],[999,131],[999,250],[999,390],[999,531],[999,663],[999,799],[999,934],[999,1056],[999,1186],[999,1312],[999,1429],[999,1563],[999,1687],[999,1803],[999,1927],[999,2047],[999,2162],[999,2280],[999,2414],[999,2544],[999,2677],[999,2800],[70.9,2913],[71.9,3059],[72.8,3185],[74.1,3311],[75.2,3437],[75.8,3569],[76.4,3703],[79.6,3836],[82,3967],[82.3,4088],[82.3,4208],[82.3,4338],[82.3,4464],[82.3,4604],[82.8,4736],[82.8,4867],[82.8,4997],[82.8,5124],[82.8,5248],[82.7,5369],[82.7,5498],[82.4,5623],[82.1,5750],[81.9,5873],[81.3,6003],[78.3,6136],[77.5,6255],[76.9,6382],[75.9,6508],[74.7,6645],[73.6,6764],[72.9,6886],[71.6,7011],[69.9,7135],[67.7,7259],[65.7,7399],[64.4,7533],[63.4,7674],[63,7795],[62.8,7920],[62.8,8045],[62.8,8171],[61.9,8294],[60.1,8424],[59.3,8558],[56.9,8685],[53.2,8816],[51.3,8947]]",1,0,412.5129,414.6113,43.125,1.1423,"[{""rating"":43.125,""responseTime"":1.1423000000714865}]",space,1.243,,414.6113,Partially,50,414.6131,,,[],,0,9,9,9,1,audio/Narrative7Situation9.wav,audio/Narrative8Situation9.wav,audio/Narrative5Situation9.wav,audio/Narrative6Situation9.wav,2,3,3,4,,,,,,,,,,,,,,,,,,,,,,,,,,,,,,,,,,,,,,,
,,,,,,653932c48f1f4427af84a7f0,2024-02-08_12h48.24.020,group3.1-3.2-social-tom,2023.2.2,Win32,8.467400508,65c5074098b851296ff0b7ed,65c513a38162edf01ba94e0d,,,,,,,,,,,,,,,,,,,,,,,,,,,,,414.6133,1,audio/Narrative8Situation1.wav,419.6745,,419.6746,435.8777,"[[999,7],[999,133],[999,253],[999,377],[999,499],[999,626],[999,753],[999,877],[999,1002],[999,1134],[999,1262],[999,1390],[999,1517],[999,1641],[999,1763],[999,1884],[999,2009],[999,2139],[999,2253],[999,2384],[999,2518],[999,2639],[999,2772],[999,2892],[999,3016],[999,3143],[65.4,3272],[64,3398],[59.3,3519],[54,3644],[49.3,3773],[44.1,3903],[41.4,4033],[39.9,4157],[39.9,4283],[39.9,4402],[39.9,4533],[39.9,4653],[39.9,4791],[39.9,4926],[39.9,5045],[42.3,5174],[46.5,5297],[49.5,5422],[50,5540],[50.1,5682],[50.2,5815],[50.2,5942],[50.2,6068],[50.2,6194],[52.8,6321],[56.5,6446],[57.4,6571],[57.4,6703],[57.4,6831],[57.5,6951],[57.6,7081],[57.7,7208],[57.8,7332],[57.8,7472],[57.8,7591],[57.8,7718],[57.8,7845],[57.8,7967],[57.8,8083],[57.8,8202],[57.8,8334],[57.8,8459],[57.8,8579],[57.8,8706],[57.8,8823],[57.8,8947],[57.8,9071],[50.1,9208],[45.9,9353],[45.5,9492],[45.5,9615],[45.4,9741],[45.4,9858],[45.4,9991],[45.4,10112],[45.4,10237],[45.4,10367],[45.4,10506],[45.4,10640],[45.4,10766],[43.6,10893],[41.8,11022],[40,11148],[39.2,11266],[39.2,11388],[39.1,11511],[39.1,11642],[39.1,11778],[39.1,11896],[38.2,12028],[38.2,12150],[38.2,12272],[38.2,12407],[38.2,12526],[37.7,12658],[37.7,12788],[37.7,12910],[37.7,13036],[37.7,13159],[37.7,13285],[37.7,13410],[37.7,13532],[37.7,13658],[37.7,13783],[37.7,13903],[37.7,14036],[37.7,14163],[37.7,14302],[37.7,14435],[37.7,14557],[37.7,14690],[37.7,14810],[37.7,14936],[37.7,15063],[37.7,15187],[37.7,15322],[37.7,15441],[37.7,15566],[37.7,15690],[37.7,15818],[37.7,15953],[37.7,16077],[38,16202]]",1,0,435.8778,437.8338,49.89583333,0.9687,"[{""rating"":49.895833333333336,""responseTime"":0.9687000000476473}]",space,1.153,,437.8338,Partially,50,437.8349,,,[],,0,10,10,10,1,audio/Narrative8Situation1.wav,audio/Narrative7Situation1.wav,audio/Narrative6Situation1.wav,audio/Narrative5Situation1.wav,5,2,2,5,,,,,,,,,,,,,,,,,,,,,,,,,,,,,,,,,,,,,,,
,,,,,,653932c48f1f4427af84a7f0,2024-02-08_12h48.24.020,group3.1-3.2-social-tom,2023.2.2,Win32,8.467400508,65c5074098b851296ff0b7ed,65c513a38162edf01ba94e0d,,,,,,,,,,,,,,,,,,,,,,,,,,,,,437.8351,1,audio/Narrative8Situation2.wav,440.9239,,440.924,451.3734,"[[999,0],[999,124],[999,250],[999,379],[999,519],[999,644],[999,769],[999,900],[999,1021],[999,1153],[999,1286],[999,1405],[999,1527],[999,1656],[999,1795],[999,1928],[999,2066],[999,2199],[999,2324],[999,2448],[999,2569],[999,2684],[999,2818],[999,2936],[999,3071],[999,3192],[999,3314],[999,3427],[999,3551],[999,3693],[56.5,3827],[56.8,3965],[56.9,4094],[57.3,4217],[57.3,4337],[57.3,4465],[45.6,4599],[44.5,4741],[43.9,4883],[39.5,5010],[30.7,5143],[26.5,5270],[22.2,5398],[18,5519],[15.3,5646],[14.3,5779],[13.5,5913],[13.5,6038],[13.5,6166],[13.5,6289],[13.5,6420],[13.5,6555],[13.5,6675],[13.5,6804],[13.6,6925],[13.6,7049],[13.6,7172],[13.6,7298],[13.6,7425],[13.6,7548],[13.6,7663],[13.6,7786],[13.6,7908],[13.6,8028],[13.6,8151],[13.6,8277],[13.6,8404],[13.6,8526],[13.6,8649],[13.6,8775],[13.6,8896],[13.6,9021],[13.6,9152],[13.6,9276],[13.6,9410],[13.6,9528],[17.8,9657],[19.1,9793],[20.6,9921],[21.9,10062],[24.2,10191],[29.9,10323],[31.5,10449]]",1,0,451.3735,454.7659,10.83333333,2.0338,"[{""rating"":13.854166666666668,""responseTime"":1.230900000095403},{""rating"":10.833333333333334,""responseTime"":2.033800000071551}]",space,2.5941,,454.766,Partially,50,454.7669,,,[],,0,11,11,11,1,audio/Narrative8Situation2.wav,audio/Narrative7Situation2.wav,audio/Narrative6Situation2.wav,audio/Narrative5Situation2.wav,3,3,3,3,,,,,,,,,,,,,,,,,,,,,,,,,,,,,,,,,,,,,,,
,,,,,,653932c48f1f4427af84a7f0,2024-02-08_12h48.24.020,group3.1-3.2-social-tom,2023.2.2,Win32,8.467400508,65c5074098b851296ff0b7ed,65c513a38162edf01ba94e0d,,,,,,,,,,,,,,,,,,,,,,,,,,,,,454.767,1,audio/Narrative8Situation3.wav,458.7816,,458.7816,481.4709,"[[999,8],[999,143],[999,261],[999,381],[999,507],[999,620],[999,753],[999,887],[999,1008],[999,1131],[999,1256],[999,1389],[999,1521],[999,1639],[42.9,1767],[23.2,2041],[17.1,2180],[16.6,2309],[16.6,2432],[16.6,2555],[16.7,2683],[16.7,2814],[16.7,2935],[16.7,3050],[16.7,3176],[16.7,3308],[16.7,3434],[16.7,3572],[16.7,3699],[16.7,3823],[16.7,3957],[16.7,4077],[16.7,4202],[16.7,4336],[19.1,4461],[31.5,4590],[40.2,4731],[43,4861],[43.9,4994],[51.5,5122],[54.2,5248],[55.7,5370],[57.6,5504],[57.6,5634],[57.6,5757],[57.7,5884],[60.3,6008],[62.7,6131],[65.7,6263],[68.2,6423],[68.8,6552],[69.1,6673],[69.1,6799],[69.1,6926],[69.1,7045],[69.1,7164],[69.1,7291],[69.1,7421],[69.1,7541],[69.1,7666],[69.1,7797],[69.1,7925],[69.1,8043],[69.1,8168],[69.1,8292],[69.1,8414],[69.1,8533],[69.1,8654],[69.1,8779],[69.4,8900],[71.9,9034],[74.1,9167],[74.1,9300],[74.1,9416],[74.1,9538],[74.1,9657],[74.1,9784],[74.1,9913],[74.1,10033],[74.8,10158],[75.7,10279],[75.7,10400],[75.7,10522],[75.7,10657],[75.7,10778],[75.7,10910],[75.7,11025],[75.7,11146],[75.7,11271],[75.7,11397],[75.7,11524],[75.7,11651],[75.7,11778],[75.7,11898],[75.7,12023],[75.7,12144],[75.7,12268],[75.7,12395],[75.7,12521],[75.7,12646],[75.7,12769],[75.7,12893],[75.7,13019],[77.5,13144],[78.6,13260],[78.8,13381],[78.8,13501],[78.8,13628],[78.8,13752],[78.8,13877],[78.8,14002],[78.8,14130],[78.8,14255],[78.8,14382],[78.8,14510],[78.8,14648],[78.8,14776],[78.8,14902],[78.8,15043],[78.8,15185],[78.8,15320],[78.8,15458],[78.8,15586],[78.8,15722],[78.8,15863],[78.8,15997],[78.8,16126],[78.8,16247],[78.8,16370],[78.8,16488],[78.8,16614],[78.8,16740],[78.8,16872],[78.8,16992],[78.8,17118],[78.8,17251],[78.8,17382],[78.8,17503],[78.8,17635],[78.8,17755],[78.8,17886],[78.8,18007],[78.8,18139],[81.6,18267],[87,18400],[88.4,18526],[89.3,18653],[90.4,18778],[91.4,18907],[91.4,19028],[92.5,19152],[94.2,19275],[94.6,19400],[96.9,19534],[98.1,19650],[99,19783],[99,19907],[99,20037],[99.5,20164],[99.5,20289],[99.8,20413],[100,20538],[100,20665],[100,20791],[100,20917],[100,21042],[100,21168],[100,21291],[100,21425],[100,21550],[100,21683],[100,21805],[100,21925],[100,22056],[100,22181],[100,22306],[100,22438],[100,22561],[100,22689]]",1,0,481.4709,484.2768,99.16666667,0.9599,"[{""rating"":99.16666666666667,""responseTime"":0.959900000095331}]",space,2.004,0.0002,484.2768,Definitely yes,100,484.2783,,,[],,0,12,12,12,1,audio/Narrative8Situation3.wav,audio/Narrative7Situation3.wav,audio/Narrative6Situation3.wav,audio/Narrative5Situation3.wav,4,8,5,3,,,,,,,,,,,,,,,,,,,,,,,,,,,,,,,,,,,,,,,
,,,,,,653932c48f1f4427af84a7f0,2024-02-08_12h48.24.020,group3.1-3.2-social-tom,2023.2.2,Win32,8.467400508,65c5074098b851296ff0b7ed,65c513a38162edf01ba94e0d,,,,,,,,,,,,,,,,,,,,,,,,,,,,,484.2785,1,audio/Narrative8Situation4.wav,487.311,,487.3111,501.7087,"[[999,0],[999,117],[999,252],[999,370],[999,504],[999,637],[999,762],[999,885],[999,1018],[999,1143],[999,1270],[999,1414],[999,1550],[58.2,1672],[55,1805],[52.4,1940],[48.4,2065],[41.8,2201],[34.8,2323],[33.3,2450],[33.3,2574],[39.3,2713],[68.2,2850],[72.9,2985],[74.1,3120],[74.1,3247],[74.3,3372],[76.3,3495],[77.1,3615],[78.5,3736],[79.1,3858],[79.4,3996],[79.4,4119],[79.4,4244],[79.4,4364],[79.4,4488],[79.4,4609],[79.4,4736],[79.4,4865],[79.4,4998],[79.4,5124],[79.4,5251],[79.4,5378],[79.4,5504],[79.4,5626],[79.4,5761],[79.4,5885],[79.4,6024],[79.4,6159],[79.4,6284],[79.4,6404],[79.4,6524],[79.4,6664],[79.4,6788],[79.4,6919],[79.4,7054],[79.4,7182],[79.4,7301],[79.4,7434],[79.4,7554],[79.4,7686],[79.4,7799],[79.4,7929],[79.4,8059],[79.4,8184],[79.4,8305],[79.4,8437],[79.4,8564],[79.4,8697],[79.4,8822],[79.4,8955],[79.4,9088],[79.4,9208],[79.4,9332],[79.4,9466],[79.4,9595],[79.4,9721],[79.4,9845],[79.4,9976],[79.4,10099],[79.4,10226],[79.4,10351],[79.4,10476],[79.4,10596],[79.4,10720],[79.4,10848],[79.4,10981],[79.4,11110],[79.4,11235],[79.4,11354],[79.4,11480],[79.4,11606],[79.4,11729],[79.4,11854],[79.4,11992],[79.4,12117],[79.4,12246],[79.4,12372],[79.4,12499],[79.4,12630],[79.4,12752],[79.4,12876],[79.4,13001],[79.4,13121],[79.4,13262],[79.4,13392],[79.4,13514],[79.4,13636],[79.4,13770],[79.4,13895],[79.4,14017],[79.4,14142],[79.4,14263],[79.6,14397]]",1,0,501.7087,503.8025,84.27083333,1.0134,"[{""rating"":84.27083333333334,""responseTime"":1.0133999999761727}]",space,1.24,,503.8025,Not at all,0,503.8042,,,[],,0,13,13,13,1,audio/Narrative8Situation4.wav,audio/Narrative7Situation4.wav,audio/Narrative6Situation4.wav,audio/Narrative5Situation4.wav,3,3,2,1,,,,,,,,,,,,,,,,,,,,,,,,,,,,,,,,,,,,,,,
,,,,,,653932c48f1f4427af84a7f0,2024-02-08_12h48.24.020,group3.1-3.2-social-tom,2023.2.2,Win32,8.467400508,65c5074098b851296ff0b7ed,65c513a38162edf01ba94e0d,,,,,,,,,,,,,,,,,,,,,,,,,,,,,503.8043,1,audio/Narrative8Situation5.wav,505.8474,,505.8475,514.4097,"[[999,0],[999,131],[999,251],[999,375],[999,498],[999,638],[999,766],[999,887],[999,1014],[999,1136],[999,1266],[999,1397],[999,1521],[68.9,1650],[67.4,1778],[57.3,1900],[56.4,2021],[56.4,2154],[56.4,2275],[56.4,2404],[67.2,2531],[70.6,2659],[70.6,2785],[70.6,2908],[70.6,3035],[70.6,3152],[70.6,3283],[71.1,3408],[73,3550],[74.9,3681],[74.9,3804],[74.9,3928],[74.9,4048],[74.9,4174],[74.9,4294],[74.9,4416],[74.9,4544],[74.9,4671],[74.9,4797],[74.9,4928],[74.9,5054],[74.9,5180],[74.9,5306],[74.9,5425],[74.9,5543],[74.9,5663],[74.9,5792],[74.9,5925],[74.9,6059],[74.9,6180],[74.9,6297],[74.9,6417],[74.9,6541],[74.9,6664],[74.9,6782],[74.9,6898],[74.9,7024],[74.9,7152],[74.9,7274],[74.9,7403],[74.9,7532],[74.9,7662],[74.9,7792],[74.9,7909],[74.9,8033],[74.9,8159],[74.9,8289],[76,8426],[79.2,8562]]",1,0,514.4098,523.9759,96.97916667,1.2221,"[{""rating"":96.97916666666666,""responseTime"":1.2221000000238291}]",space,8.7554,,523.976,Partially,50,523.9873,,,[],,0,14,14,14,1,audio/Narrative8Situation5.wav,audio/Narrative7Situation5.wav,audio/Narrative6Situation5.wav,audio/Narrative5Situation5.wav,2,5,2,5,,,,,,,,,,,,,,,,,,,,,,,,,,,,,,,,,,,,,,,
,,,,,,653932c48f1f4427af84a7f0,2024-02-08_12h48.24.020,group3.1-3.2-social-tom,2023.2.2,Win32,8.467400508,65c5074098b851296ff0b7ed,65c513a38162edf01ba94e0d,,,,,,,,,,,,,,,,,,,,,,,,,,,,,523.9875,1,audio/Narrative8Situation6.wav,526.0315,,526.0316,532.7219,"[[999,0],[999,118],[999,241],[999,364],[999,483],[999,610],[999,733],[999,852],[999,971],[999,1106],[999,1229],[999,1363],[999,1489],[999,1617],[999,1739],[999,1868],[999,2000],[999,2126],[999,2249],[999,2372],[999,2492],[999,2618],[999,2734],[999,2867],[999,2994],[999,3115],[999,3239],[999,3358],[999,3484],[999,3618],[999,3750],[999,3886],[999,4011],[999,4128],[999,4247],[999,4373],[999,4494],[999,4623],[999,4760],[84.9,4879],[77.9,5012],[62.9,5142],[52.2,5270],[45.4,5399],[40,5526],[34.5,5660],[28.6,5793],[26.6,5917],[24.3,6051],[22.8,6185],[22,6304],[21.5,6439],[21.5,6566],[21.5,6690]]",1,0,532.7219,538.492,11.875,4.5919,"[{""rating"":15.000000000000002,""responseTime"":2.6952999999522262},{""rating"":11.875000000000002,""responseTime"":4.591899999976135}]",space,4.9892,,538.492,Not at all,0,538.4936,,,[],,0,15,15,15,1,audio/Narrative8Situation6.wav,audio/Narrative7Situation6.wav,audio/Narrative6Situation6.wav,audio/Narrative5Situation6.wav,2,3,2,3,,,,,,,,,,,,,,,,,,,,,,,,,,,,,,,,,,,,,,,
,,,,,,653932c48f1f4427af84a7f0,2024-02-08_12h48.24.020,group3.1-3.2-social-tom,2023.2.2,Win32,8.467400508,65c5074098b851296ff0b7ed,65c513a38162edf01ba94e0d,,,,,,,,,,,,,,,,,,,,,,,,,,,,,538.4937,1,audio/Narrative8Situation7.wav,541.5005,,541.5006,553.8428,"[[15.9,656],[19.4,785],[22.7,916],[26.7,1052],[27,1178],[27,1299],[27,1436],[27,1562],[27,1688],[27,1801],[29.6,1925],[31.5,2052],[31.5,2176],[32.1,2309],[39,2450],[39.1,2584],[33.6,2708],[11.3,2832],[10,2954],[10.1,3089],[21.5,3228],[36.1,3361],[53.1,3499],[67.6,3635],[71.9,3758],[72.9,3884],[73,4006],[73,4131],[73,4245],[73,4373],[73,4501],[73,4625],[73,4749],[73.2,4883],[73.2,5007],[73.2,5136],[73.2,5273],[73.2,5397],[73.2,5524],[73.2,5651],[73.2,5776],[73.2,5900],[73.2,6020],[73.2,6144],[73.9,6269],[73.9,6385],[73.9,6518],[74,6635],[74.2,6761],[74.2,6882],[74.2,7005],[74.2,7140],[74.2,7269],[74.2,7394],[74.2,7527],[74.2,7660],[74.2,7780],[74.2,7900],[74.2,8018],[74.2,8152],[74.2,8286],[74.2,8427],[74.2,8567],[74.2,8691],[74.2,8817],[74.2,8944],[74.2,9074],[74.2,9201],[74.2,9325],[74.2,9466],[74.2,9591],[74.2,9714],[74.2,9843],[74.2,9963],[74.2,10084],[74.2,10210],[74.2,10332],[74.2,10461],[74.2,10581],[74.2,10717],[74.2,10841],[74.2,10963],[74.2,11097],[74.2,11222],[74.2,11343],[74.2,11464],[74.2,11598],[74.2,11720],[74.2,11840],[74.2,11960],[74.2,12083],[74.2,12207],[75.4,12342]]",1,0,553.8429,556.0292,92.70833333,1.5163,"[{""rating"":92.70833333333333,""responseTime"":1.5162999999523663}]",space,1.3758,,556.0292,Definitely yes,100,556.0307,,,[],,0,16,16,16,1,audio/Narrative8Situation7.wav,audio/Narrative7Situation7.wav,audio/Narrative6Situation7.wav,audio/Narrative5Situation7.wav,3,5,5,4,,,,,,,,,,,,,,,,,,,,,,,,,,,,,,,,,,,,,,,
,,,,,,653932c48f1f4427af84a7f0,2024-02-08_12h48.24.020,group3.1-3.2-social-tom,2023.2.2,Win32,8.467400508,65c5074098b851296ff0b7ed,65c513a38162edf01ba94e0d,,,,,,,,,,,,,,,,,,,,,,,,,,,,,556.0309,1,audio/Narrative8Situation8.wav,559.0619,,559.062,572.216,"[[82.1,125],[80.2,253],[76.4,510],[75.9,640],[68.5,5390],[36,5784],[25.1,5927],[19.3,6064],[19.3,6183],[19.3,6308],[19.3,6448],[19.3,6578],[19.3,6698],[19.3,6822],[19.3,6947],[19.3,7070],[19.3,7209],[19.3,7334],[19.3,7459],[19.3,7583],[19.2,7714],[19.2,7836],[19.2,7962],[19.2,8092],[19.2,8217],[19.1,8349],[19.1,8479],[19.1,8605],[19.1,8723],[19.1,8857],[19.1,8990],[19.1,9123],[19.1,9251],[19.1,9385],[19.1,9508],[19.1,9650],[19.1,9777],[19.1,9908],[19.1,10035],[19.1,10161],[19.1,10286],[19.1,10419],[19.1,10542],[19.1,10676],[19.1,10801],[19.1,10941],[19.1,11072],[19.1,11204],[19.1,11330],[19.1,11458],[19.1,11591],[20.8,11718],[24.4,11856],[28.2,11989],[33.4,12114],[36.8,12248],[42.4,12389],[42.4,12506],[42.5,12630],[43,12761],[43.1,12898],[43.1,13023],[43.1,13153]]",1,0,572.2161,574.4086,53.75,1.5196,"[{""rating"":53.75,""responseTime"":1.5196000000238428}]",space,1.3637,,574.4086,Definitely yes,100,574.4096,,,[],,0,17,17,17,1,audio/Narrative8Situation8.wav,audio/Narrative7Situation8.wav,audio/Narrative6Situation8.wav,audio/Narrative5Situation8.wav,3,2,5,3,,,,,,,,,,,,,,,,,,,,,,,,,,,,,,,,,,,,,,,
,,,,,,653932c48f1f4427af84a7f0,2024-02-08_12h48.24.020,group3.1-3.2-social-tom,2023.2.2,Win32,8.467400508,65c5074098b851296ff0b7ed,65c513a38162edf01ba94e0d,,,,,,,,,,,,,,,,,,,,,,,,,,,,,574.4097,1,audio/Narrative8Situation9.wav,577.5358,,577.5358,589.134,"[[999,0],[999,135],[999,254],[999,384],[999,515],[999,653],[999,773],[999,903],[999,1028],[999,1157],[999,1285],[999,1425],[999,1541],[999,1663],[999,1796],[999,1936],[40.4,2075],[39.5,2204],[39.2,2338],[33,2468],[29.9,2600],[29.9,2722],[29.9,2847],[29.9,2974],[29.9,3099],[30.8,3224],[30.9,3346],[30.9,3478],[30.9,3608],[30.9,3731],[30.9,3852],[31.1,3992],[31.1,4127],[31.1,4244],[31.1,4365],[30.4,4498],[29.6,4623],[44.4,4754],[58.2,4890],[64.2,5029],[65.8,5154],[67.5,5277],[68.5,5402],[71.9,5524],[74.1,5658],[77.3,5790],[79.9,5912],[80,6041],[80,6156],[80,6284],[80,6417],[80,6536],[80,6661],[80,6777],[80,6904],[80,7030],[80,7150],[80,7283],[80,7406],[80,7534],[80,7656],[80,7793],[80,7920],[80,8039],[80,8180],[80,8300],[80,8432],[80,8564],[80,8680],[78.5,8805],[78.5,8931],[78.5,9055],[78.5,9170],[78.5,9294],[78.6,9425],[78.6,9546],[78.6,9671],[78.6,9797],[78.6,9917],[78.6,10050],[78.6,10176],[78.6,10305],[78.6,10445],[74.7,10569],[61.5,10702],[59.2,10825],[59.2,10948],[60,11077],[63.5,11205],[66.6,11328],[68.1,11461],[68.2,11597]]",1,0,589.1341,591.0038,68.95833333,0.9089,"[{""rating"":68.95833333333333,""responseTime"":0.9088999999762564}]",space,1.0851,9.99999E-05,591.0038,Definitely yes,100,591.0049,,,[],,0,18,18,18,1,audio/Narrative8Situation9.wav,audio/Narrative7Situation9.wav,audio/Narrative6Situation9.wav,audio/Narrative5Situation9.wav,3,2,4,3,,,,,,,,,,,,,,,,,,,,,,,,,,,,,,,,,,,,,,,
,,,,,,653932c48f1f4427af84a7f0,2024-02-08_12h48.24.020,group3.1-3.2-social-tom,2023.2.2,Win32,8.467400508,65c5074098b851296ff0b7ed,65c513a38162edf01ba94e0d,,,,,,,,,,,,,,,,,,,,,,,,,,,650.9963,653.5194,653.5295,2,audio/Narrative13Situation2.wav,653.5295,,653.5295,683.4652,"[[55.3,3837],[37.9,3977],[26,4104],[13.5,4233],[12.5,4363],[11.1,4489],[11,4609],[11,4731],[9.7,4859],[9.7,4983],[9.7,5105],[9.7,5248],[9.7,5379],[9.7,5508],[9.7,5630],[9.7,5753],[9.7,5879],[9.7,6004],[9.7,6123],[9.7,6258],[9.7,6378],[9.7,6504],[9.7,6625],[9.7,6744],[9.7,6876],[9.7,6994],[9.7,7119],[9.7,7247],[9.7,7367],[9.7,7499],[9.7,7623],[9.7,7749],[9.7,7869],[9.7,7999],[9.7,8127],[9.7,8258],[9.7,8386],[9.7,8512],[9.7,8627],[9.7,8745],[9.7,8873],[9.7,9003],[9.7,9136],[9.7,9267],[9.7,9399],[9.7,9523],[25.8,9663],[55.8,9948],[85.9,10335],[86,10462],[88.1,10594],[88.4,10719],[88.4,10851],[88.4,10986],[88.4,11110],[88.4,11239],[88.4,11364],[88.4,11503],[88.4,11628],[88.4,11747],[88.4,11867],[88.4,11982],[88.4,12114],[88.4,12241],[88.4,12357],[88.4,12476],[88.4,12604],[88.4,12734],[88.4,12857],[88.4,12982],[88.4,13111],[88.4,13238],[88.4,13360],[88.4,13486],[88.4,13606],[88.4,13727],[92.4,13849],[95.5,13969],[95.5,14093],[95.5,14213],[95.5,14339],[95.5,14479],[95.5,14601],[95.5,14736],[95.5,14851],[95.7,14976],[95.7,15102],[95.9,15238],[95.9,15361],[95.9,15480],[96,15620],[96.1,15753],[96.1,15885],[96.1,16019],[96.1,16139],[96.1,16262],[92.7,16383],[87.9,16507],[85.8,16634],[85.5,16755],[85.5,16896],[85.8,17019],[86.1,17146],[86.3,17279],[86.3,17403],[86.3,17522],[86.3,17641],[86.3,17770],[86.3,17898],[86.3,18025],[86.3,18151],[86.3,18277],[80.2,18409],[78,18535],[76,18661],[75.5,18784],[75.4,18908],[75.4,19038],[75.4,19168],[75.3,19297],[75.3,19421],[75.3,19545],[75.3,19667],[72.6,19800],[70.3,19919],[70.1,20039],[68.3,20171],[67.5,20295],[66.9,20423],[66.9,20553],[66.9,20686],[66.9,20811],[66.9,20937],[66.9,21069],[66.9,21201],[66.9,21326],[66.9,21450],[66.9,21582],[66.9,21709],[66.9,21842],[66.9,21961],[66.9,22086],[66.9,22227],[66.9,22346],[66.9,22478],[66.9,22603],[66.9,22737],[66.9,22860],[66.9,22984],[66.9,23123],[66.9,23245],[66.9,23365],[66.9,23486],[66.9,23604],[66.9,23737],[66.9,23864],[66.9,23986],[66.9,24110],[66.9,24239],[66.9,24365],[66.9,24489],[66.9,24622],[66.9,24755],[66.9,24879],[66.9,25010],[66.9,25135],[66.9,25268],[66.9,25390],[66.9,25510],[66.9,25634],[66.9,25755],[66.9,25878],[66.9,25997],[66.9,26116],[66.9,26244],[66.9,26370],[66.9,26503],[66.9,26641],[66.9,26763],[66.9,26883],[66.9,27016],[66.9,27142],[66.9,27267],[66.9,27386],[66.9,27519],[66.9,27635],[66.9,27767],[66.9,27891],[66.9,28022],[66.9,28142],[66.9,28281],[66.9,28401],[66.9,28531],[66.9,28656],[66.8,28787],[66.8,28922],[66.8,29039],[66.8,29175],[66.8,29294],[66.8,29424],[66.7,29563],[64.1,29696],[64,29813],[63.5,29935]]",1,0,683.4653,683.4663,,,[],,,,683.4663,Definitely yes,100,683.4671,,,[],,0,0,0,0,1,audio/Narrative13Situation2.wav,audio/Narrative13Situation2.wav,audio/Narrative13Situation2.wav,audio/Narrative13Situation2.wav,2,2,2,2,,,,,591.0055,650.9883,,,,,,,,,,,,,,,,,,,,,,,,,,,,,,,,,
,,,,,,653932c48f1f4427af84a7f0,2024-02-08_12h48.24.020,group3.1-3.2-social-tom,2023.2.2,Win32,8.467400508,65c5074098b851296ff0b7ed,65c513a38162edf01ba94e0d,,,,,,,,,,,,,,,,,,,,,,,,,,,,,683.4673,2,audio/Narrative5Situation1.wav,688.4971,,688.4971,702.0574,"[[64.7,1671],[64.7,1786],[64.7,1918],[64.7,2040],[64.7,2160],[64.7,2285],[64.7,2404],[64.7,2530],[64.7,2661],[64.7,2798],[64.7,2935],[64.7,3062],[64.7,3188],[64.7,3314],[64.7,3442],[64.7,3569],[64.7,3691],[64.7,3813],[64.7,3934],[64.7,4068],[64.7,4184],[64.7,4304],[64.7,4425],[64.7,4566],[64.7,4692],[64.7,4812],[64.7,4937],[64.7,5062],[64.7,5181],[64.7,5306],[64.7,5419],[64.7,5545],[53.1,5684],[43.3,5814],[42.6,5936],[42.6,6052],[42.6,6176],[42.6,6303],[35.3,6433],[29,6568],[26.7,6691],[26.4,6822],[26.3,6954],[26.3,7074],[26.5,7199],[26.5,7341],[26.5,7472],[26.5,7604],[26.5,7733],[26.5,7858],[26.5,7980],[26.5,8103],[24.9,8241],[20,8384],[17.3,8534],[17.3,8678],[17.2,8823],[17.2,8965],[17.2,9108],[17.2,9251],[17.2,9393],[16.9,9535],[16.6,9675],[16.6,9821],[16.6,9961],[36.3,10109],[55.6,10257],[65.1,10407],[71.1,10551],[77.2,10700],[80.1,10845],[84.7,10990],[88.5,11137],[89.6,11281],[89.6,11425],[89.6,11567],[89.6,11706],[91.4,11852],[95.2,11993],[95.3,12135],[95.3,12287],[95.4,12432],[95.5,12576],[95.5,12716],[95.5,12854],[95.5,12999],[95.5,13137],[95.5,13275],[95.5,13421],[95.5,13560]]",1,0,702.0575,708.4428,89.79166667,4.7041,"[{""rating"":82.91666666666666,""responseTime"":3.2816000000237864},{""rating"":89.79166666666667,""responseTime"":4.7041000000238}]",space,5.5183,,708.4428,Not at all,0,708.4452,,,[],,0,1,1,1,1,audio/Narrative7Situation1.wav,audio/Narrative8Situation1.wav,audio/Narrative5Situation1.wav,audio/Narrative6Situation1.wav,2,5,5,2,,,,,,,,,,,,,,,,,,,,,,,,,,,,,,,,,,,,,,,
,,,,,,653932c48f1f4427af84a7f0,2024-02-08_12h48.24.020,group3.1-3.2-social-tom,2023.2.2,Win32,8.467400508,65c5074098b851296ff0b7ed,65c513a38162edf01ba94e0d,,,,,,,,,,,,,,,,,,,,,,,,,,,,,708.4454,2,audio/Narrative5Situation2.wav,711.4951,,711.4952,741.1781,"[[999,0],[999,124],[999,254],[999,384],[999,503],[999,633],[999,757],[999,877],[999,1009],[54.9,1149],[54.6,1268],[54.3,1402],[54.2,1526],[47.5,1662],[34.5,1798],[25.5,1934],[24.5,2069],[24.5,2211],[24.5,2345],[24.4,2463],[24.4,2584],[24.4,2708],[24.3,2832],[23.3,2965],[22,3104],[21.5,3236],[19.7,3376],[18.6,3502],[17.5,3629],[17.4,3743],[17.4,3863],[16,4002],[15.5,4132],[15.4,4252],[15.4,4380],[15.4,4499],[15.4,4616],[15.4,4741],[15.4,4869],[15.4,4986],[15.4,5112],[15.4,5235],[15.4,5359],[15.4,5502],[15.4,5634],[17.7,5761],[44.5,5894],[58.2,6023],[65.5,6156],[72,6284],[78.4,6421],[79.7,6547],[81.5,6678],[82.3,6808],[82.6,6935],[82.7,7056],[82.7,7181],[82.7,7309],[82.7,7438],[82.7,7563],[82.7,7685],[83.6,7805],[84.3,7932],[84.3,8064],[84.3,8187],[84.3,8316],[84.3,8440],[84.3,8563],[84.3,8695],[84.3,8818],[84.3,8950],[84.3,9076],[84.3,9206],[84.3,9340],[84.3,9473],[84.3,9597],[84.3,9721],[84.3,9847],[84.3,9968],[84.3,10099],[84.3,10239],[84.3,10372],[84.3,10497],[84.3,10622],[84.3,10755],[84.3,10880],[84.3,11004],[84.3,11125],[83,11247],[77.8,11375],[73.1,11500],[69.6,11621],[67.5,11752],[66.7,11888],[66.6,12013],[66.6,12140],[65.2,12261],[64.9,12386],[64.2,12505],[64.2,12637],[64.4,12757],[64.4,12889],[64.4,13016],[64.4,13142],[64.4,13269],[64.4,13403],[64.4,13525],[64.4,13646],[64.4,13770],[64.4,13901],[64.4,14026],[64.4,14143],[64.4,14271],[64.4,14394],[64.4,14535],[64.4,14666],[64.4,14788],[64.4,14921],[64.4,15051],[64.4,15175],[64.4,15302],[64.4,15434],[64.4,15562],[64.4,15689],[64.4,15825],[64.4,15950],[64.4,16084],[64.4,16221],[64.4,16358],[64.4,16481],[64.4,16607],[64.4,16732],[64.4,16852],[64.4,16974],[64.4,17095],[64.4,17221],[64.4,17349],[64.4,17472],[64.4,17610],[64.4,17736],[64.4,17862],[64.4,17980],[64.4,18100],[64.4,18232],[64.4,18361],[64.4,18489],[64.4,18614],[64.4,18741],[64.4,18860],[64.4,18982],[64.4,19115],[64.4,19232],[64.4,19368],[64.4,19495],[64.4,19620],[64.4,19741],[64.4,19867],[64.4,19993],[64.4,20115],[64.4,20236],[63.6,20363],[61.9,20496],[55.9,20631],[51.9,20756],[51.4,20882],[50.6,21009],[50.6,21135],[50.6,21268],[50.6,21403],[50.6,21530],[50.6,21652],[50.6,21784],[50.6,21902],[50.6,22029],[50.6,22154],[50.8,22280],[50.8,22408],[50.8,22532],[50.8,22652],[50.8,22769],[50.8,22901],[50.8,23020],[50.8,23145],[50.8,23269],[50.8,23389],[50.8,23529],[50.8,23651],[50.8,23772],[50.8,23896],[50.8,24026],[50.8,24156],[50.8,24282],[50.8,24411],[50.8,24545],[50.8,24681],[51.4,24806],[52.7,24927],[53.2,25062],[55.6,25192],[55.6,25325],[55.6,25451],[55.6,25586],[55.6,25702],[55.8,25837],[56,25975],[56,26096],[56,26227],[56,26358],[56,26481],[56,26616],[56,26740],[56,26865],[56,26984],[56,27114],[56,27245],[56,27365],[57,27489],[58.3,27622],[58.4,27768],[58.4,27895],[58.4,28020],[58.4,28135],[58.3,28256],[58.3,28379],[58.3,28509],[58.3,28634],[58.3,28756],[58.3,28893],[58.3,29028],[58.3,29168],[58.3,29293],[58.3,29433],[58.3,29559],[58.3,29682]]",1,0,741.1783,743.6542,61.04166667,0.9596,"[{""rating"":61.04166666666666,""responseTime"":0.9595999999046398}]",space,1.6637,,743.6543,Partially,50,743.656,,,[],,0,2,2,2,1,audio/Narrative7Situation2.wav,audio/Narrative8Situation2.wav,audio/Narrative5Situation2.wav,audio/Narrative6Situation2.wav,3,3,3,3,,,,,,,,,,,,,,,,,,,,,,,,,,,,,,,,,,,,,,,
,,,,,,653932c48f1f4427af84a7f0,2024-02-08_12h48.24.020,group3.1-3.2-social-tom,2023.2.2,Win32,8.467400508,65c5074098b851296ff0b7ed,65c513a38162edf01ba94e0d,,,,,,,,,,,,,,,,,,,,,,,,,,,,,743.6561,2,audio/Narrative5Situation3.wav,746.7208,,746.7208,760.9078,"[[999,8],[999,132],[999,257],[999,378],[999,503],[999,633],[999,752],[999,881],[999,1013],[999,1126],[999,1245],[999,1369],[999,1490],[999,1609],[999,1729],[999,1859],[999,1991],[999,2122],[999,2251],[999,2370],[999,2493],[999,2629],[999,2753],[999,2874],[999,2996],[999,3135],[999,3257],[999,3375],[999,3504],[999,3622],[999,3742],[999,3866],[999,4004],[999,4138],[999,4266],[999,4385],[999,4505],[999,4631],[999,4761],[999,4885],[999,5010],[999,5129],[999,5250],[999,5384],[73,5519],[79.1,5655],[80.5,5785],[80.5,5905],[80.5,6036],[80.5,6174],[80.5,6294],[80.5,6420],[80.5,6543],[80.5,6668],[80.5,6796],[80.5,6927],[80.5,7059],[82.5,7185],[85.6,7318],[86.1,7446],[86.9,7570],[87.2,7698],[87.2,7830],[87.2,7956],[87.2,8082],[87.2,8222],[87.2,8346],[87.2,8471],[87.2,8596],[87.2,8724],[87.2,8842],[87.2,8968],[87.2,9109],[87.2,9234],[87,9362],[87,9502],[87,9632],[87,9759],[87,9893],[87,10024],[87,10159],[87,10284],[87,10416],[86.8,10550],[86.1,10691],[86.1,10824],[86.1,10948],[86.1,11080],[85.5,11200],[84.9,11338],[84.3,11457],[79.8,11586],[70.2,11721],[67.5,11849],[65.3,11980],[64.5,12108],[63.6,12233],[63,12373],[60.8,12509],[56.1,12649],[48,12782],[41.8,12912],[40.7,13040],[40.6,13168],[40.6,13291],[40.6,13417],[40.6,13544],[38,13667],[34.3,13802],[32.5,13928],[33.4,14053],[43.5,14186]]",1,0,760.9079,763.4613,50,1.4556,"[{""rating"":50,""responseTime"":1.4555999999046207}]",space,1.7604,,763.4614,Partially,50,763.4623,,,[],,0,3,3,3,1,audio/Narrative7Situation3.wav,audio/Narrative8Situation3.wav,audio/Narrative5Situation3.wav,audio/Narrative6Situation3.wav,8,4,3,5,,,,,,,,,,,,,,,,,,,,,,,,,,,,,,,,,,,,,,,
,,,,,,653932c48f1f4427af84a7f0,2024-02-08_12h48.24.020,group3.1-3.2-social-tom,2023.2.2,Win32,8.467400508,65c5074098b851296ff0b7ed,65c513a38162edf01ba94e0d,,,,,,,,,,,,,,,,,,,,,,,,,,,,,763.4625,2,audio/Narrative5Situation4.wav,764.5664,,764.5664,785.2003,"[[47.7,139],[47.5,253],[47.5,386],[47.5,512],[47.4,642],[47.4,773],[47.4,903],[45.3,1044],[41.3,1185],[38.2,1323],[35.7,1455],[35.1,1579],[35,1713],[35,1835],[35,1958],[35,2086],[34,2222],[28.4,2354],[27.7,2484],[27.7,2612],[27.7,2740],[27.7,2882],[27.7,3013],[27.7,3142],[27.7,3263],[27.6,3396],[27.6,3525],[27.6,3656],[27.6,3783],[27.5,3904],[27.5,4037],[27.5,4172],[27.5,4298],[27.5,4431],[27.5,4565],[27.5,4701],[23,4830],[19.8,4958],[17,5101],[16.6,5226],[16.6,5359],[16.6,5493],[16.6,5618],[16.6,5735],[16.6,5863],[16.6,5985],[16.6,6119],[16.6,6252],[16,6385],[15.5,6512],[14.8,6644],[9.5,6768],[5.6,6892],[4.5,7017],[4.5,7149],[4.5,7277],[4.5,7411],[4.5,7532],[4.5,7656],[4.5,7789],[4.5,7916],[4.5,8041],[4.5,8162],[4.5,8296],[4.5,8416],[4.5,8544],[4.5,8662],[4.5,8787],[4.5,8915],[4.5,9037],[4.5,9151],[4.5,9283],[7.4,9406],[15.5,9534],[26.3,9660],[58.8,9796],[76.5,9927],[77.7,10058],[77.7,10189],[77.7,10316],[77.7,10435],[78.9,10565],[79,10687],[79,10820],[79,10936],[79,11066],[79,11192],[79,11318],[79,11451],[79,11574],[79,11708],[79,11835],[79,11952],[79,12078],[79,12208],[79,12341],[79,12463],[79,12588],[79,12720],[79,12842],[79,12966],[79,13086],[79,13218],[79,13354],[79,13486],[79,13620],[79,13745],[79,13876],[79,13993],[79,14121],[79,14246],[79,14372],[79,14496],[79,14629],[79,14754],[79,14887],[79,15007],[79,15131],[79,15256],[79,15378],[79,15502],[79,15634],[79,15755],[79,15889],[79,16012],[79,16131],[79,16252],[79,16380],[79,16507],[79,16632],[79,16764],[79,16888],[79,17019],[79,17149],[79,17275],[79,17404],[79,17533],[79,17655],[79,17789],[79,17914],[79,18037],[79,18161],[79,18277],[79,18408],[79,18539],[79,18663],[79,18802],[79,18929],[79,19048],[79,19183],[79,19320],[79,19458],[79,19601],[79,19730],[79,19852],[79,19986],[79,20117],[79,20252],[79,20378],[79,20501],[79,20633]]",1,0,785.2003,787.5615,93.85416667,1.53,"[{""rating"":93.85416666666666,""responseTime"":1.5299999999999727}]",space,1.5181,0,787.5615,Not at all,0,787.5631,,,[],,0,4,4,4,1,audio/Narrative7Situation4.wav,audio/Narrative8Situation4.wav,audio/Narrative5Situation4.wav,audio/Narrative6Situation4.wav,3,3,1,2,,,,,,,,,,,,,,,,,,,,,,,,,,,,,,,,,,,,,,,
,,,,,,653932c48f1f4427af84a7f0,2024-02-08_12h48.24.020,group3.1-3.2-social-tom,2023.2.2,Win32,8.467400508,65c5074098b851296ff0b7ed,65c513a38162edf01ba94e0d,,,,,,,,,,,,,,,,,,,,,,,,,,,,,787.5633,2,audio/Narrative5Situation5.wav,792.6352,,792.6352,808.39,"[[999,7],[999,139],[999,273],[999,412],[999,549],[999,684],[999,823],[999,962],[999,1101],[999,1239],[999,1374],[999,1518],[999,1657],[27.7,1798],[17.1,1938],[12.7,2073],[9.1,2210],[9.1,2341],[9.1,2475],[8.9,2608],[7.9,2732],[5.6,2852],[4.3,2993],[4.3,3125],[4.3,3256],[4.3,3384],[4.3,3509],[4.3,3636],[4.3,3774],[4.3,3904],[4.3,4028],[4.3,4149],[4.3,4271],[4.3,4396],[4.3,4515],[4.3,4647],[4.3,4773],[4.3,4893],[4.3,5024],[4.3,5157],[4.3,5275],[4.3,5393],[4.3,5515],[4.3,5639],[4.3,5774],[4.3,5910],[4.3,6039],[4.3,6168],[4.3,6296],[4.3,6418],[4.3,6541],[4.3,6684],[4.3,6822],[4.3,6955],[4.3,7081],[4.3,7210],[4.3,7342],[4.3,7474],[4.3,7602],[4.3,7737],[4.3,7869],[4.3,7995],[4.3,8117],[4.3,8253],[4.3,8383],[4.3,8514],[4.3,8639],[4.3,8772],[4.3,8904],[4.3,9026],[4.3,9154],[4.3,9282],[4.3,9411],[4.3,9545],[4.3,9676],[4.3,9804],[4.3,9937],[4.4,10077],[4.4,10214],[4.6,10355],[4.6,10478],[4.9,10618],[4.9,10746],[4.9,10882],[4.9,11021],[5,11148],[5,11281],[5.1,11410],[5.1,11539],[5.1,11666],[5.1,11800],[5.1,11940],[5.1,12069],[6.5,12201],[6.5,12329],[6.5,12455],[6.5,12580],[6.5,12709],[6.5,12837],[6.5,12963],[6.5,13088],[6.5,13218],[6.5,13346],[6.5,13471],[6.5,13612],[6.5,13746],[6.5,13874],[6.5,14014],[6.5,14154],[6.5,14281],[6.5,14406],[6.5,14549],[6.5,14692],[6.5,14827],[6.5,14961],[6.5,15088],[6.5,15221],[6.5,15346],[6.5,15490],[6.5,15620],[6.5,15754]]",1,0,808.3901,811.0674,7.708333333,1.8265,"[{""rating"":7.708333333333334,""responseTime"":1.82650000000001}]",space,1.8138,0.0001,811.0675,Definitely yes,100,811.0689,,,[],,0,5,5,5,1,audio/Narrative7Situation5.wav,audio/Narrative8Situation5.wav,audio/Narrative5Situation5.wav,audio/Narrative6Situation5.wav,5,2,5,2,,,,,,,,,,,,,,,,,,,,,,,,,,,,,,,,,,,,,,,
,,,,,,653932c48f1f4427af84a7f0,2024-02-08_12h48.24.020,group3.1-3.2-social-tom,2023.2.2,Win32,8.467400508,65c5074098b851296ff0b7ed,65c513a38162edf01ba94e0d,,,,,,,,,,,,,,,,,,,,,,,,,,,,,811.0691,2,audio/Narrative5Situation6.wav,814.1712,,814.1713,820.2026,"[[73.1,3320],[75.4,3471],[75.8,3614],[78.5,3758],[78.6,3898],[86.5,4039],[89,4171],[92.1,4310],[92.7,4443],[93.2,4577],[93.2,4720],[93.2,4861],[93.2,4999],[92.4,5156],[92.4,5300],[92.4,5447],[92.4,5594],[92.4,5741],[92.4,5888],[92.4,6031]]",1,0,820.2027,822.241,95.41666667,1.2431,"[{""rating"":95.41666666666666,""responseTime"":1.2431000000237873}]",space,1.1209,,822.2411,Definitely yes,100,822.2426,,,[],,0,6,6,6,1,audio/Narrative7Situation6.wav,audio/Narrative8Situation6.wav,audio/Narrative5Situation6.wav,audio/Narrative6Situation6.wav,3,2,3,2,,,,,,,,,,,,,,,,,,,,,,,,,,,,,,,,,,,,,,,
,,,,,,653932c48f1f4427af84a7f0,2024-02-08_12h48.24.020,group3.1-3.2-social-tom,2023.2.2,Win32,8.467400508,65c5074098b851296ff0b7ed,65c513a38162edf01ba94e0d,,,,,,,,,,,,,,,,,,,,,,,,,,,,,822.2428,2,audio/Narrative5Situation7.wav,826.2836,,826.2836,847.4629,"[[999,10],[999,155],[999,300],[999,447],[999,594],[999,743],[999,890],[999,1037],[999,1182],[999,1331],[999,1473],[999,1626],[999,1765],[999,1908],[18,2052],[17,2190],[13.8,2336],[7.1,2475],[7.1,2611],[7.1,2749],[7.8,2888],[7.8,3024],[7.8,3157],[7.8,3295],[7.8,3428],[7.8,3570],[7.8,3715],[7.8,3858],[7.8,3997],[7.8,4139],[7.8,4278],[7.8,4410],[7.8,4540],[7.8,4676],[7.8,4810],[7.8,4945],[7.8,5073],[7.8,5205],[7.8,5338],[7.8,5471],[7.8,5605],[7.8,5736],[7.8,5871],[7.8,6010],[7.8,6152],[7.8,6282],[7.8,6417],[7.8,6551],[7.8,6684],[7.8,6813],[7.8,6948],[7.8,7079],[7.8,7208],[7.8,7349],[7.8,7478],[7.8,7614],[7.8,7748],[7.8,7889],[7.8,8021],[7.8,8149],[7.8,8278],[26,8841],[27.8,8980],[25.8,9116],[23.2,9259],[18.1,9393],[16.8,9535],[15,9668],[13.9,9810],[13.9,9937],[13.9,10070],[13.9,10203],[13.9,10330],[13.9,10456],[14.2,10591],[14.2,10732],[14.2,10858],[14.2,10983],[14.2,11122],[14.2,11255],[14.2,11389],[14.2,11518],[14.2,11650],[14.2,11777],[14.2,11908],[14.2,12044],[14.2,12181],[14.1,12320],[13.6,12456],[13.6,12598],[13.6,12723],[13.6,12859],[13.4,12994],[11,13125],[11,13259],[11,13386],[11,13512],[11,13641],[11,13766],[11,13894],[11,14033],[11,14175],[11,14310],[11,14439],[11,14577],[11,14703],[11,14829],[11,14960],[11,15089],[11,15231],[11,15364],[11,15490],[11,15628],[11,15760],[11,15893],[11,16022],[11,16156],[11,16283],[11,16410],[11,16545],[11,16673],[11,16802],[11,16935],[11,17067],[11,17208],[11,17354],[11,17498],[11,17632],[11,17771],[11,17906],[11,18046],[11,18188],[10.3,18322],[6,18466],[6,18595],[6,18729],[6,18869],[6,18998],[6,19128],[6,19260],[6,19398],[6,19541],[6,19681],[6,19825],[6,19966],[6,20102],[6,20240],[6,20382],[6,20507],[6,20645],[6,20776],[7.7,20906],[14.2,21047],[16.9,21179]]",1,0,847.4629,849.7478,28.64583333,1.1389,"[{""rating"":28.645833333333336,""responseTime"":1.1389000000954184}]",space,1.4359,,849.7479,Partially,50,849.7493,,,[],,0,7,7,7,1,audio/Narrative7Situation7.wav,audio/Narrative8Situation7.wav,audio/Narrative5Situation7.wav,audio/Narrative6Situation7.wav,5,3,4,5,,,,,,,,,,,,,,,,,,,,,,,,,,,,,,,,,,,,,,,
,,,,,,653932c48f1f4427af84a7f0,2024-02-08_12h48.24.020,group3.1-3.2-social-tom,2023.2.2,Win32,8.467400508,65c5074098b851296ff0b7ed,65c513a38162edf01ba94e0d,,,,,,,,,,,,,,,,,,,,,,,,,,,,,849.7496,2,audio/Narrative5Situation8.wav,852.8266,,852.8267,862.0124,"[[999,7],[999,134],[999,256],[999,390],[999,530],[999,665],[999,777],[999,902],[28,1036],[16.4,1172],[13.9,1308],[13.3,1445],[11.7,1570],[11.4,1707],[11.1,1828],[4.9,1958],[4.7,2091],[4.7,2221],[4.7,2351],[4.7,2480],[4.7,2605],[4.7,2725],[4.7,2857],[4.7,2991],[4.7,3129],[4.7,3262],[4.7,3395],[4.7,3522],[9.6,3650],[21.5,3788],[26.3,3918],[31,4046],[31.5,4175],[31.5,4308],[31.5,4437],[31.4,4567],[21.5,4692],[19.2,4826],[19.2,4954],[19.2,5085],[19.2,5216],[19.2,5350],[19.2,5489],[19.2,5629],[19.2,5762],[19.2,5894],[19.2,6031],[19.2,6170],[19.2,6307],[19.2,6446],[19.2,6591],[19.2,6732],[19.2,6877],[19.2,7020],[19.2,7162],[19.2,7303],[19.2,7444],[19.2,7587],[19.2,7732],[19.2,7878],[19.2,8021],[19.2,8166],[19.2,8313],[19.2,8453],[19.2,8603],[19.2,8749],[19.2,8896],[19.2,9038],[19.2,9185]]",1,0,862.0125,864.6892,20.10416667,1.5595,"[{""rating"":20.104166666666668,""responseTime"":1.559500000000071}]",space,1.7309,,864.6893,Definitely yes,100,864.6916,,,[],,0,8,8,8,1,audio/Narrative7Situation8.wav,audio/Narrative8Situation8.wav,audio/Narrative5Situation8.wav,audio/Narrative6Situation8.wav,2,3,3,5,,,,,,,,,,,,,,,,,,,,,,,,,,,,,,,,,,,,,,,
,,,,,,653932c48f1f4427af84a7f0,2024-02-08_12h48.24.020,group3.1-3.2-social-tom,2023.2.2,Win32,8.467400508,65c5074098b851296ff0b7ed,65c513a38162edf01ba94e0d,,,,,,,,,,,,,,,,,,,,,,,,,,,,,864.692,2,audio/Narrative5Situation9.wav,867.7201,,867.7201,907.6458,"[[17.8,1012],[16,1152],[15.8,1314],[15.7,1460],[15.2,1600],[15.2,1738],[15.2,1883],[15.2,2029],[15.2,2181],[15.2,2330],[15.2,2464],[15.2,2611],[15.2,2754],[15.2,2889],[15.2,3029],[15.2,3174],[15.2,3313],[15.2,3451],[15.2,3606],[15.2,3744],[15.2,3887],[15.2,4030],[15.2,4179],[15.2,4323],[15.2,4465],[15.9,4600],[24,4751],[24,4892],[24,5028],[24,5175],[25.8,5324],[25.8,5466],[26,5614],[27.2,5765],[27.2,5909],[20.3,6060],[19.8,6211],[19.8,6351],[19.8,6499],[19.8,6643],[19.8,6792],[19.8,6937],[19.3,7086],[19.3,7238],[19.5,7381],[19.8,7525],[25,7675],[39.8,7826],[55.1,7978],[67.2,8127],[72,8276],[77.1,8429],[87.4,8590],[92.6,8741],[92.6,8893],[92.6,9042],[92.6,9189],[92.6,9326],[92.6,9466],[92.6,9614],[92.6,9757],[92.6,9910],[92.6,10057],[92.3,10208],[92.3,10346],[92.3,10495],[92.3,10644],[92.3,10795],[92.3,10942],[92.3,11081],[90.6,11228],[86.4,11379],[80.9,11531],[79.7,11681],[79.4,11822],[79.1,11955],[79,12086],[76.5,12223],[71.8,12362],[71.7,12501],[71.7,12630],[71.7,12762],[71.7,12893],[71.7,13029],[71.7,13167],[71.7,13298],[71.7,13424],[71.7,13554],[71.7,13688],[71.7,13825],[71.7,13951],[71.7,14086],[71.7,14226],[71.7,14352],[71.7,14475],[71.7,14613],[71.7,14758],[71.7,14890],[71.7,15018],[71.7,15160],[73.6,15294],[73.6,15424],[73.6,15568],[73.6,15705],[73.6,15836],[72.7,15975],[69.8,16114],[68.2,16258],[66.8,16400],[66.5,16545],[66.5,16692],[66.5,16836],[66.5,16979],[66.5,17116],[66.5,17239],[68.8,17377],[70.8,17509],[76.9,17658],[79.1,17793],[79.3,17922],[80.1,18048],[81,18175],[82.2,18310],[83,18443],[83.3,18569],[83.3,18699],[83.3,18837],[83.3,18971],[83.3,19106],[83.3,19238],[83.3,19363],[83.3,19505],[83.3,19641],[83.3,19784],[83.3,19912],[83.3,20046],[83.3,20182],[83.3,20318],[83.3,20445],[83.3,20580],[83.3,20707],[83.3,20838],[83.3,20969],[83.3,21109],[83.3,21235],[81,21378],[79.2,21516],[77.5,21650],[77,21785],[76.6,21925],[76.6,22053],[76.6,22186],[76.6,22314],[76.6,22441],[76.6,22572],[73.4,22707],[73.4,22829],[73.4,22960],[73.4,23089],[73.1,23230],[70.5,23359],[67.1,23493],[62.1,23633],[60.8,23761],[59.2,23893],[57.3,24019],[54,24150],[47.3,24291],[45.3,24426],[42.7,24561],[41.9,24691],[41.9,24823],[41.9,24959],[41.9,25093],[41.9,25219],[41.9,25361],[41.9,25490],[41.9,25616],[41.9,25748],[41.9,25876],[41.9,26006],[41.9,26132],[41.9,26259],[41.9,26392],[41.9,26526],[41.9,26660],[41.9,26788],[41.9,26922],[41.9,27059],[41.9,27184],[41.9,27321],[48.4,27466],[54.3,27609],[59.9,27747],[64.9,27876],[68.4,28007],[71.9,28149],[75.4,28281],[78.4,28422],[79.1,28558],[79.1,28689],[79.1,28826],[79.1,28966],[79.3,29104],[82.5,29234],[83.4,29362],[83.4,29495],[83.4,29629],[83.4,29768],[83.4,29906],[84,30040],[86,30180],[90.8,30324],[94.9,30470],[98.2,30609],[99.8,30753],[99.8,30888],[99.8,31033],[99.8,31169],[99.8,31297],[99.8,31431],[99.8,31574],[99.8,31709],[99.8,31841],[99.8,31975],[99.8,32120],[99.8,32262],[99.8,32401],[99.8,32538],[99.8,32674],[99.8,32805],[99.8,32929],[99.8,33061],[99.8,33204],[99.8,33334],[99.8,33459],[99.8,33588],[99.8,33717],[99.8,33854],[99.8,33988],[99.8,34122],[99.8,34264],[95.2,34398],[83,34546],[78.1,34689],[77.3,34825],[77.2,34962],[77,35087],[75.5,35222],[68.2,35352],[63.8,35483],[63.3,35618],[63.3,35752],[63.3,35892],[63.3,36021],[63.3,36158],[63.3,36291],[63.3,36424],[63.3,36557],[63.3,36689],[63.3,36827],[63.3,36957],[58.6,37098],[54.8,37238],[54.4,37374],[54.4,37500],[54.4,37630],[54.4,37760],[54.4,37898],[54.4,38031],[54.4,38161],[54.4,38302],[54.4,38439],[54.4,38584],[54.4,38728],[54.4,38855],[56.1,38990],[61.8,39115],[65.2,39259],[72.3,39392],[78.3,39534],[79.6,39656],[80.6,39791],[80.6,39925]]",1,0,907.6459,909.938,84.58333333,0.8548,"[{""rating"":84.58333333333333,""responseTime"":0.8548000000715774}]",space,1.4406,,909.9381,Partially,50,909.9398,,,[],,0,9,9,9,1,audio/Narrative7Situation9.wav,audio/Narrative8Situation9.wav,audio/Narrative5Situation9.wav,audio/Narrative6Situation9.wav,2,3,3,4,,,,,,,,,,,,,,,,,,,,,,,,,,,,,,,,,,,,,,,
,,,,,,653932c48f1f4427af84a7f0,2024-02-08_12h48.24.020,group3.1-3.2-social-tom,2023.2.2,Win32,8.467400508,65c5074098b851296ff0b7ed,65c513a38162edf01ba94e0d,,,,,,,,,,,,,,,,,,,,,,,,,,,,,909.9399,2,audio/Narrative6Situation1.wav,911.9889,,911.989,938.8754,"[[74.1,2111],[74.1,2237],[74.1,2366],[74.1,2493],[72.1,2620],[44,2762],[29.9,2902],[21.7,3048],[16,3187],[12.3,3321],[11.6,3460],[11.6,3584],[11.6,3719],[11.6,3847],[11.6,3980],[11.6,4106],[11.6,4239],[11.6,4361],[11.6,4490],[11.6,4617],[11.6,4751],[11.6,4893],[11.6,5026],[11.6,5152],[11.6,5283],[23.4,5423],[43.4,5567],[56.9,5702],[69.7,5845],[78.2,5987],[82,6125],[82,6255],[82.4,6388],[85.1,6516],[88.9,6644],[91.4,6780],[91.7,6913],[92.1,7040],[92.1,7178],[92.1,7305],[92.1,7437],[92.1,7573],[92.1,7710],[92.1,7837],[92.1,7968],[92.1,8097],[92.1,8232],[92.1,8364],[92.1,8494],[92.1,8615],[92.1,8744],[92,8869],[91.9,8992],[91.9,9125],[91.9,9246],[91.8,9365],[91.4,9507],[90.8,9628],[89.1,9752],[88.3,9878],[88.3,10006],[88.3,10135],[88.3,10266],[88.3,10391],[88.3,10521],[88.3,10646],[88.3,10778],[88.1,10905],[72.9,11033],[57.3,11163],[41,11300],[25.7,11437],[19.8,11569],[15.4,11695],[12.5,11819],[12.1,11951],[12.1,12076],[10.1,12214],[7.7,12335],[7.7,12469],[7.7,12586],[7.7,12706],[7.6,12838],[7.4,12957],[6.4,13077],[6.3,13210],[6.3,13340],[6.3,13465],[6.3,13591],[6.3,13721],[6.3,13861],[6.3,14001],[6.3,14126],[6.3,14257],[6.3,14387],[6.3,14520],[6.3,14651],[6.3,14783],[6.3,14908],[6.3,15043],[6.3,15166],[6.3,15287],[6.3,15421],[6.3,15548],[6.3,15678],[6.3,15807],[6.3,15928],[6.3,16053],[6.3,16178],[6.3,16293],[6.3,16421],[6.3,16541],[6.3,16667],[6.3,16793],[6.3,16910],[6.3,17032],[6.3,17152],[6.3,17285],[6.3,17409],[6.3,17549],[6.3,17682],[6.3,17810],[6.3,17928],[6.3,18066],[6.3,18198],[6.3,18319],[6.3,18456],[6.3,18581],[6.3,18697],[6.3,18822],[6.3,18948],[6.3,19068],[0.5,21648],[9.8,21784],[16.6,21920],[20.3,22046],[24,22171],[28,22299],[36.4,22423],[46.9,22553],[55.2,22695],[56.8,22825],[57.9,22964],[58,23100],[58.9,23225],[61.9,23353],[62.6,23476],[62.6,23601],[62.6,23722],[63.1,23841],[64.3,23971],[66.5,24096],[66.6,24213],[66.6,24334],[66.6,24467],[66.6,24591],[66.6,24711],[66.6,24852],[66.6,24977],[66.6,25101],[66.6,25225],[66.6,25347],[66.5,25474],[66.5,25601],[66.5,25725],[66.5,25853],[66.5,25979],[66.5,26118],[66.5,26243],[66.5,26364],[66.7,26492],[68.3,26619],[68.4,26745],[68.4,26886]]",1,0,938.8755,940.6213,72.29166667,0.798,"[{""rating"":72.29166666666667,""responseTime"":0.7980000000000018}]",space,0.9766,,940.6213,Partially,50,940.6223,,,[],,0,10,10,10,1,audio/Narrative8Situation1.wav,audio/Narrative7Situation1.wav,audio/Narrative6Situation1.wav,audio/Narrative5Situation1.wav,5,2,2,5,,,,,,,,,,,,,,,,,,,,,,,,,,,,,,,,,,,,,,,
,,,,,,653932c48f1f4427af84a7f0,2024-02-08_12h48.24.020,group3.1-3.2-social-tom,2023.2.2,Win32,8.467400508,65c5074098b851296ff0b7ed,65c513a38162edf01ba94e0d,,,,,,,,,,,,,,,,,,,,,,,,,,,,,940.6224,2,audio/Narrative6Situation2.wav,943.7489,,943.7489,972.4952,"[[999,7],[999,135],[999,270],[999,395],[999,518],[999,637],[999,752],[999,877],[999,1004],[999,1133],[999,1252],[999,1371],[999,1496],[999,1628],[999,1754],[999,1879],[999,2007],[999,2141],[29.8,2278],[29.4,2404],[21.5,2533],[17.3,2660],[12.4,2784],[7.3,2909],[6.9,3036],[6.8,3164],[6.6,3290],[5.9,3410],[5.2,3534],[4.3,3660],[2.7,3782],[2.2,3902],[2.2,4032],[2.2,4164],[2.2,4293],[2.2,4418],[2.2,4543],[2.2,4672],[2.2,4793],[2.2,4922],[2.2,5049],[2.2,5169],[2.2,5292],[2.2,5412],[2.2,5537],[2.2,5659],[2.2,5785],[6.9,5911],[8,6038],[9,6163],[9,6284],[9,6409],[9,6529],[9,6648],[9,6767],[16.3,6891],[17.8,7016],[17.8,7145],[17.9,7282],[17.9,7402],[17.9,7534],[17.9,7657],[17.9,7779],[17.9,7897],[17.9,8021],[17.9,8147],[17.9,8269],[17.9,8389],[17.9,8509],[17.9,8644],[17.9,8765],[17.9,8893],[17.9,9014],[18.3,9143],[18.4,9274],[18.4,9399],[18.4,9519],[18.4,9645],[18.4,9769],[18.4,9897],[18.4,10011],[18.4,10138],[18.4,10256],[18.4,10384],[18.4,10502],[18.4,10625],[18.4,10746],[18.4,10869],[18.4,11001],[18.4,11126],[18.4,11249],[19.8,11374],[40.2,11517],[52.6,11653],[62.7,11782],[76.1,11924],[84.1,12052],[85.9,12181],[85.9,12306],[87.1,12442],[89.3,12570],[89.7,12697],[89.7,12826],[90.1,12952],[96.9,13079],[100,13221],[100,13349],[100,13476],[100,13600],[100,13721],[100,13847],[100,13977],[100,14105],[100,14245],[100,14374],[100,14500],[100,14633],[100,14759],[100,14891],[100,15015],[100,15134],[100,15266],[100,15386],[100,15501],[100,15633],[100,15765],[100,15889],[100,16014],[100,16136],[100,16253],[100,16371],[100,16491],[100,16623],[100,16747],[100,16880],[100,17000],[100,17126],[100,17259],[100,17382],[100,17509],[100,17628],[100,17751],[98.6,17885],[96.6,18019],[95.3,18144],[95,18266],[95,18392],[94.9,18511],[94.7,18626],[94.7,18760],[94.7,18880],[94.7,19002],[94.7,19144],[94.7,19284],[94.7,19414],[94.7,19548],[94.9,19676],[95.3,19809],[95.3,19944],[95.3,20070],[95.3,20199],[95.3,20330],[95.3,20463],[95.3,20584],[95.3,20721],[95.3,20849],[95.3,20980],[95.3,21121],[95.3,21254],[95.3,21382],[95.3,21502],[95.3,21637],[95.3,21764],[95.3,21894],[95.3,22020],[95.3,22140],[95.3,22270],[95.3,22399],[95.3,22524],[95.3,22647],[95.3,22776],[95.3,22914],[95.3,23036],[95.3,23154],[95.3,23284],[95.3,23405],[95.3,23529],[95.3,23672],[95.3,23805],[95.3,23935],[95.3,24059],[95.3,24188],[95.3,24321],[95.3,24448],[97.2,24582],[97.7,24729],[98.8,24853],[99.3,24979],[99.3,25117],[99.3,25237],[99.3,25356],[99.3,25482],[99.3,25613],[99.3,25737],[99.3,25861],[99.4,25996],[99.4,26117],[99.4,26244],[99.4,26379],[99.4,26504],[99.4,26623],[99.4,26744],[99.4,26873],[99.4,26998],[99.4,27121],[99.4,27240],[99.4,27356],[99.4,27485],[99.4,27610],[99.4,27739],[99.4,27860],[99.4,27975],[99.4,28100],[99.4,28226],[99.4,28349],[99.4,28476],[99.4,28614],[99.4,28746]]",1,0,972.4953,975.0788,100,2.0292,"[{""rating"":98.64583333333333,""responseTime"":1.353299999952469},{""rating"":100,""responseTime"":2.029199999928551}]",space,1.7838,,975.0789,Definitely yes,100,975.0804,,,[],,0,11,11,11,1,audio/Narrative8Situation2.wav,audio/Narrative7Situation2.wav,audio/Narrative6Situation2.wav,audio/Narrative5Situation2.wav,3,3,3,3,,,,,,,,,,,,,,,,,,,,,,,,,,,,,,,,,,,,,,,
,,,,,,653932c48f1f4427af84a7f0,2024-02-08_12h48.24.020,group3.1-3.2-social-tom,2023.2.2,Win32,8.467400508,65c5074098b851296ff0b7ed,65c513a38162edf01ba94e0d,,,,,,,,,,,,,,,,,,,,,,,,,,,,,975.0805,2,audio/Narrative6Situation3.wav,980.0902,,980.0902,993.0347,"[[999,8],[999,141],[999,274],[999,404],[999,532],[999,660],[999,780],[58.1,913],[57.3,1047],[57,1166],[57,1288],[57,1420],[57,1542],[50.4,1684],[41,1812],[38.6,1943],[38.6,2066],[36.5,2192],[32.3,2319],[32.2,2433],[32.2,2563],[33.1,2696],[33.2,2831],[30.1,2966],[27.9,3096],[25.8,3216],[25.2,3352],[25.2,3477],[25.2,3602],[25.2,3735],[25.2,3860],[25.2,3986],[25.2,4123],[25.2,4249],[25.2,4383],[24.9,4508],[23.4,4636],[22.5,4760],[22.4,4886],[22.4,5004],[22.4,5136],[22.4,5261],[16.8,5400],[12.9,5526],[11.7,5644],[10.6,5770],[8.9,5901],[8.3,6038],[8.3,6156],[8.4,6278],[8.4,6404],[8.4,6529],[8.4,6651],[8.4,6776],[10.2,6909],[33.8,7034],[46.5,7168],[58.4,7296],[73,7434],[82.2,7569],[86.3,7704],[87.2,7829],[90.2,7975],[92.5,8103],[96.3,8238],[97.4,8362],[97.4,8500],[97.4,8620],[97.4,8749],[97.4,8874],[97.4,8999],[97.4,9120],[97.4,9241],[97.2,9368],[97.2,9492],[97.2,9615],[96.8,9752],[94.8,9879],[90.9,10002],[90.3,10134],[90.3,10256],[90.1,10401],[89.7,10535],[92.2,10664],[94.3,10789],[95.3,10917],[95.8,11038],[97,11172],[97.5,11291],[97.5,11410],[97.6,11529],[97.6,11658],[97.6,11778],[97.6,11901],[97.6,12029],[97.6,12152],[97.6,12284],[97.6,12419],[97.6,12549],[97.8,12681]]",1,0,993.0348,996.1658,73.22916667,1.5009,"[{""rating"":73.22916666666667,""responseTime"":1.5008999999761272}]",space,2.3066,,996.1659,Partially,50,996.1674,,,[],,0,12,12,12,1,audio/Narrative8Situation3.wav,audio/Narrative7Situation3.wav,audio/Narrative6Situation3.wav,audio/Narrative5Situation3.wav,4,8,5,3,,,,,,,,,,,,,,,,,,,,,,,,,,,,,,,,,,,,,,,
,,,,,,653932c48f1f4427af84a7f0,2024-02-08_12h48.24.020,group3.1-3.2-social-tom,2023.2.2,Win32,8.467400508,65c5074098b851296ff0b7ed,65c513a38162edf01ba94e0d,,,,,,,,,,,,,,,,,,,,,,,,,,,,,996.1676,2,audio/Narrative6Situation4.wav,998.173,,998.173,1011.0579,"[[67.2,250],[67.3,367],[67.2,504],[64.8,633],[59.5,767],[51.1,892],[29.9,1034],[28.2,1165],[28.2,1285],[28.2,1415],[28.1,1546],[28.1,1674],[28,1798],[28,1918],[28,2043],[27.9,2165],[23.9,2290],[6.8,2952],[6.5,3086],[6.5,3217],[6.5,3335],[6.5,3459],[6.5,3592],[6.5,3716],[6.5,3841],[6.6,3964],[6.6,4087],[6.6,4215],[6.6,4340],[6.7,4465],[6.8,4588],[6.8,4715],[6.8,4847],[6.8,4984],[6.8,5107],[6.8,5228],[6.8,5353],[6.8,5477],[6.8,5608],[6.8,5733],[6.9,5856],[6.9,5991],[6.7,6113],[6.7,6235],[6.7,6365],[6.7,6486],[6.5,6606],[6.5,6731],[6.5,6863],[6.5,6995],[6.5,7126],[6.5,7244],[6.5,7365],[6.5,7494],[6.5,7619],[6.5,7751],[6.5,7885],[6.4,8012],[6.4,8138],[6.4,8254],[6.4,8369],[6.4,8494],[6.4,8616],[6.4,8737],[6.4,8868],[6.4,8986],[6.4,9112],[6.4,9232],[6.4,9358],[6.4,9482],[6.4,9607],[6.4,9732],[6.4,9854],[6.4,9978],[6.4,10106],[6.4,10231],[6.4,10363],[6.4,10487],[6.4,10611],[6.3,10736],[6.7,11616],[6.8,11742],[6.9,11869],[7.1,11998],[7.5,12132],[7.7,12253],[8,12382],[9.7,12508],[10.8,12632],[11,12756],[11,12884]]",1,0,1011.058,1013.4602,10.41666667,1.3541,"[{""rating"":10.416666666666668,""responseTime"":1.354100000023891}]",space,1.5966,,1013.4602,Not at all,0,1013.4618,,,[],,0,13,13,13,1,audio/Narrative8Situation4.wav,audio/Narrative7Situation4.wav,audio/Narrative6Situation4.wav,audio/Narrative5Situation4.wav,3,3,2,1,,,,,,,,,,,,,,,,,,,,,,,,,,,,,,,,,,,,,,,
,,,,,,653932c48f1f4427af84a7f0,2024-02-08_12h48.24.020,group3.1-3.2-social-tom,2023.2.2,Win32,8.467400508,65c5074098b851296ff0b7ed,65c513a38162edf01ba94e0d,,,,,,,,,,,,,,,,,,,,,,,,,,,,,1013.4619,2,audio/Narrative6Situation5.wav,1015.4668,,1015.4668,1023.748,"[[55.5,128],[55.5,254],[55.5,368],[55.5,489],[55.1,611],[51.7,742],[43.9,875],[40,1003],[38.4,1128],[38.4,1252],[38.4,1377],[38.4,1501],[38.4,1627],[38.4,1750],[38.4,1874],[28.5,2000],[25.3,2134],[19.9,2268],[15.6,2394],[15.5,2514],[15.5,2647],[15.5,2788],[14.1,2920],[10.5,3055],[10.2,3181],[10.2,3300],[10.2,3440],[10.2,3558],[10.2,3688],[10.2,3813],[10.2,3938],[10.2,4070],[10.2,4195],[10.2,4318],[10.2,4442],[10.2,4572],[10.2,4708],[10.2,4831],[10.2,4953],[10.2,5073],[10.2,5202],[10.2,5327],[10.2,5462],[10.2,5588],[10.2,5714],[10.2,5838],[10.2,5966],[10.2,6101],[10.2,6230],[10.2,6356],[10.2,6481],[10.2,6616],[10.2,6754],[10.2,6895],[10.2,7035],[10.2,7174],[10.2,7309],[10.2,7451],[10.2,7593],[10.2,7733],[10.2,7867],[10.2,8004],[10.2,8147],[10.2,8281]]",1,0,1023.7481,1028.8412,33.4375,3.7752,"[{""rating"":33.4375,""responseTime"":3.775200000047789}]",space,4.2204,0.0002,1028.8412,Not at all,0,1028.8422,,,[],,0,14,14,14,1,audio/Narrative8Situation5.wav,audio/Narrative7Situation5.wav,audio/Narrative6Situation5.wav,audio/Narrative5Situation5.wav,2,5,2,5,,,,,,,,,,,,,,,,,,,,,,,,,,,,,,,,,,,,,,,
,,,,,,653932c48f1f4427af84a7f0,2024-02-08_12h48.24.020,group3.1-3.2-social-tom,2023.2.2,Win32,8.467400508,65c5074098b851296ff0b7ed,65c513a38162edf01ba94e0d,,,,,,,,,,,,,,,,,,,,,,,,,,,,,1028.8424,2,audio/Narrative6Situation6.wav,1030.8611,,1030.8611,1042.2227,"[[38.1,143],[38.1,278],[38.1,414],[38.1,550],[38.1,685],[38.1,827],[38.1,971],[37.3,1113],[36.6,1244],[36.6,1379],[36.6,1513],[36.6,1655],[36.6,1793],[36.6,1928],[36.6,2060],[33.8,2192],[31.1,2333],[28.1,2468],[26.3,2608],[26.3,2743],[26.3,2878],[26.3,3020],[26.3,3153],[26.3,3292],[26.3,3430],[26.3,3573],[26.3,3715],[26.3,3839],[29.3,3984],[36.8,4118],[42.4,4250],[45,4392],[47.7,4524],[49.1,4664],[49.1,4803],[51.5,4942],[54,5069],[56.5,5204],[60.1,5336],[65.4,5477],[67.3,5613],[68.2,5744],[70.8,5886],[70.8,6026],[70.8,6162],[70.8,6293],[72.8,6428],[72.8,6563],[72.8,6696],[72.8,6822],[72.8,6955],[73.1,7086],[81.3,7220],[89.5,7362],[94.5,7494],[97.6,7630],[98.2,7771],[98.2,7899],[98.2,8038],[98.2,8170],[99,8303],[99.4,8444],[99.4,8579],[99.4,8709],[99.4,8841],[99.4,8976],[99.4,9110],[99.4,9236],[99.4,9370],[99.4,9510],[99.4,9637],[99.4,9768],[99.4,9907],[99.4,10044],[99.4,10179],[99.4,10306],[99.4,10433],[99.4,10567],[99.4,10701],[99.4,10837],[99.4,10970],[99.4,11106],[99.4,11229],[99.4,11361]]",1,0,1042.2227,1044.244,99.375,0.7229,"[{""rating"":99.375,""responseTime"":0.7228999999763346}]",space,1.1572,0.0002,1044.244,Not at all,0,1044.2449,,,[],,0,15,15,15,1,audio/Narrative8Situation6.wav,audio/Narrative7Situation6.wav,audio/Narrative6Situation6.wav,audio/Narrative5Situation6.wav,2,3,2,3,,,,,,,,,,,,,,,,,,,,,,,,,,,,,,,,,,,,,,,
,,,,,,653932c48f1f4427af84a7f0,2024-02-08_12h48.24.020,group3.1-3.2-social-tom,2023.2.2,Win32,8.467400508,65c5074098b851296ff0b7ed,65c513a38162edf01ba94e0d,,,,,,,,,,,,,,,,,,,,,,,,,,,,,1044.2451,2,audio/Narrative6Situation7.wav,1049.3515,,1049.3515,1074.5004,"[[93.4,666],[78.6,799],[73.5,944],[70.2,1081],[65.3,1223],[58.6,1351],[54.3,1488],[53.1,1620],[52.5,1753],[52.5,1886],[52.5,2028],[52.5,2160],[52.5,2295],[52.5,2423],[52.5,2558],[52.5,2691],[52.5,2818],[50.2,2953],[47.3,3088],[46.4,3223],[46.4,3350],[46.4,3484],[46.4,3620],[39.2,3756],[25.4,3900],[24.8,4044],[24.8,4184],[21.6,4317],[16.4,4448],[15.3,4584],[15.3,4719],[15.2,4861],[13.2,5000],[13.1,5139],[13.1,5268],[13.1,5392],[13.1,5533],[13.1,5657],[13.1,5787],[13.1,5912],[13.1,6028],[13.1,6148],[13.1,6278],[13.1,6400],[13.1,6526],[13.1,6652],[13.1,6789],[13.1,6913],[13.1,7033],[13.1,7168],[13.1,7289],[13.6,7414],[23.1,7541],[39.2,7667],[51.1,7805],[58.6,7941],[68.2,8068],[80,8194],[83.8,8321],[83.8,8443],[83.8,8565],[83.9,8691],[84.5,8824],[84.8,8945],[86.9,9074],[88.4,9205],[89.9,9332],[91.4,9456],[94.2,9589],[96.5,9716],[97.5,9842],[98,9969],[98.1,10092],[98.3,10211],[98.5,10336],[98.5,10455],[98.5,10581],[98.5,10709],[98.5,10828],[98.5,10954],[98.5,11075],[98.5,11200],[98.5,11320],[98.5,11454],[98.5,11581],[98.5,11713],[98.5,11836],[98.5,11962],[98.5,12081],[98.5,12213],[98.5,12339],[98.5,12464],[98.5,12587],[98.5,12710],[98.5,12833],[98.5,12959],[98.5,13087],[98.6,13212],[98.6,13334],[98.6,13454],[98.6,13585],[98.6,13711],[98.6,13832],[98.6,13962],[98.8,14088],[99.1,14221],[99.2,14347],[99.4,14463],[99.5,14589],[99.5,14715],[99.5,14837],[99.5,14962],[99.5,15100],[99.5,15226],[99.5,15357],[99.5,15489],[99.5,15621],[99.5,15747],[99.5,15880],[99.5,16005],[99.5,16132],[99.5,16251],[99.5,16373],[99.5,16505],[99.5,16637],[99.5,16763],[99.5,16881],[99.5,17006],[99.5,17136],[99.5,17265],[99.5,17381],[99.5,17514],[99.5,17644],[99.5,17772],[99.5,17899],[99.5,18021],[99.5,18145],[99.5,18270],[99.5,18397],[99.5,18525],[99.5,18644],[99.5,18777],[99.5,18900],[99.5,19022],[99.5,19146],[99.5,19272],[99.5,19399],[99.5,19521],[99.5,19644],[99.5,19771],[99.5,19905],[99.5,20033],[99.5,20163],[99.5,20285],[99.5,20415],[99.5,20535],[99.5,20665],[99.5,20785],[99.5,20909],[99.5,21033],[99.5,21155],[99.5,21280],[99.5,21402],[99.5,21533],[99.5,21660],[99.5,21789],[99.5,21913],[99.5,22033],[99.5,22153],[99.5,22275],[99.5,22394],[99.5,22527],[99.5,22645],[99.5,22769],[99.5,22896],[99.5,23028],[99.5,23155],[99.5,23274],[99.5,23394],[99.5,23534],[99.5,23653],[99.5,23767],[99.5,23884],[99.5,24004],[99.5,24122],[99.5,24247],[99.5,24370],[99.5,24491],[99.5,24623],[99.5,24748],[99.5,24872],[99.6,25013],[99.8,25148]]",1,0,1074.5005,1076.4231,99.6875,0.8258,"[{""rating"":99.6875,""responseTime"":0.8258000000716947}]",space,1.1094,,1076.4231,Not at all,0,1081.1526,0.104166667,3.5189,"[{""rating"":0.1041666666666663,""responseTime"":3.5188999999761563}]",space,0,16,16,16,1,audio/Narrative8Situation7.wav,audio/Narrative7Situation7.wav,audio/Narrative6Situation7.wav,audio/Narrative5Situation7.wav,3,5,5,4,,,3.9439,9.99999E-05,,,,,,,,,,,,,,,,,,,,,,,,,,,,,,,,,,,
,,,,,,653932c48f1f4427af84a7f0,2024-02-08_12h48.24.020,group3.1-3.2-social-tom,2023.2.2,Win32,8.467400508,65c5074098b851296ff0b7ed,65c513a38162edf01ba94e0d,,,,,,,,,,,,,,,,,,,,,,,,,,,,,1081.1528,2,audio/Narrative6Situation8.wav,1086.1803,,1086.1803,1093.2351,"[[999,7],[999,129],[999,252],[999,381],[999,508],[55.6,645],[55.1,777],[53.5,904],[52,1028],[51.1,1170],[48.3,1303],[45.6,1439],[45.3,1569],[41,1703],[33,1834],[25.4,1968],[14.8,2105],[6.8,2238],[5,2371],[5,2502],[5,2628],[5,2771],[4.9,2894],[4.8,3031],[4.8,3169],[4.8,3302],[4.8,3437],[4.8,3565],[4.8,3688],[4.8,3810],[4.8,3947],[4.8,4072],[4.8,4194],[4.8,4320],[4.8,4447],[4.8,4565],[4.3,4699],[3.5,4820],[2,4953],[1.7,5074],[1.7,5204],[1.7,5324],[1.7,5446],[1.7,5570],[1.7,5690],[1.7,5817],[1.7,5940],[1.7,6064],[1.7,6184],[1.7,6312],[1.7,6437],[1.7,6562],[1.7,6687],[1.7,6808],[1.7,6933],[1.7,7054]]",1,0,1093.2351,1095.419,0.104166667,1.0788,"[{""rating"":0.1041666666666663,""responseTime"":1.0787999999522526}]",space,1.3665,,1095.419,Definitely yes,100,1095.4208,,,[],,0,17,17,17,1,audio/Narrative8Situation8.wav,audio/Narrative7Situation8.wav,audio/Narrative6Situation8.wav,audio/Narrative5Situation8.wav,3,2,5,3,,,,,,,,,,,,,,,,,,,,,,,,,,,,,,,,,,,,,,,
,,,,,,653932c48f1f4427af84a7f0,2024-02-08_12h48.24.020,group3.1-3.2-social-tom,2023.2.2,Win32,8.467400508,65c5074098b851296ff0b7ed,65c513a38162edf01ba94e0d,,,,,,,,,,,,,,,,,,,,,,,,,,,,,1095.421,2,audio/Narrative6Situation9.wav,1099.5004,,1099.5005,1109.704,"[[36.6,128],[40,264],[41.4,395],[46.5,519],[48.4,649],[48.4,777],[48.4,895],[48.4,1016],[48.4,1141],[48.4,1267],[42.5,1394],[30.3,1530],[26.5,1666],[18.5,1796],[10.6,1931],[9.1,2067],[9.1,2196],[9.1,2326],[9.1,2447],[9.1,2574],[9.1,2699],[9.1,2817],[9.1,2941],[9.1,3074],[9.2,3207],[9.2,3343],[9.2,3467],[9.2,3586],[8.9,3718],[7.2,3834],[5.1,3967],[1.7,4111],[1.7,4235],[1.7,4360],[1.7,4485],[1.7,4605],[1.7,4730],[1.7,4856],[1.7,4980],[1.7,5106],[1.7,5230],[1.7,5348],[1.7,5482],[1.7,5625],[1.7,5750],[1.7,5881],[1.7,6005],[1.7,6139],[1.7,6262],[1.7,6394],[1.7,6519],[1.7,6647],[1.7,6774],[1.7,6895],[1.7,7028],[1.7,7155],[1.7,7276],[1.7,7402],[1.7,7537],[1.7,7662],[1.7,7776],[1.7,7902],[1.7,8035],[1.7,8160],[1.7,8284],[1.7,8406],[1.7,8539],[1.7,8661],[1.7,8787],[1.7,8912],[1.7,9047],[1.7,9172],[1.7,9302],[1.7,9435],[1.5,9564],[1,9698],[0.3,9824],[0.3,9948],[0.3,10076],[0.3,10203]]",1,0,1109.7041,1111.0232,0.3125,0.6628,"[{""rating"":0.3124999999999989,""responseTime"":0.6628000000714565}]",space,0.5332,,1111.0232,Not at all,0,1111.0251,,,[],,0,18,18,18,1,audio/Narrative8Situation9.wav,audio/Narrative7Situation9.wav,audio/Narrative6Situation9.wav,audio/Narrative5Situation9.wav,3,2,4,3,,,,,,,,,,,,,,,,,,,,,,,,,,,,,,,,,,,,,,,
,,,,,,653932c48f1f4427af84a7f0,2024-02-08_12h48.24.020,group3.1-3.2-social-tom,2023.2.2,Win32,8.467400508,65c5074098b851296ff0b7ed,65c513a38162edf01ba94e0d,,,,,,,,,,,,,,,,,,,,,,,,,,,,,,,,,,,,,,,,,,,,,,,,,,,,,,,,,,,,,,,,,,,,,,,,1111.0252,1145.2487,space,33.5778,,1145.2492,1163.2459,space,17.4655,0.0001,,,,,,,,,,,,,,,,,,,,,,,,,
,,,,,,653932c48f1f4427af84a7f0,2024-02-08_12h48.24.020,group3.1-3.2-social-tom,2023.2.2,Win32,8.467400508,65c5074098b851296ff0b7ed,65c513a38162edf01ba94e0d,,,,,,,,,,,,,,,,,,,,,,,,,,,,,1165.8662,1,audio/Narrative8Situation9.wav,1167.9863,,,,,,,1200.4306,1203.2361,50.72916667,1.181,"[{""rating"":50.72916666666667,""responseTime"":1.18100000000004}]",space,1.9965,,1200.4292,Not at all,0,1200.4306,,,[],,,,,,,,,,,2,2,2,2,,,,,,,,,,,,,,,1163.2556,1165.8557,1167.9866,3,1200.4291,"[[999,0],[999,136],[999,265],[999,406],[999,542],[999,663],[999,786],[999,922],[999,1061],[999,1186],[999,1324],[999,1448],[999,1568],[999,1695],[999,1826],[999,1965],[999,2095],[999,2233],[999,2358],[999,2480],[999,2603],[999,2751],[999,2890],[999,3012],[999,3145],[999,3267],[999,3407],[999,3536],[999,3658],[999,3788],[999,3912],[999,4041],[999,4173],[999,4302],[999,4437],[999,4578],[999,4709],[34.1,4845],[34.4,4985],[34.4,5120],[34.4,5249],[34.4,5380],[34.4,5513],[34.4,5639],[32.8,5768],[32.7,5911],[32.1,6037],[30.9,6173],[26.1,6301],[18.6,6437],[15.7,6562],[14.4,6691],[10.6,6820],[7.6,6947],[6.5,7075],[6.5,7203],[6.5,7332],[6.5,7464],[6.5,7595],[6.5,7720],[6.5,7845],[6.5,7986],[6.5,8125],[6.5,8243],[6.5,8372],[6.5,8500],[6.5,8634],[6.5,8766],[6.5,8902],[6.5,9038],[6.5,9165],[6.5,9295],[6.5,9433],[6.5,9569],[6.5,9707],[6.5,9832],[6.5,9959],[6.5,10096],[6.5,10230],[6.5,10360],[6.5,10488],[6.5,10620],[6.5,10744],[6.5,10864],[6.5,10997],[6.5,11126],[6.5,11256],[6.5,11379],[6.5,11520],[6.5,11663],[6.5,11791],[6.5,11920],[6.5,12047],[6.3,12169],[4.3,12304],[2.6,12430],[2.4,12556],[2.4,12681],[2.4,12811],[2.4,12947],[2.4,13071],[2.4,13194],[2.4,13331],[2.4,13453],[2.4,13593],[2.4,13725],[2.4,13844],[2.4,13972],[2.4,14107],[2.4,14254],[2.4,14400],[2.4,14533],[2.4,14656],[2.4,14780],[2.4,14917],[2.4,15043],[2.4,15176],[2.4,15302],[2.4,15427],[2.4,15564],[2.4,15687],[2.4,15825],[2.4,15953],[2.4,16092],[2.4,16217],[2.4,16348],[2.4,16485],[2.4,16617],[2.4,16739],[2.4,16867],[2.4,16994],[2.4,17127],[2.4,17250],[2.4,17375],[2.4,17505],[2.4,17632],[2.4,17761],[2.4,17888],[2.4,18007],[2.4,18136],[2.4,18268],[2.4,18393],[2.4,18521],[2.4,18655],[2.4,18780],[2.4,18917],[2.4,19040],[2.4,19168],[2.4,19297],[2.4,19435],[2.4,19564],[2.4,19693],[2.4,19821],[2.4,19951],[2.4,20082],[2.4,20214],[2.4,20344],[2.4,20468],[2.4,20594],[2.4,20720],[2.4,20858],[2.4,20980],[2.4,21116],[2.4,21239],[2.4,21369],[2.4,21504],[2.4,21640],[2.4,21762],[2.4,21893],[2.4,22028],[2.4,22156],[2.4,22281],[2.4,22410],[2.4,22533],[2.4,22657],[2.4,22797],[2.4,22917],[2.4,23068],[2.4,23205],[2.4,23332],[2.4,23466],[2.4,23596],[2.4,23729],[2.4,23851],[2.4,23984],[2.4,24119],[2.4,24244],[2.4,24373],[2.4,24500],[2.4,24638],[2.4,24774],[2.4,24900],[2.4,25027],[2.4,25160],[2.4,25282],[2.4,25405],[2.4,25528],[2.4,25658],[2.4,25784],[2.4,25911],[2.4,26036],[2.4,26174],[2.4,26306],[2.4,26441],[2.4,26565],[2.4,26689],[2.4,26818],[2.4,26943],[2.4,27068],[2.4,27206],[2.4,27332],[2.4,27449],[2.4,27579],[2.8,27701],[2.9,27849],[3.1,27975],[3.5,28111],[5,28241],[7.7,28370],[9.5,28501],[13,28643],[16.4,28769],[18.8,28913],[19.3,29057],[20.2,29191],[23.6,29330],[27.5,29471],[30.6,29599],[32.3,29724],[32.8,29854],[34.1,29989],[35.6,30113],[41.7,30250],[42.4,30384],[44.3,30509],[49.5,30648],[50.7,30778],[50.7,30909],[50.7,31030],[50.7,31163],[50.7,31291],[50.7,31417],[50.7,31553],[50.7,31676],[50.7,31806],[50.7,31932],[50.7,32055],[50.7,32182],[50.7,32309],[50.7,32441]]",0,0,0,0,1,"Larry had recently lost his family, job and home, and was now living on his own in the park. He had most of his belongings, including some clothes, a blanket, and his mother’s special necklace. His family had been very important to him and he felt as though he did not have much going for him. One of his first days in the park he came across a family that did not have much food and looked very cold. He decided to give them some of his food and his blanket.","Larry had recently lost his family, job and home, and was now living on his own in the park. He had most of his belongings, including some clothes, a blanket, and his mother’s special necklace. His family had been very important to him and he felt as though he did not have much going for him. One of his first days in the park he came across a family that did not have much food and looked very cold. He decided to give them some of his food and his blanket.","Larry had recently lost his family, job and home, and was now living on his own in the park. He had most of his belongings, including some clothes, a blanket, and his mother’s special necklace. His family had been very important to him and he felt as though he did not have much going for him. One of his first days in the park he came across a family that did not have much food and looked very cold. He decided to give them some of his food and his blanket.","Larry had recently lost his family, job and home, and was now living on his own in the park. He had most of his belongings, including some clothes, a blanket, and his mother’s special necklace. His family had been very important to him and he felt as though he did not have much going for him. One of his first days in the park he came across a family that did not have much food and looked very cold. He decided to give them some of his food and his blanket.",,,,,,,,,,
,,,,,,653932c48f1f4427af84a7f0,2024-02-08_12h48.24.020,group3.1-3.2-social-tom,2023.2.2,Win32,8.467400508,65c5074098b851296ff0b7ed,65c513a38162edf01ba94e0d,,,,,,,,,,,,,,,,,,,,,,,,,,,,,1203.2364,1,audio/Narrative8Situation9.wav,1205.9966,space,,,,,,1240.1763,1242.3341,11.77083333,1.2067,"[{""rating"":11.770833333333336,""responseTime"":1.20669999992856}]",space,1.3409,,1240.1668,Partially,50,1240.1763,,,[],,,,,,,,,,,6,2,3,9,2.6457,0.0001,,,,,,,,,,,,,,,1205.9966,3,1240.1668,"[[999,0],[999,133],[999,256],[999,385],[59.1,508],[59.1,634],[59.1,759],[47.2,1026],[39.5,1163],[39.5,1297],[39.4,1422],[35.2,1550],[27.3,1687],[6.8,2478],[5.8,2606],[5.1,2734],[4.8,2869],[4.6,3000],[4.6,3128],[4.6,3258],[4.6,3387],[4.6,3531],[4.6,3658],[4.8,3798],[5.1,3923],[5.1,4050],[5.2,4184],[5.2,4305],[5.2,4437],[5.2,4568],[5.2,4719],[5.2,4859],[5.2,4995],[5.3,5127],[5.4,5259],[5.5,5387],[5.5,5511],[5.5,5635],[5.5,5762],[5.7,5889],[5.7,6018],[5.7,6144],[5.7,6271],[5.7,6405],[5.7,6530],[5.7,6651],[5.7,6786],[5.7,6914],[5.7,7041],[5.7,7170],[5.7,7295],[5.7,7426],[5.7,7553],[5.7,7689],[5.7,7810],[5.7,7944],[5.7,8065],[5.7,8198],[5.7,8335],[5.7,8462],[5.7,8592],[5.7,8713],[5.7,8845],[5.7,8967],[5.7,9098],[5.7,9224],[5.7,9366],[5.7,9502],[5.7,9635],[5.7,9763],[5.7,9885],[5.7,10012],[5.7,10141],[5.7,10268],[5.7,10398],[5.6,10523],[5.6,10650],[5.6,10773],[5.6,10891],[5.6,11014],[5.6,11137],[5.6,11268],[5.6,11398],[5.6,11524],[5.6,11653],[5.6,11780],[5.6,11908],[5.6,12036],[5.6,12157],[5.6,12298],[5.6,12424],[5.6,12553],[5.6,12669],[5.6,12786],[5.6,12913],[5.6,13030],[5.6,13166],[5.6,13294],[5.6,13419],[5.6,13546],[5.6,13681],[5.6,13811],[5.6,13945],[5.6,14083],[5.6,14221],[5.6,14353],[5.6,14495],[5.6,14630],[5.6,14752],[5.6,14874],[5.6,14996],[5.6,15131],[5.6,15264],[5.6,15392],[5.6,15534],[5.6,15663],[5.6,15784],[5.6,15910],[5.6,16029],[5.6,16153],[5.6,16282],[8.4,16404],[10.6,16542],[11.8,16667],[13.6,16801],[15.4,16928],[15.9,17062],[15.9,17196],[15.9,17329],[15.9,17452],[15.9,17580],[15.9,17702],[15.9,17825],[15.9,17953],[15.9,18078],[15.9,18205],[15.9,18331],[15.9,18458],[15.9,18600],[15.9,18734],[15.9,18861],[16,18978],[16,19104],[16,19234],[16,19354],[16,19482],[16,19607],[16,19735],[16,19858],[16,19984],[16,20108],[16,20235],[16,20353],[16,20482],[16,20619],[16,20750],[16,20877],[16,21000],[16,21119],[16,21246],[16,21377],[16,21513],[16,21651],[16,21779],[16,21909],[16,22053],[16,22178],[16,22312],[16,22444],[16,22573],[16,22708],[16,22836],[16,22981],[16,23112],[16,23237],[16,23361],[16,23481],[16,23615],[16,23749],[16,23892],[16,24021],[16,24153],[16,24284],[16,24404],[16,24538],[16,24668],[16,24802],[16.1,24929],[16.1,25067],[16.1,25209],[16.1,25337],[16.1,25467],[16.1,25595],[16.9,25736],[17.1,25864],[17.1,25994],[17.1,26127],[17.1,26257],[17.2,26394],[17.2,26520],[17.8,26652],[17.8,26794],[17.8,26930],[17.8,27064],[17.8,27191],[17.8,27320],[17.8,27448],[17.8,27578],[17.8,27700],[17.8,27831],[17.8,27948],[17.8,28076],[17.8,28195],[17.8,28316],[17.8,28439],[17.8,28565],[17.8,28687],[17.8,28817],[17.8,28944],[17.8,29071],[17.8,29195],[17.8,29318],[17.8,29442],[17.8,29564],[17.8,29687],[17.8,29816],[17.8,29960],[17.8,30088],[17.8,30220],[17.8,30366],[17.8,30495],[17.8,30617],[17.8,30748],[17.8,30874],[17.8,30995],[17.8,31125],[17.8,31257],[17.8,31378],[17.8,31507],[17.8,31626],[17.8,31755],[17.8,31898],[17.8,32029],[17.8,32163],[17.8,32290],[17.8,32423],[17.8,32553],[17.8,32672],[17.8,32791],[17.8,32920],[17.8,33041],[17.8,33168],[17.8,33292],[17.8,33418],[17.8,33545],[17.8,33668],[17.8,33788],[17.8,33916],[17.8,34049],[17.8,34170]]",0,1,1,1,1,"It was just another Sunday afternoon for Lucy, she was on her way to the farmer's market to pick up some produce. When she arrived at the old train depot that housed the market, she noticed two men fighting on the steps. Before she could call for help, one of the men crumpled to his knees. The other man dropped an object that appeared to be a knife and ran off. When Lucy approached the crime scene she realized that the man who had been murdered was the Mayor and that he had a gunshot wound.","One day at work, Margaret walked up to her partner, Al, to ask him to talk to the chief of staff at the local hospital where she worked as a nurse.","Luke always thought of himself as an honest man. That's why during his evening jog around the swamp, he pondered his recent affair with the receptionist at work. Luke looked up at the sky and asked God why he was so weak and unfaithful. He thought of the impact this would have on his family and told God of his conflicted feelings toward telling his wife Marta.","Linda and Amy had been best friends since kindergarten, they even found homes on the same street in the forest on the edge of town. Their biggest fight had been over who gets the bigger slice of cake, until Amy married Dan. Linda loathed Dan, she thought he was manipulative and had a violent temper. She only put up with him because Amy loved him. ",,,,,,,,,,
,,,,,,653932c48f1f4427af84a7f0,2024-02-08_12h48.24.020,group3.1-3.2-social-tom,2023.2.2,Win32,8.467400508,65c5074098b851296ff0b7ed,65c513a38162edf01ba94e0d,,,,,,,,,,,,,,,,,,,,,,,,,,,,,1242.3343,1,audio/Narrative8Situation9.wav,1246.3775,,,,,,,1265.4077,1267.644,42.70833333,1.32,"[{""rating"":42.70833333333333,""responseTime"":1.3199999999999363}]",space,1.4549,,1265.4067,Partially,50,1265.4077,,,[],,,,,,,,,,,4,5,2,2,,,,,,,,,,,,,,,,,1246.3775,3,1265.4066,"[[999,8],[999,129],[999,261],[999,382],[999,513],[999,641],[999,777],[999,904],[9.9,1041],[9.9,1163],[9.7,1298],[9.5,1423],[9.5,1549],[9.5,1681],[9.5,1810],[9.5,1947],[9.5,2076],[9.5,2205],[9.5,2327],[9.5,2446],[9.5,2573],[9.5,2701],[7.1,2838],[3.9,2962],[1,3086],[1,3212],[1,3338],[1,3473],[1,3597],[1,3721],[1,3861],[1,3988],[1,4137],[1,4269],[1,4395],[1,4521],[1,4647],[1,4786],[1,4916],[1,5040],[1,5165],[1,5284],[1,5407],[1,5542],[1,5668],[1,5795],[1,5929],[1,6056],[1,6183],[1,6330],[1,6465],[1,6598],[1,6727],[1,6855],[1,6978],[1,7102],[1,7223],[1,7349],[1,7476],[1,7606],[1,7731],[1,7859],[1,7989],[1,8117],[1,8246],[1,8372],[1,8494],[1,8622],[1,8759],[1,8881],[1,9008],[1,9132],[1,9261],[1,9392],[1,9520],[1,9647],[1,9778],[1,9905],[1,10029],[1,10158],[1,10295],[1,10429],[1,10550],[1,10676],[1,10810],[1,10938],[1,11060],[1,11186],[1,11331],[1,11462],[1,11589],[1,11715],[1,11840],[1,11975],[1,12103],[1,12231],[1,12362],[1,12491],[1,12614],[1,12740],[1,12875],[1,13003],[1,13138],[1,13266],[1,13400],[1,13523],[1,13663],[1,13789],[1,13925],[1,14052],[1,14175],[1,14301],[1,14432],[1,14559],[1,14686],[1,14810],[1,14937],[1,15065],[1,15190],[1,15311],[1,15435],[1,15570],[1,15694],[2.7,15823],[5,15954],[6.6,16085],[7.2,16211],[9.7,16340],[13.8,16484],[14.4,16613],[14.4,16731],[14.4,16852],[14.4,16974],[14.4,17102],[14.4,17229],[14.4,17348],[14.4,17488],[15.6,17626],[16.4,17746],[17.7,17888],[21.5,18021],[31.7,18152],[37.1,18284],[44.8,18424],[47.2,18546],[47.3,18669],[50.3,18786],[53.6,18903],[54.4,19028]]",0,2,2,2,1,On the ground beside him was a pen that she had mistaken for a knife. Lucy looked for the gunman and saw a suspicious man in black with distinct pointy features darting into an alley across the street. Cops who were nearby chased the man who had fled and arrested him.,"While waiting outside the chief of staff's office, Al heard nondescript shouting and yelling, there was a loud clatter in the room and then an eerie silence. An unfamiliar employee ran hastily out of the office with a terrified look on their face.","Suddenly, Luke heard a woman call out his name and when he turned around he saw Carly, his receptionist, across the road with a gun in her hand. Carly ran to him and explained how she had followed him here to confess her love. She exclaimed if Luke didn't love her back that she would kill him and his family. Carly explained that the only way they could be together is to kill Marta.","This feeling of hate between Amy and Dan was mutual, Dan didn't like how much time his wife spent with her and thought Amy was creating distance between their marriage. That's why Dan decided to try and tarnish Linda's reputation with his wife, in hopes it would get rid of her. He came home one afternoon and exclaimed that Linda had tried to kiss him. Amy was taken aback and immediately called Linda to confront her about these accusations. When Linda arrived she denied having made a move on Dan, but discovered Dan had enlisted the help of his friend Will who said he witnessed it all happen.",,,,,,,,,,
