exp_question,consent.started,consent.stopped,consentResponse.keys,consentResponse.rt,consentResponse.duration,participantID,date,expName,psychopyVersion,OS,frameRate,STUDY_ID,SESSION_ID,opening1.started,opening1.stopped,keyEndingOpening1.keys,keyEndingOpening1.rt,keyEndingOpening1.duration,volumeAdjust.started,volumeAdjust.stopped,endingAdjust.keys,endingAdjust.rt,endingAdjust.duration,opening2.started,opening2.stopped,keyEndingOpening.keys,keyEndingOpening.rt,keyEndingOpening.duration,mouse.x,mouse.y,mouse.leftButton,mouse.midButton,mouse.rightButton,mouse.time,instructionLoop.thisRepN,instructionLoop.thisTrialN,instructionLoop.thisN,instructionLoop.thisIndex,instructionLoop.ran,readyForAudio.started,readyForAudio.stopped,fixation.started,run,audio_played,fixation.stopped,endPractice.keys,audioPre.started,audioPre.stopped,continuousResponses_audio,continuousSlider.response,continuousSlider.rt,intRating.started,intRating.stopped,intQuestionSlider.response,intQuestionSlider.rt,intQuestionSlider.history,confirmResponse.keys,confirmResponse.rt,confirmResponse.duration,catchQuestion.started,catch_label,catch_value,catchQuestion.stopped,catchQuestionSlider.response,catchQuestionSlider.rt,catchQuestionSlider.history,confirmResponse_2.keys,audioRunLoop.thisRepN,audioRunLoop.thisTrialN,audioRunLoop.thisN,audioRunLoop.thisIndex,audioRunLoop.ran,conditions1_1,conditions2_1,conditions1_2,conditions2_2,dur1_1,dur2_1,dur1_2,dur2_2,endPractice.rt,endPractice.duration,confirmResponse_2.rt,confirmResponse_2.duration,runIntervalBreak.started,runIntervalBreak.stopped,endingBreakKey.keys,endingBreakKey.rt,endingBreakKey.duration,connection.started,connection.stopped,connectionEnding.keys,connectionEnding.rt,connectionEnding.duration,readyForText.started,readyForText.stopped,textPre.started,run_dup,textPre.stopped,continuousResponses_text,textRunLoop.thisRepN,textRunLoop.thisTrialN,textRunLoop.thisN,textRunLoop.thisIndex,textRunLoop.ran,text1_1,text1_2,text2_1,text2_2,runBreakText.started,runBreakText.stopped,endingBreakKey_2.keys,endingBreakKey_2.rt,endingBreakKey_2.duration,ending.started,ending.stopped,endingEnding.keys,endingEnding.rt,endingEnding.duration
tom,0.0004,12.0583,y,11.7347,,656397844d363e786bc5ed4b,2024-02-08_15h02.55.857,group3.1-3.2-social-tom,2023.2.2,Win32,59.52380952,65c5074098b851296ff0b7ed,65c5416d3d48c4665308acbb,,,,,,,,,,,,,,,,,,,,,,,,,,,,,,,,,,,,,,,,,,,,,,,,,,,,,,,,,,,,,,,,,,,,,,,,,,,,,,,,,,,,,,,,,,,,,,,,,,,,,,,,,,
,,,,,,656397844d363e786bc5ed4b,2024-02-08_15h02.55.857,group3.1-3.2-social-tom,2023.2.2,Win32,59.52380952,65c5074098b851296ff0b7ed,65c5416d3d48c4665308acbb,12.0589,16.4334,space,4.3245,,,,,,,,,,,,,,,,,,,,,,,,,,,,,,,,,,,,,,,,,,,,,,,,,,,,,,,,,,,,,,,,,,,,,,,,,,,,,,,,,,,,,,,,,,,,,,,,,,,,,,
,,,,,,656397844d363e786bc5ed4b,2024-02-08_15h02.55.857,group3.1-3.2-social-tom,2023.2.2,Win32,59.52380952,65c5074098b851296ff0b7ed,65c5416d3d48c4665308acbb,,,,,,16.4336,28.8988,space,12.1371,,,,,,,,,,,,,,,,,,,,,,,,,,,,,,,,,,,,,,,,,,,,,,,,,,,,,,,,,,,,,,,,,,,,,,,,,,,,,,,,,,,,,,,,,,,,,,,,,
,,,,,,656397844d363e786bc5ed4b,2024-02-08_15h02.55.857,group3.1-3.2-social-tom,2023.2.2,Win32,59.52380952,65c5074098b851296ff0b7ed,65c5416d3d48c4665308acbb,,,,,,,,,,,28.9063,35.0153,space,6.0884,,[],[],[],[],[],[],0,0,0,0,1,,,,,,,,,,,,,,,,,,,,,,,,,,,,,,,,,,,,,,,,,,,,,,,,,,,,,,,,,,,,,,,,,,,,,,,,,,,,,,,,
,,,,,,656397844d363e786bc5ed4b,2024-02-08_15h02.55.857,group3.1-3.2-social-tom,2023.2.2,Win32,59.52380952,65c5074098b851296ff0b7ed,65c5416d3d48c4665308acbb,,,,,,,,,,,35.0163,56.8795,space,21.7617,,[],[],[],[],[],[],1,0,1,0,1,,,,,,,,,,,,,,,,,,,,,,,,,,,,,,,,,,,,,,,,,,,,,,,,,,,,,,,,,,,,,,,,,,,,,,,,,,,,,,,,
,,,,,,656397844d363e786bc5ed4b,2024-02-08_15h02.55.857,group3.1-3.2-social-tom,2023.2.2,Win32,59.52380952,65c5074098b851296ff0b7ed,65c5416d3d48c4665308acbb,,,,,,,,,,,56.9001,67.9781,space,11.034,,[],[],[],[],[],[],2,0,2,0,1,,,,,,,,,,,,,,,,,,,,,,,,,,,,,,,,,,,,,,,,,,,,,,,,,,,,,,,,,,,,,,,,,,,,,,,,,,,,,,,,
,,,,,,656397844d363e786bc5ed4b,2024-02-08_15h02.55.857,group3.1-3.2-social-tom,2023.2.2,Win32,59.52380952,65c5074098b851296ff0b7ed,65c5416d3d48c4665308acbb,,,,,,,,,,,67.9989,100.1249,space,32.1012,,[],[],[],[],[],[],3,0,3,0,1,,,,,,,,,,,,,,,,,,,,,,,,,,,,,,,,,,,,,,,,,,,,,,,,,,,,,,,,,,,,,,,,,,,,,,,,,,,,,,,,
,,,,,,656397844d363e786bc5ed4b,2024-02-08_15h02.55.857,group3.1-3.2-social-tom,2023.2.2,Win32,59.52380952,65c5074098b851296ff0b7ed,65c5416d3d48c4665308acbb,,,,,,,,,,,100.1452,107.0909,space,6.924,,[],[],[],[],[],[],4,0,4,0,1,,,,,,,,,,,,,,,,,,,,,,,,,,,,,,,,,,,,,,,,,,,,,,,,,,,,,,,,,,,,,,,,,,,,,,,,,,,,,,,,
,,,,,,656397844d363e786bc5ed4b,2024-02-08_15h02.55.857,group3.1-3.2-social-tom,2023.2.2,Win32,59.52380952,65c5074098b851296ff0b7ed,65c5416d3d48c4665308acbb,,,,,,,,,,,,,,,,,,,,,,,,,,,107.1151,109.6898,109.7038,1,audio/Narrative13Situation2.wav,111.7068,,111.7072,141.4713,"[[999,1],[999,132],[999,216],[999,299],[999,382],[999,465],[999,548],[999,632],[999,715],[999,798],[999,882],[999,966],[999,1048],[999,1132],[999,1215],[999,1298],[999,1382],[999,1466],[999,1549],[999,1632],[999,1716],[999,1799],[999,1882],[999,1965],[999,2048],[999,2132],[999,2216],[999,2299],[999,2382],[999,2466],[999,2548],[999,2632],[999,2715],[999,2799],[999,2882],[999,2965],[999,3048],[999,3132],[999,3215],[999,3298],[999,3382],[999,3465],[999,3549],[999,3632],[999,3715],[999,3799],[999,3882],[999,3965],[999,4049],[999,4132],[999,4218],[999,4298],[999,4382],[51.4,4465],[49.8,4549],[49.6,4632],[49.7,4715],[49.8,4798],[49.9,4882],[49.9,4965],[49.9,5048],[49.9,5132],[49.9,5215],[49.9,5298],[49.9,5381],[49.9,5465],[49.9,5548],[49.9,5631],[49.9,5715],[49.9,5798],[49.9,5881],[49.9,5965],[49.9,6048],[49.9,6131],[49.9,6215],[49.9,6298],[49.9,6381],[49.9,6465],[49.9,6548],[49.9,6631],[49.9,6715],[49.9,6798],[49.9,6882],[49.9,6965],[49.9,7048],[49.9,7131],[49.9,7215],[49.9,7298],[49.9,7381],[49.9,7465],[49.9,7548],[49.9,7631],[49.9,7715],[49.9,7798],[49.9,7881],[49.9,7965],[49.9,8048],[49.9,8132],[49.9,8216],[49.9,8298],[49.9,8382],[49.9,8465],[49.9,8548],[49.9,8632],[49.9,8715],[49.9,8798],[49.9,8882],[49.9,8965],[49.9,9048],[49.9,9131],[49.9,9215],[49.9,9298],[49.9,9381],[50,9465],[56.1,9547],[64.9,9631],[69.2,9714],[73.3,9798],[74.2,9881],[74.6,9964],[75,10048],[75.8,10133],[76.9,10216],[77.3,10298],[78.9,11882],[77.6,11964],[77.6,12048],[77.8,12131],[78.1,12214],[78.4,12299],[79.2,12381],[79.7,12464],[80.5,12548],[81.3,12631],[81.8,12714],[82,12798],[82.1,12881],[82.1,12965],[82.1,13048],[82.1,13131],[82.2,13214],[82.5,13298],[82.6,13381],[82.6,13464],[82.6,13547],[82.6,13631],[82.6,13714],[82.6,13798],[82.6,13881],[82.6,13964],[82.6,14047],[82.6,14130],[82.6,14214],[82.6,14297],[82.6,14381],[82.4,14464],[82,14547],[81.9,14631],[81.5,14715],[81.4,14798],[81.1,14881],[81,14964],[80.8,15047],[80.6,15131],[80.6,15214],[80.5,15297],[80.5,15381],[80.3,15464],[80.1,15547],[79.8,15630],[79.3,15715],[79.1,15797],[79,15880],[78.7,15964],[78.7,16047],[78.7,16131],[78.7,16214],[78.6,16297],[78.6,16381],[78.6,16465],[78.6,16547],[78.6,16631],[78.6,16714],[78.6,16797],[78.6,16881],[78.6,16965],[78.6,17047],[78.6,17131],[78.6,17213],[78.6,17297],[78.6,17380],[78.6,17464],[78.6,17547],[78.6,17631],[78.6,17714],[78.2,17797],[70,17881],[58.4,17965],[48.2,18048],[40.1,18131],[34.4,18213],[30.3,18297],[26.8,18380],[23.5,18463],[20.5,18547],[17.8,18630],[16.5,18713],[15.4,18797],[14.7,18880],[14.5,18963],[14.4,19047],[14.3,19130],[14.3,19213],[14.3,19297],[14.3,19380],[14.3,19463],[14.3,19547],[14.3,19630],[14.3,19713],[14.3,19797],[14.3,19880],[14.3,19964],[14.3,20046],[14.3,20130],[14.3,20213],[14.3,20297],[14.3,20380],[14.3,20463],[14.3,20546],[14.3,20630],[14.3,20713],[14.3,20796],[14.3,20880],[14.3,20963],[14.3,21047],[14.3,21130],[14.3,21214],[14.3,21297],[14.3,21380],[14.3,21463],[14.3,21547],[14.3,21630],[14.3,21713],[14.3,21796],[14.3,21880],[14.3,21963],[14.3,22046],[14.3,22130],[14.3,22213],[14.3,22296],[14.3,22380],[14.3,22463],[14.3,22546],[17.1,22630],[27.9,22715],[33.2,22796],[37.7,22881],[43.9,22964],[49.4,23046],[54,23130],[60.2,23213],[79.1,23963],[78.4,24047],[76.7,24130],[76.3,24213],[76.5,24296],[76.6,24380],[77.4,24463],[78,24547],[78.5,24630],[78.6,24714],[79.4,24797],[79.7,24880],[79.7,24963],[79.7,25046],[79.7,25130],[79.7,25213],[79.7,25296],[79.7,25380],[79.7,25463],[79.7,25546],[79.7,25630],[79.7,25713],[79.7,25796],[79.7,25880],[79.7,25963],[79.9,26046],[80.2,26130],[80.4,26213],[80.7,26296],[81.8,26381],[83.1,26463],[83.6,26547],[84.6,26630],[85.4,26714],[86.4,26797],[86.9,26880],[87.2,26963],[87.3,27046],[87.3,27130],[87.3,27213],[87.3,27296],[87.3,27379],[87.5,27463],[87.5,27546],[88,27631],[88.3,27713],[88.5,27796],[88.7,27880],[88.9,27963],[88.9,28046],[88.9,28129],[88.9,28213],[88.9,28296],[88.9,28379],[88.9,28462],[88.9,28546],[88.9,28629],[88.9,28713],[88.9,28796],[88.9,28879],[88.9,28962],[88.9,29046],[88.9,29129],[88.9,29213],[88.9,29296],[88.9,29379],[88.9,29462],[88.9,29546],[88.9,29629],[88.9,29713]]",1,0,141.4717,152.1534,64.68749841,7.2561,"[{""rating"":64.68749841054282,""responseTime"":7.256100000023849}]",space,10.1496,,152.1539,All the time,100,152.1597,,,[],,0,0,0,0,1,audio/Narrative13Situation2.wav,audio/Narrative13Situation2.wav,audio/Narrative13Situation2.wav,audio/Narrative13Situation2.wav,2,2,2,2,,,,,,,,,,,,,,,,,,,,,,,,,,,,,,,,,,,,,,,
,,,,,,656397844d363e786bc5ed4b,2024-02-08_15h02.55.857,group3.1-3.2-social-tom,2023.2.2,Win32,59.52380952,65c5074098b851296ff0b7ed,65c5416d3d48c4665308acbb,,,,,,,,,,,,,,,,,,,,,,,,,,,,,152.1601,1,audio/Narrative7Situation1.wav,159.7525,space,159.7526,215.6458,"[[999,23],[999,98],[999,182],[999,265],[999,348],[999,432],[999,515],[999,599],[999,682],[999,765],[999,849],[999,932],[999,1015],[999,1098],[999,1182],[999,1266],[999,1349],[999,1433],[999,1516],[49.5,1600],[50.3,1682],[51,1765],[51,1848],[51,1932],[51,2015],[51,2098],[51,2182],[51,2265],[51,2348],[51,2432],[51,2515],[51,2598],[51,2681],[51,2765],[51,2848],[50.9,2931],[50.7,3015],[50.6,3099],[50.6,3182],[50.6,3265],[50.6,3348],[50.6,3432],[50.6,3515],[50.6,3598],[50.6,3681],[50.6,3765],[50.6,3848],[50.6,3931],[50.6,4015],[50.6,4098],[50.6,4181],[50.6,4265],[50.6,4348],[50.6,4431],[50.6,4515],[50.6,4598],[50.6,4681],[50.6,4765],[46.7,4848],[40,4932],[36.8,5016],[35.7,5098],[35,5181],[32.2,5265],[28.1,5348],[25.6,5432],[23.6,5515],[22.5,5598],[21.8,5681],[21.8,5765],[21.5,5849],[21,5931],[21,6015],[21,6098],[21,6181],[21,6265],[21,6348],[21,6431],[21,6515],[21,6598],[21,6681],[21,6765],[21,6848],[21,6931],[21,7015],[21,7098],[21,7181],[21,7265],[21,7348],[21,7431],[21,7515],[21,7598],[21,7681],[21,7765],[21,7848],[21,7931],[21,8014],[21,8098],[21,8181],[21,8264],[21,8348],[21,8431],[21,8514],[21,8598],[21,8681],[21,8764],[21,8848],[21,8930],[21,9014],[21,9098],[21,9181],[21,9265],[21,9348],[21,9431],[21,9514],[21,9598],[21,9681],[21,9764],[21,9848],[21,9931],[21,10014],[21,10098],[21,10181],[21,10264],[21,10348],[21,10431],[21,10514],[21,10598],[21,10680],[21,10764],[21,10849],[21,10931],[21,11014],[21,11098],[21,11181],[21,11264],[21,11348],[21,11431],[21,11514],[21,11598],[21,11681],[21,11764],[21,11847],[21,11931],[21,12014],[23,12097],[35.4,12181],[49.3,12264],[56.4,12347],[66,12433],[70.9,12514],[73.5,12598],[75.8,12681],[78.2,12764],[79.7,12848],[80.7,12930],[80.7,13014],[80.7,13097],[80.8,13181],[80.8,13264],[80.8,13347],[80.8,13431],[80.8,13514],[80.8,13597],[80.8,13681],[80.8,13763],[80.8,13847],[80.8,13930],[80.8,14014],[80.8,14097],[80.8,14180],[80.8,14264],[80.8,14347],[80.8,14430],[80.8,14514],[80.8,14597],[80.8,14680],[80.8,14763],[80.8,14847],[80.8,14930],[80.8,15014],[80.8,15097],[80.8,15180],[80.8,15264],[80.8,15347],[80.8,15430],[80.8,15513],[80.8,15597],[80.8,15680],[80.8,15764],[80.8,15847],[80.8,15930],[80.8,16014],[80.8,16097],[80.8,16180],[80.8,16263],[80.8,16348],[80.8,16430],[80.8,16514],[80.8,16597],[80.8,16680],[80.8,16764],[80.8,16847],[80.8,16930],[80.8,17013],[80.8,17097],[80.8,17180],[80.8,17263],[80.8,17347],[80.8,17430],[80.8,17513],[80.8,17597],[80.8,17680],[80.8,17763],[80.8,17847],[80.8,17930],[80.8,18013],[80.8,18097],[80.8,18180],[80.8,18263],[80.8,18347],[80.8,18430],[80.8,18513],[80.4,18602],[79.8,18680],[79.6,18763],[78.4,18847],[74.8,18930],[72,19014],[71.5,19097],[71.5,19180],[71.5,19263],[71.5,19347],[67.6,19430],[62.1,19514],[55.2,19597],[47.3,19680],[40,19763],[34.2,19847],[31.7,19932],[28.7,20013],[27.3,20098],[26.4,20181],[25.4,20264],[24.4,20347],[23.5,20430],[22.5,20513],[22.1,20597],[22.1,20680],[22.1,20763],[22.1,20847],[22.1,20930],[22.1,21013],[22.1,21096],[22.1,21180],[22.1,21263],[22.1,21347],[22.1,21430],[22.1,21513],[22.1,21596],[22.1,21680],[22.1,21763],[22.1,21847],[22.1,21930],[22.1,22013],[22.1,22096],[22.1,22180],[22.1,22263],[22.1,22346],[22.1,22430],[22.1,22513],[22.1,22596],[22.1,22679],[22.1,22763],[22.1,22846],[22.1,22929],[22.1,23013],[22.1,23096],[22.1,23180],[22.1,23263],[22.1,23346],[22.1,23430],[22.1,23513],[22.1,23596],[22.1,23679],[22.1,23763],[22.1,23846],[22.1,23929],[22.1,24012],[22.1,24096],[22.1,24179],[22.1,24263],[22.1,24346],[22.1,24430],[22.1,24513],[22.1,24597],[22.1,24680],[22.1,24763],[22.1,24846],[22.1,24929],[22.1,25012],[22.1,25096],[22.1,25179],[22.1,25263],[22.1,25346],[22.1,25430],[22.1,25513],[22.1,25597],[22.1,25680],[22.1,25762],[22.1,25846],[22.1,25929],[22.1,26013],[22.1,26096],[22.1,26179],[22.1,26262],[22.1,26346],[22.1,26429],[22.1,26513],[22.1,26596],[22.1,26680],[22.1,26763],[22.1,26846],[22.1,26929],[22.1,27013],[22.1,27096],[22.1,27179],[22.1,27263],[22.1,27346],[22.1,27429],[22.1,27513],[22.1,27596],[22.1,27679],[22.1,27763],[22.1,27846],[22.1,27929],[22.1,28012],[22.1,28096],[22.1,28179],[22.1,28262],[22.1,28346],[22.1,28429],[22.1,28512],[22.1,28596],[22.1,28679],[22.1,28763],[22.1,28846],[22.1,28929],[22.1,29013],[22.1,29096],[22.1,29179],[22.1,29262],[22.1,29346],[22.1,29429],[22.1,29513],[22.1,29596],[22.1,29679],[22.1,29762],[22.1,29846],[22.1,29929],[22.1,30012],[22.1,30096],[22.1,30179],[22.1,30262],[22.1,30346],[22.1,30429],[22.1,30512],[22.1,30595],[22.1,30679],[21.5,30762],[20.6,30846],[20.6,30929],[20.6,31012],[20.6,31096],[20.6,31180],[17.7,31262],[15.7,31345],[15.2,31429],[15.1,31512],[15.1,31595],[15.1,31678],[15.1,31761],[15.1,31845],[15.1,31928],[15.1,32012],[15.1,32096],[15.1,32180],[15.1,32262],[15.1,32346],[15.1,32428],[15.1,32512],[15.1,32595],[15.1,32679],[15.1,32762],[15.1,32846],[15.1,32930],[15.1,33012],[15.1,33096],[15.1,33179],[15.1,33262],[15.1,33346],[15.1,33429],[15.1,33512],[15.1,33595],[15.1,33678],[15.1,33762],[15.1,33845],[15.1,33929],[15.1,34012],[15.3,34095],[15.3,34178],[15.3,34262],[15.4,34345],[15.5,34429],[15.5,34512],[15.6,34595],[15.6,34678],[15.8,34762],[16.4,34845],[17.2,34928],[18.4,35012],[20,35095],[20.8,35178],[22.2,35262],[22.4,35345],[23.4,35428],[25.4,35511],[27.6,35595],[33.5,35678],[44.5,35762],[52.7,35845],[56.1,35929],[57.8,36012],[60.2,36096],[62.1,36180],[65.1,36262],[69,36345],[71.7,36429],[74.6,36511],[77,36595],[78.9,36678],[80.6,36761],[82.3,36845],[83.1,36928],[83.1,37012],[84.9,37095],[86.8,37179],[88.4,37262],[89.5,37345],[89.8,37429],[89.8,37512],[89.8,37596],[89.8,37678],[89.8,37762],[89.8,37845],[89.8,37928],[89.8,38011],[89.8,38095],[89.8,38178],[89.8,38261],[89.8,38345],[89.8,38428],[89.8,38511],[89.8,38595],[89.8,38678],[89.8,38761],[89.8,38845],[89.8,38928],[89.8,39011],[89.8,39095],[89.8,39178],[89.8,39262],[89.8,39345],[89.8,39429],[89.8,39511],[89.8,39595],[89.8,39678],[89.8,39761],[89.8,39845],[89.8,39928],[89.8,40011],[89.8,40095],[89.8,40178],[89.8,40261],[89.8,40345],[89.8,40428],[89.8,40511],[89.8,40595],[89.8,40678],[89.8,40761],[89.8,40844],[89.8,40928],[89.8,41011],[89.8,41094],[89.8,41178],[89.8,41261],[89.8,41345],[89.8,41428],[89.8,41511],[89.8,41595],[89.8,41678],[89.8,41761],[89.8,41844],[89.8,41928],[89.8,42011],[89.8,42094],[89.8,42178],[89.8,42261],[89.8,42344],[89.8,42428],[89.8,42511],[89.8,42594],[89.8,42678],[89.8,42761],[89.8,42844],[89.8,42928],[89.8,43011],[89.8,43094],[89.8,43177],[89.8,43261],[89.8,43344],[89.8,43428],[89.8,43511],[87.4,43594],[76.4,43761],[71.4,43844],[59.9,44344],[56.7,44428],[54.7,44511],[53.9,44594],[53.2,44677],[52.2,44761],[51.1,44844],[50.2,44927],[49.7,45010],[49.3,45094],[49.3,45178],[49.3,45261],[49.3,45344],[49.3,45428],[49.3,45511],[49.3,45594],[49.3,45677],[49.3,45761],[49.3,45844],[49.3,45928],[49.3,46011],[49.3,46094],[49.3,46178],[49.3,46261],[49.3,46344],[49.3,46427],[49.3,46511],[49.3,46594],[49.3,46678],[49.3,46760],[49.3,46844],[49.3,46927],[49.3,47010],[49.3,47094],[49.3,47177],[49.3,47261],[49.3,47344],[49.3,47427],[49.3,47510],[49.3,47594],[49.3,47677],[49.3,47761],[49.3,47844],[49.3,47928],[49.3,48010],[49.3,48094],[49.3,48177],[49.3,48260],[49.3,48344],[49.3,48427],[49.3,48510],[49.3,48594],[49.3,48677],[49.3,48760],[49.3,48844],[49.3,48927],[49.3,49010],[49.3,49094],[49.3,49177],[49.3,49260],[69.6,49344],[96.5,49428],[97.2,49510],[97.2,49594],[97,49677],[93.9,49761],[89.8,49844],[89.2,49927],[89.2,50010],[89.2,50093],[89.2,50177],[89.2,50260],[89.2,50343],[89.2,50427],[89.2,50510],[89.2,50594],[89.2,50677],[89.2,50760],[89.2,50843],[89.2,50927],[89.2,51010],[89.2,51093],[89.2,51177],[89.2,51260],[89.2,51343],[89.2,51427],[89.2,51510],[89.2,51594],[89.2,51677],[89.2,51760],[89.2,51843],[89.2,51927],[89.2,52010],[89.2,52093],[89.2,52177],[89.2,52260],[89.2,52343],[89.2,52427],[89.2,52510],[89.2,52593],[89.2,52677],[89.2,52760],[89.2,52843],[75,52926],[16.6,53261],[12.6,53343],[11.8,53427],[12.1,53510],[12.1,53594],[11.4,53678],[11,53760],[10.5,53844],[10.5,53926],[10.5,54010],[10.5,54093],[10.2,54176],[10.2,54260],[10.1,54343],[10.1,54426],[10.1,54510],[10.1,54593],[10.1,54677],[10.1,54760],[10.1,54843],[10.1,54926],[10.1,55010],[10.1,55093],[10.1,55176],[10.1,55260],[10.1,55343],[10.1,55427],[10.1,55510],[10.1,55593],[10.1,55676],[10.1,55760],[10.1,55843]]",1,0,215.646,219.5124,70.3125,2.2066,"[{""rating"":70.3125,""responseTime"":2.20659999999404}]",space,3.3274,,219.5125,Not at all,0,219.5168,,,[],,0,1,1,1,1,audio/Narrative7Situation1.wav,audio/Narrative8Situation1.wav,audio/Narrative5Situation1.wav,audio/Narrative6Situation1.wav,2,5,5,2,7.5626,,,,,,,,,,,,,,,,,,,,,,,,,,,,,,,,,,,,,,
,,,,,,656397844d363e786bc5ed4b,2024-02-08_15h02.55.857,group3.1-3.2-social-tom,2023.2.2,Win32,59.52380952,65c5074098b851296ff0b7ed,65c5416d3d48c4665308acbb,,,,,,,,,,,,,,,,,,,,,,,,,,,,,219.5171,1,audio/Narrative7Situation2.wav,222.5286,,222.5286,229.9948,"[[999,9],[999,83],[999,166],[999,250],[999,333],[999,416],[999,499],[999,583],[999,667],[999,750],[51,833],[51.8,916],[51.8,1002],[51.7,1084],[51.4,1166],[51.1,1249],[50.9,1333],[50.8,1417],[50.7,1500],[50.6,1583],[50.4,1667],[50.4,1750],[50.4,1833],[50.4,1916],[50.4,1999],[50.4,2083],[50.4,2166],[50.4,2249],[50.4,2333],[50.4,2416],[50.4,2499],[50.4,2582],[50.4,2666],[50.4,2749],[50.4,2833],[50.4,2916],[50.4,2999],[50.4,3083],[50.4,3166],[50.4,3249],[50.4,3333],[50.4,3416],[50.4,3499],[50.4,3583],[44.1,3666],[30.3,3749],[27.6,3834],[26.7,3916],[26.5,3999],[25.7,4084],[24.6,4166],[23.8,4250],[23.3,4334],[21.3,4415],[16.5,4499],[14.2,4583],[12.6,4666],[11,4749],[10.6,4832],[10,4916],[9.8,4999],[9.8,5082],[9.7,5166],[9.7,5249],[9.7,5333],[9.7,5416],[9.7,5499],[9.7,5583],[9.7,5666],[9.7,5749],[9.7,5832],[9.7,5916],[9.7,5999],[9.7,6083],[9.7,6166],[9.7,6249],[9.7,6333],[9.7,6416],[9.7,6499],[9.7,6583],[9.7,6666],[9.7,6749],[9.7,6833],[9.7,6916],[9.7,6999],[9.7,7083],[9.7,7165],[9.7,7249],[9.7,7332],[9.7,7415]]",1,0,229.995,244.227,39.79167144,11.7806,"[{""rating"":59.166669845581055,""responseTime"":10.037699999988092},{""rating"":45.62500317891438,""responseTime"":11.203699999988089},{""rating"":39.79167143503825,""responseTime"":11.780599999994052}]",space,13.6856,,244.2272,Not at all,0,244.2475,,,[],,0,2,2,2,1,audio/Narrative7Situation2.wav,audio/Narrative8Situation2.wav,audio/Narrative5Situation2.wav,audio/Narrative6Situation2.wav,3,3,3,3,,,,,,,,,,,,,,,,,,,,,,,,,,,,,,,,,,,,,,,
,,,,,,656397844d363e786bc5ed4b,2024-02-08_15h02.55.857,group3.1-3.2-social-tom,2023.2.2,Win32,59.52380952,65c5074098b851296ff0b7ed,65c5416d3d48c4665308acbb,,,,,,,,,,,,,,,,,,,,,,,,,,,,,244.2477,1,audio/Narrative7Situation3.wav,252.2594,,252.2594,261.5251,"[[999,15],[999,82],[999,166],[999,249],[999,333],[999,416],[999,500],[48.5,666],[48.6,749],[49.3,834],[49.8,916],[49.8,1000],[49.9,1083],[49.9,1167],[49.9,1249],[49.9,1333],[49.9,1415],[49.9,1499],[49.9,1582],[49.9,1666],[49.9,1749],[49.9,1832],[49.9,1916],[49.9,1999],[49.9,2082],[49.9,2165],[49.9,2249],[49.9,2332],[49.9,2416],[49.9,2499],[49.9,2582],[49.9,2666],[49.9,2749],[49.9,2834],[49.9,2915],[49.9,2999],[49.9,3082],[49.9,3165],[49.9,3249],[49.9,3332],[49.9,3415],[49.9,3499],[49.9,3582],[49.9,3665],[49.9,3749],[49.9,3832],[49.9,3915],[49.9,3999],[49.9,4082],[49.9,4166],[49.9,4249],[49.9,4332],[64.9,4415],[76.6,4499],[77.1,4582],[77.1,4665],[77.1,4749],[77.1,4832],[77.1,4915],[77.1,4999],[77.1,5082],[77.1,5165],[77.1,5249],[77.1,5332],[77.1,5415],[77.1,5499],[77.1,5582],[77.1,5665],[77.1,5749],[77.1,5832],[77.1,5915],[77.1,5998],[77.1,6082],[77.1,6165],[79.2,6249],[79.2,6332],[79.2,6415],[79.2,6498],[79.2,6582],[79.2,6665],[79.2,6748],[79.2,6832],[79.2,6915],[79.2,6998],[79.2,7082],[79.2,7165],[79.2,7249],[79.2,7332],[79.2,7415],[79.2,7498],[79.2,7582],[79.2,7665],[79.2,7748],[79.2,7832],[79.2,7915],[79.2,7998],[79.2,8082],[79.2,8165],[79.2,8248],[79.2,8332],[79.2,8415],[79.2,8498],[79.2,8582],[79.2,8665],[79.2,8748],[79.2,8831],[79.2,8915],[79.2,8999],[79.2,9082],[79.2,9165],[79.2,9248]]",1,0,261.5253,267.1577,80.20833333,1.4102,"[{""rating"":80.20833333333333,""responseTime"":1.4102000000178805}]",space,5.0915,,267.1578,All the time,100,267.1768,,,[],,0,3,3,3,1,audio/Narrative7Situation3.wav,audio/Narrative8Situation3.wav,audio/Narrative5Situation3.wav,audio/Narrative6Situation3.wav,8,4,3,5,,,,,,,,,,,,,,,,,,,,,,,,,,,,,,,,,,,,,,,
,,,,,,656397844d363e786bc5ed4b,2024-02-08_15h02.55.857,group3.1-3.2-social-tom,2023.2.2,Win32,59.52380952,65c5074098b851296ff0b7ed,65c5416d3d48c4665308acbb,,,,,,,,,,,,,,,,,,,,,,,,,,,,,267.177,1,audio/Narrative7Situation4.wav,270.1905,,270.1905,281.9232,"[[52.7,332],[51.1,416],[49.5,500],[48.8,583],[48.8,667],[48.8,750],[48.8,833],[48.8,916],[48.8,1000],[49,1083],[49.5,1167],[49.8,1250],[49.9,1333],[50,1417],[50,1500],[50,1583],[50,1666],[50,1750],[50,1833],[50,1916],[50,1999],[50,2082],[50,2166],[50,2249],[50,2332],[50,2416],[50,2499],[50,2582],[50,2666],[50,2749],[50,2832],[50,2916],[50,2999],[50,3082],[50,3166],[50,3250],[50,3332],[50,3416],[50,3499],[50,3582],[50,3666],[50,3749],[50,3832],[50,3916],[50,3999],[50,4082],[50,4165],[50,4249],[50,4332],[50,4416],[50,4499],[50,4582],[50,4666],[50,4749],[50,4832],[50,4915],[50,4999],[49.6,5082],[49.5,5166],[49.5,5250],[49.5,5333],[49.5,5415],[49.5,5499],[49.5,5582],[49.5,5666],[49.5,5749],[49.5,5832],[49.5,5916],[49.5,5999],[49.5,6082],[49.5,6166],[49.5,6249],[49.5,6332],[49.5,6415],[49.5,6499],[49.5,6582],[48.8,6666],[48,6749],[47.7,6832],[47.7,6915],[47.7,6999],[47.7,7082],[47.7,7165],[47.7,7249],[47.7,7332],[39.6,7415],[34.4,7500],[29.4,7582],[27,7666],[24.9,7749],[22.5,7832],[20.7,7916],[19.9,7999],[19.9,8082],[19.7,8168],[18.6,8249],[18,8332],[18,8415],[18,8499],[18,8582],[18,8665],[18,8749],[18,8832],[18,8916],[18,8999],[18,9082],[18,9165],[18,9249],[18,9332],[18,9415],[18,9498],[18,9582],[18,9665],[18,9749],[18,9832],[18,9915],[18,9999],[18,10082],[18,10165],[18,10249],[18,10332],[18,10415],[18,10499],[18,10582],[18,10665],[18,10749],[18,10832],[18,10915],[18,10999],[18,11082],[18,11165],[18,11249],[18,11332],[18,11415],[18,11498],[18,11582],[18,11665]]",1,0,281.9234,284.7896,76.45833492,1.9058,"[{""rating"":76.45833492279053,""responseTime"":1.9057999999820936}]",space,2.3171,,284.7897,All the time,100,284.7916,,,[],,0,4,4,4,1,audio/Narrative7Situation4.wav,audio/Narrative8Situation4.wav,audio/Narrative5Situation4.wav,audio/Narrative6Situation4.wav,3,3,1,2,,,,,,,,,,,,,,,,,,,,,,,,,,,,,,,,,,,,,,,
,,,,,,656397844d363e786bc5ed4b,2024-02-08_15h02.55.857,group3.1-3.2-social-tom,2023.2.2,Win32,59.52380952,65c5074098b851296ff0b7ed,65c5416d3d48c4665308acbb,,,,,,,,,,,,,,,,,,,,,,,,,,,,,284.7921,1,audio/Narrative7Situation5.wav,289.8053,,289.8053,298.3045,"[[49.1,417],[48.3,500],[48.3,583],[48.3,668],[49.2,749],[49.7,833],[50,917],[50,1000],[50,1083],[50,1166],[50,1249],[50,1333],[50,1416],[50,1499],[50,1583],[50,1666],[50,1749],[50,1833],[50,1916],[50,1999],[50,2083],[50,2166],[50,2249],[50,2333],[50,2416],[50,2499],[50,2583],[50,2666],[50,2749],[50,2833],[50,2916],[50,2999],[50,3083],[50,3166],[50,3249],[50,3333],[50,3416],[50,3500],[50,3583],[50,3666],[50,3749],[50,3833],[50,3916],[50,3999],[50,4083],[50,4166],[50,4249],[50,4333],[50,4417],[50,4499],[50,4583],[50,4666],[50,4749],[50,4832],[50,4916],[50,4999],[50,5083],[50,5166],[50,5249],[50,5332],[50,5416],[50,5499],[50.2,5583],[50.4,5666],[50.4,5749],[50.5,5832],[50.5,5915],[50.5,5999],[50.5,6082],[50.6,6166],[50.6,6249],[50.6,6332],[50.6,6416],[50.6,6499],[50.6,6582],[50.6,6665],[50.6,6749],[50.6,6832],[50,6916],[41.9,6999],[31.9,7082],[28.3,7165],[26.3,7251],[25.1,7332],[24,7416],[23,7500],[22.6,7582],[22.6,7666],[22.2,7749],[22.2,7832],[22.2,7915],[22.2,7999],[22.2,8082],[22.2,8165],[22.2,8249],[22.2,8332],[22.2,8415],[22.2,8499]]",1,0,298.3046,303.3876,9.062500795,1.9629,"[{""rating"":21.354166666666668,""responseTime"":1.164700000017831},{""rating"":9.062500794728596,""responseTime"":1.962900000005959}]",space,4.5344,,303.3878,All the time,100,303.4089,,,[],,0,5,5,5,1,audio/Narrative7Situation5.wav,audio/Narrative8Situation5.wav,audio/Narrative5Situation5.wav,audio/Narrative6Situation5.wav,5,2,5,2,,,,,,,,,,,,,,,,,,,,,,,,,,,,,,,,,,,,,,,
,,,,,,656397844d363e786bc5ed4b,2024-02-08_15h02.55.857,group3.1-3.2-social-tom,2023.2.2,Win32,59.52380952,65c5074098b851296ff0b7ed,65c5416d3d48c4665308acbb,,,,,,,,,,,,,,,,,,,,,,,,,,,,,303.4092,1,audio/Narrative7Situation6.wav,306.4205,,306.4206,316.3861,"[[999,16],[999,82],[999,166],[999,249],[999,333],[999,416],[999,499],[999,582],[999,666],[999,749],[999,832],[999,916],[999,1006],[47.9,1505],[49.4,1582],[50.1,1671],[50.1,1754],[50.1,1832],[50.1,1916],[50.1,1999],[50.1,2090],[50.1,2171],[50.1,2254],[50.1,2337],[50.1,2422],[50.1,2504],[50.1,2582],[50.1,2666],[50.1,2749],[50.1,2832],[50.1,2916],[50.1,3004],[50.1,3082],[50.1,3165],[50.1,3254],[50.1,3338],[50.1,3416],[50.1,3499],[50.1,3582],[50.1,3670],[50.1,3749],[50.1,3837],[50.1,3922],[50.1,3999],[50.1,4082],[50.1,4166],[50.1,4249],[50.1,4332],[50.1,4416],[50.1,4499],[51,4599],[51.4,4683],[51.4,4765],[51.4,4849],[51.4,4932],[51.4,5016],[51.4,5099],[51.4,5182],[61.3,5266],[77.1,5349],[79.9,5432],[80,5515],[80.7,5598],[80.9,5682],[80.9,5766],[80.9,5849],[80.9,5932],[80.9,6015],[80.9,6099],[80.9,6182],[80.9,6266],[80.9,6349],[80.9,6432],[80.9,6516],[80.9,6599],[80.9,6682],[80.9,6766],[80.9,6849],[80.9,6932],[80.9,7016],[80.9,7099],[80.9,7182],[80.9,7265],[80.9,7348],[80.9,7432],[80.9,7515],[80.9,7598],[80.9,7682],[80.9,7765],[80.9,7848],[80.9,7932],[80.9,8015],[80.9,8099],[80.9,8182],[80.9,8265],[80.9,8348],[80.9,8432],[80.9,8515],[80.9,8599],[80.9,8682],[80.9,8765],[80.9,8848],[80.9,8932],[80.9,9015],[80.9,9098],[80.9,9181],[80.9,9265],[80.9,9348],[80.9,9432],[80.9,9515],[80.9,9598],[80.9,9682],[80.9,9765],[80.9,9848],[80.9,9932]]",1,0,316.3862,318.9028,74.06249841,1.883,"[{""rating"":74.06249841054282,""responseTime"":1.8829999999999814}]",space,1.9739,,318.9029,Not at all,0,318.9071,,,[],,0,6,6,6,1,audio/Narrative7Situation6.wav,audio/Narrative8Situation6.wav,audio/Narrative5Situation6.wav,audio/Narrative6Situation6.wav,3,2,3,2,,,,,,,,,,,,,,,,,,,,,,,,,,,,,,,,,,,,,,,
,,,,,,656397844d363e786bc5ed4b,2024-02-08_15h02.55.857,group3.1-3.2-social-tom,2023.2.2,Win32,59.52380952,65c5074098b851296ff0b7ed,65c5416d3d48c4665308acbb,,,,,,,,,,,,,,,,,,,,,,,,,,,,,318.9074,1,audio/Narrative7Situation7.wav,323.9187,,323.9187,341.101,"[[999,14],[999,83],[999,166],[999,254],[999,332],[999,416],[999,505],[50.5,587],[50.5,684],[50.5,767],[50.3,849],[50.3,933],[50.3,1016],[50.3,1099],[50.3,1183],[50.3,1266],[50.3,1349],[50.3,1433],[49.5,1517],[49.1,1599],[49.1,1683],[49.1,1766],[49,1850],[49,1933],[49.2,2016],[49.2,2099],[49.2,2183],[49.2,2266],[49.2,2349],[49.2,2433],[49.3,2516],[49.4,2599],[49.4,2683],[49.4,2766],[49.4,2849],[49.4,2932],[49.4,3016],[49.4,3099],[49.4,3182],[49.4,3266],[49.6,3350],[52.2,3432],[67.8,3516],[76.3,3600],[77.3,3682],[77.3,3766],[77.3,3849],[77.3,3932],[77.3,4016],[77.3,4099],[77.3,4182],[77.3,4265],[77.3,4349],[77.3,4432],[77.4,4516],[77.5,4599],[78.1,4682],[79,4766],[79.2,4849],[79.2,4932],[79.7,5016],[80.2,5099],[80.7,5182],[81.3,5266],[82.8,5348],[83.9,5433],[84.7,5516],[85.2,5599],[85.3,5682],[85.3,5765],[85.7,5848],[85.9,5933],[86.3,6015],[86.3,6099],[86.3,6182],[86.3,6265],[86.3,6349],[86.3,6432],[86.3,6515],[86.3,6599],[86.3,6682],[86.3,6765],[86.3,6849],[86.3,6932],[86.3,7015],[86.3,7099],[86.3,7182],[86.3,7265],[86.3,7349],[86.3,7432],[86.3,7515],[86.3,7599],[86.3,7682],[86.3,7765],[86.3,7849],[86.3,7932],[86.3,8015],[86.3,8098],[86.3,8182],[86.3,8265],[86.3,8348],[86.3,8432],[86.3,8515],[86.3,8598],[86.3,8681],[86.3,8765],[86.3,8849],[86.3,8932],[75.1,9015],[36,9099],[28.3,9182],[25.6,9265],[20.5,9348],[17.9,9432],[16.9,9515],[16.5,9599],[16.4,9682],[16.3,9765],[15.3,9849],[14.3,9932],[14.2,10015],[14.2,10098],[14.2,10182],[14.2,10265],[14.2,10348],[14.2,10432],[14.2,10515],[14.2,10598],[14.2,10682],[14.2,10765],[14.2,10848],[14.2,10931],[14.2,11015],[14.2,11098],[14.2,11182],[14.2,11265],[14.2,11348],[14.2,11432],[14.2,11515],[14.2,11598],[14.2,11682],[14.2,11765],[14.2,11848],[14.2,11932],[14.2,12015],[14.2,12098],[14.2,12182],[14.2,12265],[14.2,12348],[14.2,12432],[14.2,12515],[14.2,12598],[14.2,12682],[14.2,12765],[14.2,12848],[14.2,12932],[14.2,13015],[14.2,13098],[14.2,13182],[14.2,13265],[14.2,13348],[14.2,13432],[14.2,13515],[14.2,13598],[14.2,13681],[14.2,13764],[14.2,13848],[14.2,13932],[14.2,14014],[14.2,14098],[14.2,14181],[14.2,14264],[14.2,14348],[14.2,14432],[14.2,14514],[14.2,14598],[14.2,14682],[14.2,14764],[14.2,14848],[14.2,14931],[14.2,15014],[14.2,15098],[14.2,15181],[14.2,15265],[14.2,15348],[14.2,15431],[14.2,15514],[14.2,15598],[14.2,15682],[14.2,15764],[14.2,15848],[14.2,15931],[14.2,16014],[16,16098],[21.8,16181],[26.3,16264],[31.4,16349],[40.6,16431],[47.3,16514],[49.8,16598],[49.9,16681],[50.6,16765],[50.8,16850],[50.8,16931],[50.8,17015],[50.8,17098],[50.8,17182]]",1,0,341.1013,344.5333,50.72917144,2.9144,"[{""rating"":49.0624984105428,""responseTime"":1.296400000005974},{""rating"":49.3750015894572,""responseTime"":2.3874999999999886},{""rating"":50.729171435038246,""responseTime"":2.914400000005969}]",space,2.8905,,344.5335,All the time,100,344.5373,,,[],,0,7,7,7,1,audio/Narrative7Situation7.wav,audio/Narrative8Situation7.wav,audio/Narrative5Situation7.wav,audio/Narrative6Situation7.wav,5,3,4,5,,,,,,,,,,,,,,,,,,,,,,,,,,,,,,,,,,,,,,,
,,,,,,656397844d363e786bc5ed4b,2024-02-08_15h02.55.857,group3.1-3.2-social-tom,2023.2.2,Win32,59.52380952,65c5074098b851296ff0b7ed,65c5416d3d48c4665308acbb,,,,,,,,,,,,,,,,,,,,,,,,,,,,,344.5376,1,audio/Narrative7Situation8.wav,346.5497,,346.5497,356.5652,"[[50.5,333],[49.8,417],[49.6,500],[49.6,583],[49.6,666],[49.6,750],[49.6,833],[49.6,916],[49.6,1000],[49.6,1083],[49.6,1166],[49.6,1250],[49.6,1333],[49.6,1416],[49.6,1500],[49.6,1583],[49.6,1666],[49.6,1749],[49.6,1833],[49.6,1916],[49.6,2000],[49.6,2083],[49.6,2166],[49.6,2249],[49.6,2333],[49.6,2416],[49.6,2499],[49.6,2583],[49.6,2666],[49.6,2749],[49.6,2833],[49.6,2916],[49.6,2999],[49.6,3083],[49.6,3166],[49.6,3249],[49.6,3333],[49.6,3416],[49.6,3499],[49.6,3582],[49.6,3666],[49.6,3749],[49.6,3832],[49.6,3916],[49.6,3999],[49.6,4082],[49.6,4166],[49.6,4249],[49.6,4332],[49.6,4415],[49.6,4499],[49.6,4582],[49.6,4666],[49.6,4749],[49.6,4833],[49.6,4915],[49.6,4999],[49.6,5082],[40.1,5170],[32.8,5249],[30,5332],[26.6,5416],[22.7,5499],[18.4,5582],[14.6,5666],[11.9,5749],[10.5,5832],[9,5915],[7,5999],[5.3,6083],[3.8,6165],[3.2,6249],[3.2,6332],[3.2,6416],[2.5,6499],[2.4,6582],[2.4,6665],[2.4,6749],[2.4,6832],[2.4,6915],[2.4,6999],[2.4,7082],[2.4,7165],[2.4,7249],[2.4,7332],[3.9,7415],[7.1,7500],[8.1,7582],[9.3,7665],[26.3,7749],[39.6,7832],[41.1,7915],[44.3,7999],[52,8082],[61.3,8165],[66.6,8250],[73.8,8332],[77.5,8415],[79.6,8498],[82.3,8582],[85.1,8665],[87.7,8751],[88.9,8832],[89.6,8916],[90.6,8998],[92,9081],[93,9165],[93.8,9248],[94.2,9332],[94.2,9415],[94.4,9498],[94.4,9583],[94.4,9665],[94.4,9748],[94.4,9832],[94.4,9915],[94.4,9998]]",1,0,356.5654,358.4655,49.68750477,1.2557,"[{""rating"":49.68750476837158,""responseTime"":1.255700000017839}]",space,1.3511,,358.4656,Half the time,50,358.4702,,,[],,0,8,8,8,1,audio/Narrative7Situation8.wav,audio/Narrative8Situation8.wav,audio/Narrative5Situation8.wav,audio/Narrative6Situation8.wav,2,3,3,5,,,,,,,,,,,,,,,,,,,,,,,,,,,,,,,,,,,,,,,
,,,,,,656397844d363e786bc5ed4b,2024-02-08_15h02.55.857,group3.1-3.2-social-tom,2023.2.2,Win32,59.52380952,65c5074098b851296ff0b7ed,65c5416d3d48c4665308acbb,,,,,,,,,,,,,,,,,,,,,,,,,,,,,358.4706,1,audio/Narrative7Situation9.wav,360.482,,360.4821,369.0976,"[[49.9,665],[50.8,749],[50.8,832],[50.6,916],[50.1,1000],[50.1,1082],[50.1,1166],[50.1,1249],[50.1,1332],[50.1,1416],[49.9,1500],[49.9,1582],[49.9,1666],[49.9,1749],[49.9,1832],[49.9,1915],[49.9,1999],[49.9,2082],[49.9,2165],[49.9,2249],[49.9,2332],[49.9,2415],[49.9,2499],[49.9,2582],[49.9,2666],[49.9,2749],[49.9,2832],[49.8,2915],[49.8,2998],[49.8,3082],[49.7,3165],[49.7,3249],[49.7,3332],[49.7,3415],[49.7,3499],[49.7,3582],[49.7,3665],[49.6,3748],[49.6,3831],[49.6,3915],[49.6,3998],[49.6,4082],[49.6,4165],[49.6,4248],[49.6,4331],[49.6,4415],[49.6,4499],[49.6,4582],[49.6,4665],[59.5,4749],[75.4,4832],[80.9,4915],[82,5002],[83.2,5082],[84.3,5166],[84.6,5249],[84.8,5332],[84.8,5415],[84.8,5498],[84.8,5582],[84.8,5665],[84.8,5749],[84.8,5832],[84.8,5915],[84.8,5998],[84.8,6082],[84.8,6165],[84.8,6248],[84.8,6332],[84.8,6415],[84.8,6498],[84.8,6581],[84.8,6665],[84.8,6748],[84.8,6831],[84.8,6915],[84.8,6998],[84.8,7082],[84.8,7165],[84.8,7248],[84.8,7332],[84.8,7415],[84.8,7498],[84.8,7582],[84.8,7665],[84.8,7748],[84.8,7831],[84.8,7915],[84.8,7998],[84.8,8081],[84.8,8165],[84.8,8248],[81.6,8331],[80.4,8415],[79.9,8498],[79,8581]]",1,0,369.0977,370.0304,80.41667144,0.6425,"[{""rating"":80.41667143503825,""responseTime"":0.6424999999999841}]",space,0.3925,,370.0304,All the time,100,370.0328,,,[],,0,9,9,9,1,audio/Narrative7Situation9.wav,audio/Narrative8Situation9.wav,audio/Narrative5Situation9.wav,audio/Narrative6Situation9.wav,2,3,3,4,,,,,,,,,,,,,,,,,,,,,,,,,,,,,,,,,,,,,,,
,,,,,,656397844d363e786bc5ed4b,2024-02-08_15h02.55.857,group3.1-3.2-social-tom,2023.2.2,Win32,59.52380952,65c5074098b851296ff0b7ed,65c5416d3d48c4665308acbb,,,,,,,,,,,,,,,,,,,,,,,,,,,,,370.0331,1,audio/Narrative8Situation1.wav,375.0471,,375.0472,390.9626,"[[49.1,667],[49.1,755],[49.5,839],[49.7,917],[49.7,1005],[49.7,1088],[49.7,1166],[49.7,1255],[49.7,1338],[49.7,1416],[49.7,1499],[49.7,1582],[49.7,1665],[49.7,1749],[49.7,1838],[49.7,1916],[49.7,2000],[49.7,2082],[49.7,2171],[49.7,2255],[49.7,2338],[49.7,2416],[49.7,2499],[49.7,2582],[49.7,2666],[49.7,2749],[49.7,2833],[49.7,2921],[49.7,2999],[49.7,3082],[49.7,3171],[49.7,3249],[49.7,3333],[49.7,3416],[49.7,3499],[49.7,3583],[49.7,3666],[49.7,3749],[49.7,3833],[49.7,3916],[49.7,4005],[49.7,4082],[49.7,4166],[49.7,4254],[49.7,4333],[49.7,4415],[49.7,4504],[49.7,4588],[49.7,4666],[49.7,4749],[49.7,4833],[49.7,4916],[49.7,4999],[49.7,5082],[49.7,5165],[49.7,5249],[49.7,5338],[49.7,5422],[49.7,5498],[49.7,5582],[49.7,5665],[49.7,5753],[49.7,5838],[49.7,5915],[49.7,5999],[49.7,6082],[49.7,6165],[49.7,6248],[49.7,6338],[49.7,6415],[49.7,6499],[49.7,6582],[49.7,6665],[49.3,6749],[34.1,6848],[29.5,6932],[25.3,7015],[24,7099],[22,7182],[18.6,7266],[15.2,7349],[13.8,7432],[13.8,7515],[13.8,7598],[13.8,7682],[13.8,7765],[12.7,7850],[11.2,7932],[10.3,8016],[9.6,8099],[9.6,8182],[9.6,8265],[9.6,8348],[9.6,8431],[9.6,8515],[9.6,8598],[9.6,8682],[9.6,8765],[9.6,8848],[9.6,8931],[9.6,9015],[9.6,9098],[9.6,9182],[9.6,9265],[9.6,9348],[9.6,9432],[9.6,9515],[9.6,9598],[9.6,9682],[9.6,9765],[9.6,9848],[9.6,9931],[9.6,10015],[9.6,10098],[9.6,10181],[9.6,10265],[9.6,10348],[9.6,10431],[9.6,10515],[9.6,10598],[9.6,10681],[9.6,10765],[9.6,10848],[9.6,10931],[9.6,11015],[9.6,11098],[9.6,11181],[9.6,11265],[9.6,11348],[9.6,11431],[9.6,11515],[9.6,11598],[9.6,11681],[9.6,11765],[9.6,11848],[9.6,11931],[9.6,12015],[9.6,12098],[9.6,12181],[9.6,12265],[9.6,12348],[9.6,12431],[9.6,12514],[9.6,12598],[9.6,12681],[9.6,12765],[9.6,12848],[9.6,12931],[9.6,13014],[9.6,13098],[9.6,13181],[9.6,13265],[9.6,13348],[9.6,13431],[9.6,13515],[9.6,13598],[9.6,13681],[9.6,13765],[9.6,13847],[9.6,13931],[26.9,14014],[42.9,14098],[45,14181],[51.8,14264],[78.5,14348],[88.7,14681],[91.1,14765],[91.5,14848],[91.5,14931],[91.3,15015],[91.3,15098],[91.3,15181],[91,15264],[90.8,15347],[90.8,15431],[90.7,15514],[90.7,15598],[90.7,15681],[90.5,15765],[90.5,15848]]",1,0,390.9628,393.1454,35.52083174,1.2072,"[{""rating"":35.52083174387614,""responseTime"":1.20719999998812}]",space,1.6344,,393.1454,All the time,100,393.1479,,,[],,0,10,10,10,1,audio/Narrative8Situation1.wav,audio/Narrative7Situation1.wav,audio/Narrative6Situation1.wav,audio/Narrative5Situation1.wav,5,2,2,5,,,,,,,,,,,,,,,,,,,,,,,,,,,,,,,,,,,,,,,
,,,,,,656397844d363e786bc5ed4b,2024-02-08_15h02.55.857,group3.1-3.2-social-tom,2023.2.2,Win32,59.52380952,65c5074098b851296ff0b7ed,65c5416d3d48c4665308acbb,,,,,,,,,,,,,,,,,,,,,,,,,,,,,393.1483,1,audio/Narrative8Situation2.wav,396.1617,,396.1617,406.2937,"[[44.4,582],[43.5,668],[46.8,750],[52,832],[52,916],[52.1,999],[52,1084],[49.6,1165],[48.5,1249],[48.3,1332],[48.3,1416],[48.4,1500],[49.5,1582],[49.8,1665],[49.8,1749],[49.8,1832],[49.8,1916],[49.8,1999],[49.8,2082],[49.8,2166],[49.8,2249],[49.8,2332],[49.8,2415],[49.8,2499],[49.8,2582],[49.8,2666],[49.8,2749],[49.8,2832],[49.8,2916],[49.8,2999],[49.8,3082],[49.8,3166],[49.8,3249],[49.8,3332],[49.8,3416],[49.8,3499],[49.8,3582],[49.8,3665],[49.8,3749],[49.8,3832],[49.8,3915],[49.8,3999],[49.8,4082],[49.8,4165],[49.8,4249],[49.8,4332],[49.8,4415],[49.2,4499],[47.5,4582],[46.8,4665],[44.7,4749],[31.1,4833],[21.3,4915],[16.5,4999],[14.7,5082],[11.6,5165],[9.8,5250],[9.3,5332],[9.3,5415],[9.3,5498],[9.3,5582],[10,5665],[10.4,5748],[10.4,5832],[10.4,5915],[10.4,5998],[10.6,6082],[10.6,6165],[10.6,6248],[10.6,6332],[10.6,6415],[10.6,6498],[10.7,6582],[10.7,6665],[10.7,6748],[10.7,6832],[10.7,6916],[10.7,6999],[10.7,7081],[10.7,7165],[10.7,7249],[10.7,7332],[10.7,7415],[10.7,7498],[10.7,7581],[10.7,7665],[10.7,7748],[10.7,7832],[10.7,7915],[10.7,7998],[10.7,8081],[10.7,8165],[10.7,8248],[10.7,8331],[10.7,8415],[10.7,8498],[10.7,8581],[10.7,8665],[10.7,8748],[10.7,8832],[10.7,8915],[10.7,8998],[10.7,9081],[10.7,9165],[10.7,9248],[10.7,9331],[10.7,9415],[11.6,9498],[33.8,9581],[65.9,9665],[75.6,9748],[78.9,9833],[82.3,9916],[82.5,9998],[82.5,10081]]",1,0,406.2939,408.9604,11.66666746,1.9077,"[{""rating"":11.666667461395264,""responseTime"":1.9076999999880968}]",space,2.1183,,408.9604,All the time,100,408.9632,,,[],,0,11,11,11,1,audio/Narrative8Situation2.wav,audio/Narrative7Situation2.wav,audio/Narrative6Situation2.wav,audio/Narrative5Situation2.wav,3,3,3,3,,,,,,,,,,,,,,,,,,,,,,,,,,,,,,,,,,,,,,,
,,,,,,656397844d363e786bc5ed4b,2024-02-08_15h02.55.857,group3.1-3.2-social-tom,2023.2.2,Win32,59.52380952,65c5074098b851296ff0b7ed,65c5416d3d48c4665308acbb,,,,,,,,,,,,,,,,,,,,,,,,,,,,,408.9638,1,audio/Narrative8Situation3.wav,412.9764,,412.9764,435.3737,"[[47.8,83],[47.8,166],[47.8,249],[47.8,333],[48.3,418],[49.4,500],[49.7,583],[49.8,666],[49.8,749],[49.8,833],[49.8,916],[49.8,999],[49.8,1083],[49.8,1166],[49.8,1249],[49.8,1333],[49.8,1416],[49.8,1499],[49.8,1583],[49.8,1666],[49.8,1750],[49.8,1833],[49.8,1916],[49.8,1999],[49.8,2083],[49.8,2166],[49.8,2249],[49.8,2332],[49.8,2416],[49.8,2499],[49.8,2582],[49.8,2666],[49.8,2749],[49.8,2833],[49.8,2916],[49.8,2999],[49.8,3082],[49.8,3166],[49.8,3249],[49.8,3332],[43.3,3417],[20.5,3500],[16,3582],[15,3666],[14.2,3749],[13.3,3832],[13.3,3916],[13.3,3999],[13.3,4083],[13.3,4166],[13.3,4249],[13.3,4333],[13.3,4416],[13.3,4500],[13.3,4582],[13.3,4666],[13.3,4749],[13.3,4832],[13.3,4915],[14.6,4999],[15.4,5082],[15.4,5166],[15.4,5249],[15.4,5332],[15.4,5415],[15.4,5499],[15.4,5583],[15.4,5666],[15.4,5749],[15.4,5833],[15.4,5916],[15.4,5999],[15.4,6083],[15.4,6166],[15.4,6249],[15.4,6333],[15.4,6416],[15.4,6499],[15.4,6583],[15.4,6666],[15.4,6749],[15.4,6832],[15.4,6916],[15.4,6999],[67.1,7165],[71.8,7250],[72.7,7333],[76.1,7415],[79.6,7498],[82.1,7583],[84.1,7665],[85.4,7750],[87.4,7832],[89.8,7916],[92.1,7999],[92.2,8082],[92.2,8166],[92.2,8249],[92.2,8332],[92.2,8415],[92.2,8499],[92.2,8582],[92.2,8665],[92.2,8748],[92.2,8832],[92.2,8915],[92.2,8999],[92.2,9082],[92.2,9165],[92.2,9248],[92.2,9332],[92.2,9415],[92.2,9498],[92.2,9582],[92.2,9665],[92.2,9748],[92.2,9832],[92.2,9915],[92.2,9998],[92.2,10082],[92.2,10165],[92.2,10248],[92.2,10332],[92.2,10415],[92.2,10498],[92.2,10581],[92.2,10665],[92.2,10748],[92.2,10832],[92.2,10915],[92.2,10998],[92.2,11081],[92.2,11165],[92.2,11249],[92.2,11332],[92.2,11415],[92.2,11498],[92.2,11582],[92.2,11665],[92.2,11748],[92.2,11832],[92.2,11915],[92.2,11998],[92.2,12081],[92.2,12165],[92.2,12248],[92.2,12331],[92.2,12415],[92.2,12498],[92.2,12582],[92.2,12665],[92.1,12748],[91.5,12831],[91.1,12915],[90.9,12998],[90.8,13081],[90.8,13165],[90.8,13248],[90.8,13331],[90.8,13415],[90.8,13498],[90.8,13582],[90.7,13665],[90.7,13748],[90.7,13832],[90.7,13915],[90.7,13998],[90.7,14081],[90.7,14165],[90.7,14248],[90.7,14331],[90.7,14415],[90.7,14498],[90.7,14581],[90.7,14665],[90.7,14748],[90.7,14831],[90.7,14915],[90.7,14998],[90.7,15081],[90.7,15165],[90.7,15248],[90.7,15331],[90.7,15415],[90.7,15498],[90.7,15581],[90.7,15665],[90.7,15748],[90.7,15831],[90.7,15915],[90.7,15998],[90.7,16081],[90.7,16165],[90.7,16248],[90.7,16331],[90.7,16414],[90.7,16498],[90.7,16581],[90.7,16664],[90.7,16748],[90.7,16831],[90.7,16914],[90.7,16997],[90.7,17081],[90.7,17165],[90.7,17248],[90.7,17331],[90.7,17415],[90.7,17497],[90.7,17581],[90.7,17664],[90.7,17747],[90.7,17830],[90.7,17914],[90.7,17997],[90.7,18080],[90.7,18164],[90.7,18247],[90.7,18330],[90.7,18414],[90.7,18497],[90.7,18581],[90.7,18664],[90.7,18748],[90.7,18831],[90.4,18914],[90.4,18997],[90.4,19080],[90.4,19164],[89.8,19247],[89.5,19331],[89.4,19414],[89.4,19497],[89.4,19581],[89.4,19664],[89.4,19747],[89.4,19830],[89.4,19913],[89.4,19997],[89.4,20081],[89.4,20164],[89.4,20247],[89.4,20331],[89.4,20414],[89.4,20497],[89.4,20580],[89.4,20664],[89.4,20747],[89.4,20830],[89.4,20914],[89.4,20997],[89.3,21080],[89.3,21164],[88.9,21248],[87.9,21331],[87.4,21414],[87.3,21497],[87.3,21580],[87.3,21664],[87.2,21747],[86.4,21830],[85.7,21913],[85.6,21997],[85.3,22080],[85,22164],[85,22247],[85,22330]]",1,0,435.3739,437.0402,73.12500477,1.1558,"[{""rating"":73.12500476837158,""responseTime"":1.1558000000119364}]",space,1.1277,,437.0402,All the time,100,437.0411,,,[],,0,12,12,12,1,audio/Narrative8Situation3.wav,audio/Narrative7Situation3.wav,audio/Narrative6Situation3.wav,audio/Narrative5Situation3.wav,4,8,5,3,,,,,,,,,,,,,,,,,,,,,,,,,,,,,,,,,,,,,,,
,,,,,,656397844d363e786bc5ed4b,2024-02-08_15h02.55.857,group3.1-3.2-social-tom,2023.2.2,Win32,59.52380952,65c5074098b851296ff0b7ed,65c5416d3d48c4665308acbb,,,,,,,,,,,,,,,,,,,,,,,,,,,,,437.0413,1,audio/Narrative8Situation4.wav,440.0564,,440.0564,454.2227,"[[71.3,668],[69.9,752],[66.4,833],[58.8,917],[53.9,1000],[52.3,1083],[51.5,1168],[50.4,1250],[49.8,1333],[49.4,1416],[49.4,1500],[49.4,1583],[49.4,1667],[49.4,1751],[49.4,1833],[49.4,1916],[49.4,1999],[49.4,2083],[49.4,2166],[49.4,2249],[49.4,2333],[49.4,2416],[49.4,2500],[49.4,2583],[49.4,2666],[49.4,2749],[49.4,2833],[49.4,2916],[49.4,2999],[49.4,3083],[49.4,3166],[49.4,3249],[49.4,3333],[49.4,3416],[49.4,3499],[49.4,3583],[39,3666],[23.2,3750],[17.2,3833],[14.2,3916],[12.3,4000],[11.7,4083],[10.8,4167],[7.4,4250],[6.1,4333],[5.1,4416],[5,4500],[5,4583],[5,4666],[5,4750],[5,4833],[5,4916],[5,5000],[5,5083],[5,5166],[5,5250],[5,5333],[5,5416],[5,5500],[5,5583],[5,5666],[5,5750],[5,5833],[5,5916],[5,5999],[5,6082],[5,6166],[5,6250],[5,6333],[5,6416],[5,6499],[5,6583],[5,6666],[5,6749],[5,6833],[5,6916],[5,6999],[5,7083],[5,7166],[5,7249],[5,7333],[5,7416],[5,7499],[5,7583],[5.1,7667],[5.7,7752],[16.7,7833],[64.5,7999],[68,8083],[70,8166],[70.8,8249],[71.9,8333],[73.3,8417],[73.4,8499],[73.4,8583],[73.4,8666],[73.4,8749],[73.4,8833],[73.4,8916],[73.4,8999],[73.4,9082],[73.4,9166],[73.4,9249],[73.4,9333],[73.4,9416],[73.4,9499],[73.4,9582],[73.4,9666],[73.4,9749],[73.4,9833],[73.4,9916],[73.4,9999],[73.4,10083],[73.4,10166],[73.4,10249],[73.4,10333],[73.4,10416],[73.4,10499],[73.4,10582],[73.4,10666],[73.4,10749],[73.4,10832],[73.4,10915],[73.4,10999],[73.4,11082],[73.4,11166],[73.4,11249],[73.4,11332],[73.4,11415],[73.4,11499],[73.4,11582],[73.4,11666],[73.4,11749],[73.4,11832],[73.4,11915],[73.4,11999],[73.4,12082],[73.4,12165],[73.4,12249],[73.4,12332],[73.2,12421],[72.3,12498],[71,12582],[67.7,12667],[65.9,12749],[65.4,12832],[65.2,12915],[65.2,12999],[65.2,13083],[65.2,13165],[65.2,13249],[65.2,13332],[65.2,13415],[65.2,13499],[61.7,13582],[58.4,13665],[55.8,13749],[54.9,13832],[53.9,13915],[52.5,13999],[51.5,14082],[50.6,14166]]",1,0,454.2228,455.2556,50.10416508,0.593,"[{""rating"":50.10416507720947,""responseTime"":0.5930000000000177}]",space,0.4879,,455.2557,All the time,100,455.2577,,,[],,0,13,13,13,1,audio/Narrative8Situation4.wav,audio/Narrative7Situation4.wav,audio/Narrative6Situation4.wav,audio/Narrative5Situation4.wav,3,3,2,1,,,,,,,,,,,,,,,,,,,,,,,,,,,,,,,,,,,,,,,
,,,,,,656397844d363e786bc5ed4b,2024-02-08_15h02.55.857,group3.1-3.2-social-tom,2023.2.2,Win32,59.52380952,65c5074098b851296ff0b7ed,65c5416d3d48c4665308acbb,,,,,,,,,,,,,,,,,,,,,,,,,,,,,455.2579,1,audio/Narrative8Situation5.wav,457.2722,,457.2723,465.5212,"[[48,667],[48,750],[49.5,833],[49.8,916],[49.8,999],[49.8,1083],[49.8,1166],[49.8,1249],[49.8,1332],[49.8,1416],[49.8,1500],[49.8,1583],[49.8,1666],[49.8,1749],[49.8,1833],[49.8,1916],[49.8,1999],[49.8,2082],[49.8,2166],[49.8,2249],[49.8,2332],[49.8,2416],[49.8,2500],[49.8,2582],[49.8,2666],[49.8,2749],[49.8,2832],[49.8,2916],[49.8,2999],[49.8,3082],[49.8,3166],[49.8,3249],[49.7,3332],[49.7,3416],[49.7,3499],[47.6,3583],[28,3665],[18.4,3749],[16.4,3833],[14.7,3916],[13.2,3999],[12.8,4082],[12.8,4166],[12.9,4249],[12.9,4332],[12.9,4415],[12.9,4499],[12.9,4582],[12.9,4665],[12.9,4749],[12.9,4832],[12.9,4915],[12.9,4999],[12.9,5082],[12.9,5166],[12.9,5249],[12.9,5332],[12.9,5416],[12.9,5499],[12.9,5582],[12.9,5666],[12.9,5749],[12.9,5832],[12.9,5915],[12.9,5999],[12.9,6082],[12.9,6166],[12.9,6249],[12.9,6332],[12.9,6415],[12.9,6499],[12.9,6582],[12.9,6665],[12.9,6748],[12.9,6832],[12.9,6915],[12.9,6998],[12.9,7082],[12.9,7165],[12.9,7249],[12.9,7332],[12.9,7415],[12.9,7498],[12.9,7582],[12.9,7665],[12.9,7748],[12.9,7832],[12.9,7915],[12.9,7998],[12.9,8082],[12.9,8165],[12.9,8248]]",1,0,465.5214,470.0876,18.9583381,0.8455,"[{""rating"":18.958338101704914,""responseTime"":0.8454999999999586}]",space,4.0368,,470.0877,Not at all,0,470.1064,,,[],,0,14,14,14,1,audio/Narrative8Situation5.wav,audio/Narrative7Situation5.wav,audio/Narrative6Situation5.wav,audio/Narrative5Situation5.wav,2,5,2,5,,,,,,,,,,,,,,,,,,,,,,,,,,,,,,,,,,,,,,,
,,,,,,656397844d363e786bc5ed4b,2024-02-08_15h02.55.857,group3.1-3.2-social-tom,2023.2.2,Win32,59.52380952,65c5074098b851296ff0b7ed,65c5416d3d48c4665308acbb,,,,,,,,,,,,,,,,,,,,,,,,,,,,,470.1067,1,audio/Narrative8Situation6.wav,472.1211,,472.1212,478.6034,"[[32.2,251],[44.6,332],[50.5,749],[48.6,832],[48.6,916],[49.2,999],[49.4,1082],[49.4,1165],[49.5,1249],[49.5,1332],[49.5,1415],[49.5,1499],[49.5,1582],[49.5,1665],[49.5,1748],[34.1,1832],[23.6,1915],[18.1,1998],[15.2,2082],[14.2,2166],[13.8,2249],[13.8,2332],[13.8,2415],[13.8,2499],[13.8,2582],[13.8,2665],[13.8,2749],[13.8,2832],[13.8,2915],[13.8,2999],[13.8,3082],[13.8,3165],[13.8,3249],[13.8,3331],[13.8,3415],[13.8,3498],[13.8,3581],[13.8,3665],[13.8,3749],[13.8,3832],[13.8,3915],[13.8,3999],[13.8,4082],[13.8,4165],[13.8,4249],[13.8,4332],[13.8,4415],[13.8,4498],[13.8,4582],[13.8,4665],[13.8,4749],[13.8,4831],[13.8,4915],[13.8,4998],[13.8,5081],[13.8,5165],[13.8,5248],[13.8,5332],[13.8,5415],[13.8,5498],[13.8,5581],[13.8,5665],[13.8,5748],[13.8,5831],[13.8,5915],[13.8,5998],[13.8,6081],[13.8,6165],[13.8,6248],[13.8,6331],[13.8,6415]]",1,0,478.6036,480.0864,17.08333492,1.2068,"[{""rating"":17.083334922790527,""responseTime"":1.2067999999820813}]",space,0.9392,,480.0864,All the time,100,480.0895,,,[],,0,15,15,15,1,audio/Narrative8Situation6.wav,audio/Narrative7Situation6.wav,audio/Narrative6Situation6.wav,audio/Narrative5Situation6.wav,2,3,2,3,,,,,,,,,,,,,,,,,,,,,,,,,,,,,,,,,,,,,,,
,,,,,,656397844d363e786bc5ed4b,2024-02-08_15h02.55.857,group3.1-3.2-social-tom,2023.2.2,Win32,59.52380952,65c5074098b851296ff0b7ed,65c5416d3d48c4665308acbb,,,,,,,,,,,,,,,,,,,,,,,,,,,,,480.09,1,audio/Narrative8Situation7.wav,483.1024,,483.1024,495.1856,"[[51.5,83],[51.1,166],[51.1,250],[50.9,333],[50.5,417],[50.2,500],[50.2,583],[50.2,667],[50.2,750],[50.2,833],[50.2,916],[50.2,1000],[50.2,1083],[50.2,1166],[50.2,1250],[50.2,1333],[50.2,1416],[41.5,1500],[29.3,1583],[28.4,1666],[28,1750],[23.6,1833],[18.5,1918],[15.7,1999],[14.8,2083],[13.8,2166],[12,2250],[11.2,2333],[11.2,2416],[11.2,2499],[11.2,2583],[11.2,2667],[11.2,2750],[11.2,2833],[11.2,2916],[11.2,3000],[11.2,3083],[11.2,3167],[11.2,3250],[11.2,3333],[11.2,3417],[11.2,3500],[11.2,3583],[11.2,3667],[11.2,3750],[11.2,3833],[11.2,3917],[11.2,4000],[11.2,4083],[11.2,4166],[11.2,4250],[11.2,4333],[11.2,4416],[11.2,4500],[11.2,4583],[11.2,4666],[11.2,4750],[11.2,4833],[11.2,4916],[11.2,5000],[11.2,5083],[11.2,5166],[11.2,5250],[11.2,5333],[11.2,5416],[11.2,5499],[11.2,5583],[11.2,5666],[11.2,5749],[11.2,5832],[11.2,5916],[11.2,5999],[11.2,6082],[11.2,6166],[11.2,6249],[11.2,6333],[11.2,6416],[11.2,6500],[11.2,6582],[11.2,6666],[11.2,6749],[11.2,6832],[11.2,6916],[11.2,6999],[11.2,7083],[11.2,7166],[11.2,7249],[11.2,7333],[11.2,7416],[11.2,7500],[11.2,7583],[11.2,7666],[11.2,7750],[11.2,7833],[11.2,7916],[11.2,7999],[11.2,8082],[11.2,8166],[11.2,8249],[11.2,8333],[11.2,8416],[11.2,8499],[11.2,8582],[11.2,8666],[11.2,8750],[11.2,8832],[11.2,8916],[11.2,8999],[11.2,9082],[11.2,9166],[11.2,9249],[11.2,9332],[11.2,9416],[11.2,9499],[11.2,9582],[11.2,9666],[11.2,9749],[11.2,9832],[11.2,9916],[11.2,9999],[11.2,10082],[11.2,10166],[11.2,10249],[11.2,10332],[11.2,10415],[11.2,10499],[11.2,10582],[11.2,10666],[11.2,10749],[11.2,10832],[11.2,10916],[11.2,10999],[11.2,11082],[11.2,11166],[11.2,11249],[11.2,11332],[11.2,11416],[11.2,11499],[11.2,11582],[11.2,11666],[11.2,11749],[11.2,11832],[11.2,11916],[11.2,11999],[11.2,12082]]",1,0,495.1858,497.4074,16.66666667,1.407,"[{""rating"":16.666666666666668,""responseTime"":1.4069999999999823}]",space,1.6667,,497.4075,Half the time,50,497.4113,,,[],,0,16,16,16,1,audio/Narrative8Situation7.wav,audio/Narrative7Situation7.wav,audio/Narrative6Situation7.wav,audio/Narrative5Situation7.wav,3,5,5,4,,,,,,,,,,,,,,,,,,,,,,,,,,,,,,,,,,,,,,,
,,,,,,656397844d363e786bc5ed4b,2024-02-08_15h02.55.857,group3.1-3.2-social-tom,2023.2.2,Win32,59.52380952,65c5074098b851296ff0b7ed,65c5416d3d48c4665308acbb,,,,,,,,,,,,,,,,,,,,,,,,,,,,,497.4117,1,audio/Narrative8Situation8.wav,500.4179,,500.4179,513.2669,"[[46,337],[47.6,421],[50,505],[50.9,588],[50.9,666],[50.9,749],[54,840],[70.6,921],[81.6,1006],[81.9,1082],[81.9,1165],[81.9,1249],[81.9,1332],[81.9,1421],[81.9,1499],[81.9,1583],[81.9,1666],[81.9,1749],[81.9,1832],[81.9,1915],[81.9,1999],[81.9,2082],[81.9,2165],[81.9,2255],[81.9,2332],[81.9,2416],[81.9,2499],[81.9,2588],[81.9,2666],[81.9,2749],[81.9,2832],[81.9,2915],[81.9,2999],[81.9,3082],[81.9,3165],[81.9,3249],[81.9,3332],[81.9,3416],[81.9,3499],[81.9,3582],[81.9,3665],[81.9,3749],[81.9,3837],[81.9,3920],[81.9,4004],[81.9,4082],[81.9,4165],[81.9,4249],[81.9,4338],[81.9,4415],[81.9,4499],[81.9,4582],[81.9,4665],[81.9,4749],[81.9,4832],[81.4,4932],[81.4,5015],[81.4,5099],[81.4,5182],[81.4,5265],[81.4,5349],[81.4,5432],[83.8,5515],[87,5599],[88,5682],[89.1,5766],[89.6,5848],[90.4,5933],[91,6015],[91.9,6099],[92.2,6182],[92.5,6265],[92.5,6349],[92.7,6432],[92.7,6515],[93.1,6599],[93.2,6682],[93.4,6766],[93.8,6849],[93.8,6932],[93.8,7015],[93.8,7099],[93.8,7182],[93.8,7265],[93.8,7349],[93.8,7432],[93.8,7515],[93.8,7599],[93.8,7682],[93.8,7765],[93.8,7849],[93.8,7932],[93.8,8015],[93.8,8098],[93.8,8182],[93.8,8265],[93.8,8348],[93.8,8432],[93.8,8515],[93.8,8598],[93.8,8682],[93.8,8765],[93.8,8848],[93.8,8932],[93.8,9015],[93.8,9098],[93.8,9182],[93.8,9265],[92.5,9349],[61.9,9432],[39.3,9514],[29.7,9598],[25.1,9682],[22.8,9765],[17.3,9848],[12.9,9931],[11.6,10015],[10.5,10098],[9.6,10182],[9.6,10265],[9.6,10348],[9.6,10432],[9.6,10515],[9.6,10598],[9.6,10681],[9.6,10765],[9.6,10848],[9.6,10931],[9.6,11015],[9.6,11098],[9.6,11181],[9.6,11265],[9.6,11348],[9.6,11431],[9.6,11515],[9.6,11598],[9.6,11681],[9.6,11765],[9.6,11848],[9.6,11931],[9.6,12014],[9.6,12098],[9.6,12181],[9.6,12265],[9.6,12348],[9.6,12432],[9.6,12515],[9.6,12598],[9.6,12681],[9.6,12764],[9.6,12848]]",1,0,513.267,515.4166,60.62500477,1.323,"[{""rating"":60.62500476837158,""responseTime"":1.322999999999979}]",space,1.6119,,515.4167,All the time,100,515.4215,,,[],,0,17,17,17,1,audio/Narrative8Situation8.wav,audio/Narrative7Situation8.wav,audio/Narrative6Situation8.wav,audio/Narrative5Situation8.wav,3,2,5,3,,,,,,,,,,,,,,,,,,,,,,,,,,,,,,,,,,,,,,,
,,,,,,656397844d363e786bc5ed4b,2024-02-08_15h02.55.857,group3.1-3.2-social-tom,2023.2.2,Win32,59.52380952,65c5074098b851296ff0b7ed,65c5416d3d48c4665308acbb,,,,,,,,,,,,,,,,,,,,,,,,,,,,,515.4221,1,audio/Narrative8Situation9.wav,518.4335,,518.4336,529.7648,"[[50.6,82],[49.8,165],[49.3,249],[49.1,332],[48.8,416],[48.8,499],[49.4,583],[49.8,666],[49.8,749],[49.8,832],[49.8,915],[49.8,999],[49.8,1082],[49.8,1165],[49.8,1249],[49.8,1332],[49.8,1415],[49.8,1499],[49.8,1582],[49.8,1665],[49.8,1749],[49.8,1832],[49.8,1915],[49.8,1998],[49.8,2082],[49.8,2165],[49.8,2248],[49.8,2332],[49.1,2416],[48,2499],[47.8,2582],[47.8,2665],[47.8,2748],[47.8,2832],[47.8,2915],[47.8,2998],[47.8,3082],[45.8,3165],[29.5,3248],[15.1,3334],[11.8,3415],[11,3498],[10.8,3581],[10,3664],[9.7,3748],[9.7,3831],[9.7,3915],[9.7,3998],[9.7,4081],[9.7,4165],[9.7,4248],[9.7,4332],[9.7,4415],[9.7,4498],[9.7,4581],[9.7,4665],[9.7,4748],[9.7,4831],[9.7,4915],[9.7,4998],[9.7,5081],[9.7,5165],[9.7,5247],[9.7,5332],[9.7,5415],[9.7,5498],[9.7,5581],[9.7,5665],[9.7,5748],[9.6,5832],[9.3,5916],[9.1,5998],[8.4,6082],[7.9,6165],[7.9,6248],[7.9,6331],[7.9,6415],[7.9,6498],[7.9,6581],[7.9,6665],[7.9,6748],[7.9,6831],[7.8,6915],[7.8,6998],[13.6,7082],[54.4,7165],[74.2,7248],[77.9,7332],[80.9,7417],[85.5,7498],[87,7581],[89,7664],[90.3,7747],[90.6,7831],[91,7914],[91.6,7999],[91.6,8081],[91.6,8164],[91.6,8247],[91.6,8331],[91.6,8415],[91.6,8498],[91.6,8581],[91.6,8664],[91.6,8748],[91.6,8831],[91.6,8914],[91.6,8997],[91.6,9081],[91.6,9164],[91.6,9247],[91.6,9331],[91.6,9414],[91.6,9498],[91.6,9581],[91.6,9664],[91.6,9748],[91.6,9831],[91.6,9914],[91.6,9997],[91.6,10081],[91.6,10164],[91.6,10247],[91.6,10331],[91.6,10414],[91.6,10497],[91.6,10581],[91.6,10664],[91.6,10748],[91.6,10831],[91.6,10914],[91.6,10998],[91.6,11081],[91.6,11164],[91.6,11248],[91.6,11331]]",1,0,529.765,531.2816,42.1875,1.1474,"[{""rating"":42.1875,""responseTime"":1.1474000000059732}]",space,0.9674,,531.2816,All the time,100,543.0687,99.58333969,9.5402,"[{""rating"":99.58333969116211,""responseTime"":9.540200000017876}]",space,0,18,18,18,1,audio/Narrative8Situation9.wav,audio/Narrative7Situation9.wav,audio/Narrative6Situation9.wav,audio/Narrative5Situation9.wav,3,2,4,3,,,11.2399,,,,,,,,,,,,,,,,,,,,,,,,,,,,,,,,,,,,
,,,,,,656397844d363e786bc5ed4b,2024-02-08_15h02.55.857,group3.1-3.2-social-tom,2023.2.2,Win32,59.52380952,65c5074098b851296ff0b7ed,65c5416d3d48c4665308acbb,,,,,,,,,,,,,,,,,,,,,,,,,,,589.2164,591.7757,591.8001,2,audio/Narrative13Situation2.wav,591.8001,,591.8002,621.5556,"[[95.4,75],[94.9,158],[94.9,241],[94.9,325],[94.9,408],[94.9,491],[94.9,575],[51.3,1074],[54.2,1158],[53.5,1324],[52.5,1408],[51.6,1493],[51,1574],[50.6,1658],[50.6,1741],[50.6,1824],[50.6,1908],[50.6,1991],[50.6,2074],[50.6,2158],[50.6,2241],[50.6,2324],[48.9,2408],[39.9,2491],[26.3,2575],[17.1,2657],[12.9,2741],[10.2,2826],[9.3,2908],[9.3,2991],[9.3,3074],[9.3,3158],[9.3,3241],[9.3,3324],[9.3,3408],[9.3,3491],[9.3,3574],[9.3,3658],[9.3,3741],[9.3,3824],[9.3,3908],[9.3,3991],[9.3,4074],[9.3,4158],[9.3,4241],[9.3,4324],[9.3,4408],[9.3,4491],[9.3,4574],[9.3,4658],[9.3,4741],[9.3,4824],[9.3,4908],[9.3,4991],[9.3,5074],[9.3,5158],[9.3,5241],[9.3,5324],[9.3,5408],[9.3,5491],[9.3,5574],[9.3,5657],[9.3,5741],[9.3,5824],[9.3,5907],[9.3,5991],[9.3,6074],[9.3,6157],[9.3,6241],[9.3,6324],[9.3,6407],[9.3,6491],[9.3,6574],[9.3,6657],[9.3,6740],[9.3,6824],[9.3,6907],[9.3,6990],[9.3,7074],[9.3,7157],[9.3,7241],[9.3,7324],[9.3,7407],[9.3,7491],[9.3,7574],[9.3,7657],[9.3,7740],[9.3,7824],[9.3,7907],[9.3,7990],[9.3,8074],[9.3,8157],[9.3,8240],[9.3,8324],[9.3,8407],[9.3,8490],[9.3,8574],[9.3,8657],[9.3,8741],[9.3,8824],[9.3,8907],[9.3,8990],[9.3,9074],[9.3,9157],[9.3,9240],[9.3,9324],[9.3,9407],[9.3,9490],[9.3,9574],[9.3,9657],[9.3,9740],[9.3,9824],[9.3,9907],[9.3,9990],[9.3,10074],[9.3,10157],[9.3,10240],[9.3,10324],[9.3,10407],[9.3,10490],[9.3,10574],[9.3,10657],[9.3,10740],[9.3,10824],[9.3,10907],[9.3,10990],[9.3,11074],[9.3,11157],[9.3,11240],[9.3,11324],[9.3,11407],[9.3,11490],[9.3,11574],[9.3,11656],[9.3,11740],[9.3,11824],[9.3,11907],[9.3,11990],[9.3,12074],[9.3,12157],[9.3,12240],[9.3,12323],[9.3,12407],[9.3,12490],[9.3,12574],[9.3,12657],[9.3,12740],[9.3,12824],[9.3,12907],[9.3,12990],[9.3,13074],[9.3,13157],[9.3,13240],[9.3,13324],[9.3,13407],[9.3,13490],[9.3,13574],[9.3,13657],[9.3,13740],[9.3,13824],[9.3,13907],[9.3,13990],[9.3,14074],[9.3,14157],[9.3,14240],[45.5,14324],[69.6,14407],[69.7,14490],[69.7,14574],[70.5,14657],[72.7,14740],[72.7,14823],[72.7,14907],[72.7,14990],[72.7,15073],[72.7,15157],[72.7,15240],[72.7,15323],[72.7,15406],[72.7,15490],[72.7,15573],[72.7,15656],[72.7,15739],[72.7,15823],[72.7,15906],[66.4,15990],[42.1,16075],[24.6,16157],[22.5,16239],[21.6,16323],[19.1,16406],[15.4,16491],[12.6,16573],[12.3,16656],[12.3,16739],[12.3,16823],[12.3,16906],[12.3,16990],[12.3,17073],[12.3,17156],[12.3,17240],[12.3,17323],[12.3,17406],[12.3,17489],[12.3,17573],[12.3,17656],[12.3,17739],[12.3,17823],[12.3,17906],[12.3,17989],[12.3,18073],[12.3,18156],[12.3,18240],[12.3,18322],[12.3,18406],[12.3,18489],[12.3,18573],[12.3,18656],[12.3,18740],[12.3,18823],[12.3,18906],[12.3,18990],[12.3,19073],[12.3,19156],[12.3,19240],[12.3,19323],[12.3,19406],[12.3,19490],[12.3,19573],[12.3,19656],[12.3,19739],[12.3,19822],[12.3,19906],[12.3,19989],[12.3,20073],[12.3,20156],[12.3,20239],[12.3,20322],[12.3,20406],[12.3,20489],[12.3,20572],[12.3,20656],[12.3,20739],[12.3,20822],[12.3,20906],[12.3,20990],[12.3,21072],[12.3,21156],[12.3,21239],[12.3,21322],[12.3,21406],[12.3,21489],[12.3,21572],[12.3,21656],[12.3,21739],[12.3,21822],[12.3,21906],[12.3,21989],[12.3,22073],[12.3,22156],[12.3,22239],[12.3,22322],[12.3,22406],[12.3,22490],[12.3,22573],[12.3,22656],[12.3,22739],[12.3,22822],[12.3,22906],[12.3,22989],[12.3,23072],[12.3,23156],[12.3,23239],[12.3,23322],[12.3,23406],[12.3,23489],[12.3,23572],[12.3,23656],[12.3,23739],[12.3,23822],[12.3,23905],[20.7,23989],[41.1,24072],[56,24155],[62.9,24239],[63.2,24322],[63.9,24405],[63.9,24489],[65.6,24573],[70,24655],[70,24739],[70,24822],[70,24905],[70,24989],[70,25072],[70,25155],[70,25239],[70,25322],[67.2,25406],[51.6,25489],[35,25572],[29.4,25655],[25.4,25738],[22.1,25822],[20.9,25908],[19.4,25989],[17.3,26072],[15.3,26156],[13.6,26239],[12.2,26322],[10.5,26405],[9.5,26489],[8.4,26572],[7.6,26656],[7.5,26739],[7.4,26822],[7.2,26905],[7.2,26989],[7.2,27072],[7.2,27156],[7.2,27239],[7.2,27322],[7.2,27406],[7.2,27489],[7.2,27572],[7.2,27655],[7.2,27739],[7.2,27822],[7.2,27905],[7.2,27988],[7.2,28072],[7.2,28155],[7.2,28239],[7.2,28322],[7.2,28405],[7.2,28489],[7.2,28572],[7.2,28655],[7.2,28739],[7.2,28821],[7.2,28905],[7.2,28989],[7.2,29072],[7.2,29155],[7.2,29238],[7.2,29322],[7.2,29405],[7.2,29488],[7.2,29571],[7.2,29655],[7.2,29738]]",1,0,621.5558,621.5578,,,[],,,,621.5579,Half the time,50,621.5611,,,[],,0,0,0,0,1,audio/Narrative13Situation2.wav,audio/Narrative13Situation2.wav,audio/Narrative13Situation2.wav,audio/Narrative13Situation2.wav,2,2,2,2,,,,,543.0703,589.1947,space,45.603,,,,,,,,,,,,,,,,,,,,,,,,,,,,,,,
,,,,,,656397844d363e786bc5ed4b,2024-02-08_15h02.55.857,group3.1-3.2-social-tom,2023.2.2,Win32,59.52380952,65c5074098b851296ff0b7ed,65c5416d3d48c4665308acbb,,,,,,,,,,,,,,,,,,,,,,,,,,,,,621.5614,2,audio/Narrative5Situation1.wav,626.572,,626.5721,639.8875,"[[999,18],[999,82],[999,166],[999,249],[999,332],[999,421],[47.1,504],[48.8,588],[49.8,671],[49.9,749],[49.9,832],[49.9,916],[49.9,999],[49.9,1082],[49.9,1170],[49.9,1250],[49.9,1332],[49.9,1421],[49.9,1499],[49.9,1582],[49.9,1666],[49.9,1749],[49.9,1833],[49.9,1916],[49.9,1999],[49.9,2088],[49.9,2166],[49.9,2254],[49.9,2338],[49.9,2416],[49.9,2499],[49.9,2582],[49.9,2666],[49.9,2754],[49.9,2832],[49.9,2916],[49.9,2999],[49.9,3082],[49.9,3166],[49.9,3249],[49.9,3338],[49.9,3419],[41.7,3505],[26.7,3588],[20.4,3672],[18.3,3750],[15.7,3840],[14.8,3923],[14.7,4000],[13.8,4089],[12.8,4172],[12.7,4249],[12.7,4332],[12.7,4416],[12.7,4499],[12.7,4582],[12.7,4666],[12.7,4749],[12.7,4832],[12.7,4916],[12.7,4999],[12.7,5082],[12.7,5166],[12.7,5253],[12.7,5332],[12.7,5416],[12.7,5505],[12.7,5582],[12.7,5666],[12.7,5749],[12.7,5832],[12.7,5916],[12.7,6003],[12.7,6082],[12.7,6165],[12.7,6249],[12.7,6337],[12.7,6415],[12.7,6498],[12.7,6586],[12.7,6665],[12.7,6754],[12.7,6831],[12.7,6915],[12.7,6998],[12.7,7081],[12.7,7169],[12.7,7248],[12.7,7331],[12.7,7419],[14.6,7498],[67,7671],[67.7,7748],[69.5,7838],[69.5,7915],[69.5,7998],[69.4,8086],[69.4,8165],[69.4,8248],[69.4,8332],[69.2,8415],[69.2,8498],[69.2,8582],[69.2,8665],[69.2,8748],[69.2,8832],[69.2,8915],[69.2,8998],[69.2,9087],[69.2,9165],[69.2,9248],[69.2,9336],[69.2,9415],[69.2,9504],[69.2,9581],[69.2,9670],[69.2,9754],[69.2,9832],[69.2,9915],[69.2,9998],[69.2,10082],[71.1,10171],[71.8,10248],[71.9,10337],[73.9,10421],[75.9,10499],[78.4,10586],[80.8,10671],[82.1,10754],[82.1,10832],[82.1,10915],[82.1,10998],[82.1,11081],[51.8,11170],[36.1,11249],[26.6,11337],[18,11416],[15,11503],[14.2,11581],[12.6,11665],[11.8,11754],[11.8,11832],[11.7,11920],[11.2,12004],[11.2,12088],[11.2,12164],[11.2,12249],[11.2,12331],[11.2,12414],[11.2,12503],[11.2,12587],[11.2,12665],[11.2,12753],[11.2,12831],[11.2,12914],[11.2,12998],[11.2,13081],[11.2,13164],[11.2,13248]]",1,0,639.8878,641.7934,38.54166667,1.1464,"[{""rating"":38.54166666666667,""responseTime"":1.1463999999760972}]",space,1.3675,,641.7935,Not at all,0,641.7984,,,[],,0,1,1,1,1,audio/Narrative7Situation1.wav,audio/Narrative8Situation1.wav,audio/Narrative5Situation1.wav,audio/Narrative6Situation1.wav,2,5,5,2,,,,,,,,,,,,,,,,,,,,,,,,,,,,,,,,,,,,,,,
,,,,,,656397844d363e786bc5ed4b,2024-02-08_15h02.55.857,group3.1-3.2-social-tom,2023.2.2,Win32,59.52380952,65c5074098b851296ff0b7ed,65c5416d3d48c4665308acbb,,,,,,,,,,,,,,,,,,,,,,,,,,,,,641.7989,2,audio/Narrative5Situation2.wav,644.81,,644.81,674.2669,"[[44.6,92],[46.8,176],[47.2,259],[47.8,343],[51,427],[51.4,509],[51.4,592],[50.9,676],[50.1,759],[49.8,842],[49.8,926],[49.8,1009],[49.8,1093],[49.8,1176],[49.8,1259],[49.8,1343],[49.8,1426],[49.8,1509],[49.8,1593],[49.8,1676],[49.8,1759],[49.8,1842],[49.8,1927],[49.8,2009],[49.8,2092],[49.8,2176],[37.5,2259],[29.4,2343],[23.9,2426],[18.5,2509],[16.8,2593],[14.9,2676],[13.4,2759],[12.7,2842],[12.7,2926],[12.7,3009],[12.7,3093],[12.7,3176],[12.7,3259],[12.7,3342],[12.7,3426],[12.7,3509],[12.7,3592],[12.7,3676],[12.7,3759],[12.7,3842],[12.7,3926],[12.7,4009],[12.7,4093],[12.7,4176],[12.7,4259],[12.7,4343],[12.7,4426],[12.7,4509],[12.7,4592],[12.7,4676],[12.7,4759],[12.7,4843],[12.7,4925],[12.7,5009],[12.7,5093],[12.7,5175],[12.7,5259],[12.7,5342],[12.7,5425],[12.7,5509],[12.7,5592],[12.7,5676],[12.7,5759],[12.7,5842],[12.7,5926],[12.7,6008],[12.7,6092],[12.7,6175],[12.7,6259],[12.7,6342],[12.7,6425],[12.7,6509],[12.7,6592],[12.7,6675],[12.7,6759],[12.7,6842],[12.7,6926],[12.7,7009],[12.7,7092],[12.7,7175],[12.7,7258],[12.7,7342],[12.7,7425],[12.7,7509],[12.7,7592],[12.7,7675],[12.7,7758],[12.7,7842],[12.7,7925],[12.7,8009],[12.7,8092],[12.7,8175],[12.7,8259],[12.7,8342],[12.7,8425],[12.7,8509],[12.7,8592],[12.7,8675],[12.7,8759],[12.7,8842],[12.7,8925],[12.7,9008],[12.7,9092],[12.7,9175],[12.7,9258],[12.7,9342],[12.7,9425],[12.7,9508],[12.7,9592],[12.7,9675],[12.7,9758],[12.7,9842],[12.7,9925],[12.7,10009],[12.7,10092],[12.7,10175],[12.7,10258],[12.7,10342],[12.7,10425],[12.7,10508],[12.7,10592],[12.7,10675],[12.7,10759],[12.7,10841],[12.7,10925],[12.7,11008],[12.7,11091],[12.7,11174],[12.7,11258],[12.7,11341],[12.7,11425],[12.7,11508],[12.7,11592],[12.7,11675],[12.7,11758],[12.7,11841],[12.7,11924],[12.7,12008],[12.7,12092],[12.7,12175],[12.7,12258],[12.7,12342],[12.7,12425],[12.7,12508],[12.7,12592],[12.7,12675],[12.7,12758],[12.7,12842],[12.7,12925],[12.7,13008],[12.7,13092],[12.7,13175],[12.7,13258],[12.7,13341],[12.7,13425],[12.7,13508],[12.7,13591],[12.7,13675],[12.7,13758],[12.7,13842],[12.7,13924],[13.5,14008],[27,14091],[41.5,14174],[56.1,14259],[63.2,14341],[67,14425],[73.1,14508],[66.9,15759],[66.8,15842],[66.9,15925],[67.5,16008],[68.2,16091],[69.3,16174],[70.7,16258],[72.6,16341],[74.4,16424],[76.4,16510],[78.5,16591],[79.7,16674],[80.1,16758],[80.4,16841],[80.4,16925],[82.2,17007],[82.9,17091],[82.9,17174],[83.1,17258],[83.8,17342],[83.8,17424],[83.9,17508],[84.7,17591],[85.3,17674],[85.4,17758],[87,17841],[87.3,17924],[90.7,19174],[90.7,19257],[90.7,19341],[90.7,19424],[90.9,19508],[91.6,19591],[92,19674],[92.5,19757],[93,19841],[93.1,19924],[93.1,20007],[93.1,20091],[93.1,20174],[93.1,20257],[93.1,20341],[93.1,20424],[93.1,20507],[93.1,20591],[93.1,20674],[93.1,20757],[93.1,20841],[93.1,20924],[93.1,21007],[93.1,21091],[92.1,21174],[62.4,21257],[39.9,21340],[29,21424],[21.5,21508],[18.3,21591],[16.5,21674],[15.5,21758],[15.2,21841],[15.2,21924],[14.5,22007],[13.4,22091],[12.6,22174],[12.4,22257],[12.4,22341],[12.4,22424],[12.4,22507],[12.4,22591],[12.4,22674],[12.4,22757],[12.4,22840],[12.4,22924],[12.4,23007],[12.4,23090],[12.4,23174],[12.4,23257],[12.4,23340],[12.4,23423],[12.4,23507],[12.4,23591],[12.4,23674],[12.4,23757],[12.4,23840],[12.4,23924],[12.4,24007],[12.4,24090],[12.4,24174],[12.4,24257],[12.4,24341],[12.4,24424],[12.4,24507],[12.4,24591],[12.4,24673],[12.4,24757],[12.4,24840],[12.4,24923],[12.4,25007],[12.4,25090],[12.4,25174],[12.4,25257],[12.4,25340],[12.4,25423],[12.4,25507],[12.4,25590],[12.4,25674],[12.4,25757],[12.4,25840],[12.4,25924],[12.4,26007],[12.4,26090],[12.4,26173],[12.4,26257],[12.4,26340],[12.4,26424],[12.4,26507],[12.4,26591],[12.4,26674],[12.4,26757],[12.4,26840],[12.4,26924],[12.4,27007],[12.4,27090],[12.4,27174],[12.4,27256],[12.4,27340],[12.4,27423],[12.4,27506],[12.5,27590],[12.8,27673],[12.8,27756],[12.8,27840],[12.8,27923],[12.9,28007],[12.9,28090],[12.9,28174],[12.9,28257],[12.9,28340],[12.9,28423],[14.8,28507],[16.6,28591],[17.7,28674],[18.2,28757],[19.6,28840],[20.1,28923],[20.1,29006],[20.1,29089],[20.1,29173],[20.1,29256],[20.1,29340],[20.1,29423]]",1,0,674.2672,681.6889,45.83333333,3.5447,"[{""rating"":45.83333333333333,""responseTime"":3.544700000017883}]",space,6.8716,,681.689,Half the time,50,681.7167,,,[],,0,2,2,2,1,audio/Narrative7Situation2.wav,audio/Narrative8Situation2.wav,audio/Narrative5Situation2.wav,audio/Narrative6Situation2.wav,3,3,3,3,,,,,,,,,,,,,,,,,,,,,,,,,,,,,,,,,,,,,,,
,,,,,,656397844d363e786bc5ed4b,2024-02-08_15h02.55.857,group3.1-3.2-social-tom,2023.2.2,Win32,59.52380952,65c5074098b851296ff0b7ed,65c5416d3d48c4665308acbb,,,,,,,,,,,,,,,,,,,,,,,,,,,,,681.717,2,audio/Narrative5Situation3.wav,684.7328,,684.7329,698.6482,"[[50,583],[49.9,666],[49.3,749],[49.3,833],[49.3,916],[49.3,999],[49.3,1082],[49.3,1166],[49.3,1249],[49.3,1332],[49.3,1416],[49.3,1499],[49.3,1582],[49.3,1665],[49.2,1750],[49.1,1833],[49.1,1915],[49.1,1999],[49.1,2082],[48.5,2166],[46.7,2249],[37.4,2332],[28.9,2415],[23.3,2499],[20.2,2583],[19,2665],[17.8,2750],[16.8,2833],[15.8,2916],[14.9,2999],[14.5,3082],[14.2,3167],[13.1,3249],[12.2,3332],[11.9,3416],[11.9,3499],[11.9,3582],[11.9,3665],[11.9,3749],[11.9,3832],[11.9,3916],[11.9,3999],[11.9,4082],[11.9,4165],[11.9,4249],[11.9,4332],[11.9,4415],[11.9,4499],[11.9,4582],[11.9,4665],[11.9,4749],[11.9,4832],[11.9,4915],[11.9,4999],[11.9,5082],[11.9,5165],[11.9,5249],[11.9,5332],[11.9,5415],[11.9,5499],[11.9,5582],[11.9,5665],[11.9,5748],[11.9,5832],[11.9,5915],[11.9,5999],[11.9,6082],[11.9,6165],[11.9,6249],[11.9,6332],[11.9,6415],[11.9,6499],[11.9,6582],[11.9,6665],[11.9,6749],[11.9,6832],[11.9,6915],[11.9,6999],[11.9,7082],[11.9,7165],[11.9,7249],[11.9,7332],[11.9,7415],[11.9,7499],[14.8,7587],[76,8082],[75.8,8165],[75.8,8248],[77.9,8332],[78.5,8415],[79,8499],[79.6,8582],[80.2,8666],[80.6,8749],[80.7,8832],[80.7,8915],[80.7,8998],[80.7,9081],[80.7,9165],[80.7,9249],[80.7,9332],[80.7,9415],[80.7,9499],[80.7,9582],[80.7,9665],[80.7,9749],[80.7,9832],[80.7,9915],[80.7,9998],[80.7,10081],[80.7,10165],[80.7,10249],[80.7,10331],[80.7,10415],[80.7,10498],[80.7,10581],[80.7,10665],[80.7,10748],[80.7,10831],[80.7,10915],[80.7,10998],[80.7,11081],[80.7,11165],[80.7,11248],[80.7,11331],[80.7,11415],[80.7,11498],[80.7,11581],[80.7,11665],[80.7,11749],[80.7,11831],[80.7,11914],[80.7,11998],[80.7,12081],[80.7,12165],[80.7,12248],[80.7,12331],[80.7,12415],[80.7,12498],[75.9,12585],[59.4,12667],[48.8,12748],[43.9,12832],[40.6,12915],[38.8,12998],[37.8,13081],[37.8,13164],[37.8,13248],[37.8,13331],[37.8,13415],[37.8,13498],[37.8,13581],[37.8,13664],[37.8,13748],[37.8,13831],[37.8,13915]]",1,0,698.6484,700.7972,62.39583492,1.2549,"[{""rating"":62.39583492279053,""responseTime"":1.2549000000059323}]",space,1.6054,,700.7973,All the time,100,700.7985,,,[],,0,3,3,3,1,audio/Narrative7Situation3.wav,audio/Narrative8Situation3.wav,audio/Narrative5Situation3.wav,audio/Narrative6Situation3.wav,8,4,3,5,,,,,,,,,,,,,,,,,,,,,,,,,,,,,,,,,,,,,,,
,,,,,,656397844d363e786bc5ed4b,2024-02-08_15h02.55.857,group3.1-3.2-social-tom,2023.2.2,Win32,59.52380952,65c5074098b851296ff0b7ed,65c5416d3d48c4665308acbb,,,,,,,,,,,,,,,,,,,,,,,,,,,,,700.7986,2,audio/Narrative5Situation4.wav,701.8144,,701.8144,722.2125,"[[62.1,832],[59.3,917],[57.9,999],[57.9,1083],[54.6,1167],[49.7,1249],[49.3,1333],[49.2,1416],[49.1,1500],[49.7,1583],[50,1666],[50,1749],[50,1832],[50,1916],[50,1999],[50,2082],[50,2166],[50,2249],[50,2332],[38.1,2416],[31.7,2499],[28.9,2583],[26.3,2666],[21.9,2749],[18.8,2833],[17.9,2915],[17.9,2999],[17.9,3083],[16.6,3167],[9.9,3249],[7.1,3332],[5.5,3416],[5.3,3499],[5.3,3582],[5.3,3666],[5.3,3749],[5.3,3832],[5.3,3915],[5.3,3999],[5.3,4082],[5.3,4166],[5.3,4249],[5.3,4332],[5.3,4415],[5.3,4499],[5.3,4582],[5.3,4665],[5.3,4749],[5.3,4832],[5.3,4915],[5.3,4999],[5.3,5082],[5.3,5165],[5.3,5249],[5.3,5332],[5.3,5415],[5.3,5499],[5.3,5582],[5.3,5665],[5.3,5749],[11.1,5832],[36.5,5917],[61.8,5999],[66.1,6082],[68.3,6165],[70.3,6249],[72.3,6333],[75.4,6415],[76.3,6499],[76.4,6582],[78.9,6665],[80.4,6749],[80.4,6832],[80.5,6915],[80.5,6998],[80.5,7082],[80.5,7165],[80.5,7249],[80.5,7332],[80.5,7415],[80.5,7499],[80.5,7582],[80.5,7665],[80.5,7749],[80.9,7832],[85.1,7915],[85.4,7998],[87,8084],[88.5,8165],[88.5,8249],[88.5,8332],[88.5,8415],[88.5,8499],[88.5,8582],[88.5,8665],[88.5,8748],[88.5,8832],[88.5,8915],[88.5,8999],[88.5,9082],[88.5,9165],[88.5,9249],[88.5,9332],[88.5,9415],[88.5,9498],[88.5,9582],[88.5,9665],[88.5,9749],[88.5,9831],[88.5,9915],[88.5,9998],[88.5,10082],[88.5,10165],[82.3,10249],[66.2,10331],[23,10915],[23,10998],[23,11084],[23,11165],[23,11248],[23,11331],[22.6,11415],[22,11500],[21,11582],[20.4,11665],[20.4,11748],[20.4,11832],[20.3,11915],[20.3,11998],[20.3,12081],[20.3,12165],[20.3,12248],[20.3,12332],[20.3,12415],[20.3,12498],[20.3,12582],[20.3,12665],[20.3,12748],[20.3,12831],[20.3,12915],[20.3,12998],[20.3,13081],[20.3,13165],[20.3,13248],[20.3,13331],[20.3,13415],[20.3,13498],[20.3,13581],[20.3,13665],[20.3,13748],[20.3,13831],[20.3,13915],[20.3,13998],[20.3,14081],[20.3,14164],[20.3,14248],[20.3,14331],[20.3,14415],[20.3,14498],[20.3,14581],[20.3,14664],[20.3,14748],[20.3,14831],[20.3,14915],[20.3,14998],[20.3,15081],[20.3,15164],[20.3,15248],[20.3,15331],[20.3,15415],[20.3,15498],[20.3,15581],[20.3,15665],[20.3,15748],[20.3,15831],[20.3,15914],[20.3,15997],[20.3,16081],[20.3,16164],[20.3,16248],[20.3,16331],[20.3,16414],[20.3,16498],[20.3,16581],[20.3,16664],[20.3,16748],[20.3,16831],[20.3,16914],[20.3,16998],[20.3,17081],[20.3,17164],[20.3,17247],[20.3,17331],[20.3,17414],[20.3,17498],[20.3,17581],[20.3,17664],[20.3,17748],[20.3,17831],[20.3,17914],[20.3,17997],[20.3,18081],[20.3,18164],[20.3,18247],[20.3,18331],[20.3,18414],[20.3,18497],[20.3,18581],[20.3,18664],[20.3,18747],[26.5,18830],[40.9,18914],[51.8,18998],[59.3,19081],[67.4,19164],[70.3,19248],[70.3,19331],[71.8,19415],[72.4,19498],[72.5,19581],[72.5,19664],[72.5,19748],[72.5,19831],[72.5,19914],[72.5,19997],[72.5,20081],[72.5,20164],[72.5,20247],[72.5,20330]]",1,0,722.2127,725.3123,50,2.1928,"[{""rating"":50,""responseTime"":2.192799999982185}]",space,2.5512,,725.3124,All the time,100,725.315,,,[],,0,4,4,4,1,audio/Narrative7Situation4.wav,audio/Narrative8Situation4.wav,audio/Narrative5Situation4.wav,audio/Narrative6Situation4.wav,3,3,1,2,,,,,,,,,,,,,,,,,,,,,,,,,,,,,,,,,,,,,,,
,,,,,,656397844d363e786bc5ed4b,2024-02-08_15h02.55.857,group3.1-3.2-social-tom,2023.2.2,Win32,59.52380952,65c5074098b851296ff0b7ed,65c5416d3d48c4665308acbb,,,,,,,,,,,,,,,,,,,,,,,,,,,,,725.3154,2,audio/Narrative5Situation5.wav,730.3274,,730.3275,745.7437,"[[49.3,333],[49.1,417],[49,500],[49,583],[49,667],[49,750],[49,833],[49,916],[49.5,999],[50,1083],[50.2,1166],[50.3,1249],[50.3,1333],[50.3,1416],[50.3,1499],[50.3,1583],[50.3,1666],[50.3,1749],[50.3,1833],[50.3,1916],[50.3,2000],[50.3,2084],[50.3,2167],[49.5,2250],[42.8,2333],[34.8,2418],[29.5,2500],[25.8,2584],[22.3,2667],[19,2750],[17,2833],[16,2916],[15.3,2999],[15.3,3083],[15.3,3166],[15.3,3250],[15.3,3333],[15.3,3416],[15.3,3499],[15.3,3583],[15.3,3666],[15.3,3750],[15.3,3833],[15.3,3916],[15.3,3999],[15.3,4083],[15.3,4166],[15.3,4250],[15.3,4333],[15.3,4416],[15.3,4500],[15.3,4583],[15.3,4666],[15.3,4749],[15.3,4833],[15.3,4916],[15.3,5000],[15.3,5083],[15.3,5166],[15.3,5250],[15.3,5333],[15.3,5416],[38.3,5500],[60,5583],[64.8,5666],[74,5749],[80.6,5834],[81.1,5916],[80.8,6001],[79.6,6083],[78.5,6168],[78.2,6250],[78.2,6333],[78.2,6417],[78.2,6499],[78.2,6583],[82.5,6666],[85.6,6749],[85.6,6832],[85.6,6916],[85.6,6999],[85.6,7082],[85.6,7165],[85.6,7249],[85.6,7332],[85.6,7416],[85.6,7499],[85.6,7582],[85.6,7665],[85.6,7749],[85.6,7832],[85.6,7916],[85.6,7999],[85.6,8082],[85.6,8165],[85.6,8249],[85.6,8332],[85.6,8415],[85.6,8499],[85.6,8582],[85.6,8666],[85.6,8749],[85.6,8832],[85.6,8916],[85.6,8999],[85.6,9082],[85.6,9165],[85.6,9249],[85.6,9333],[85.6,9415],[85.6,9499],[85.6,9582],[85.6,9665],[85.6,9749],[85.6,9832],[85.6,9915],[85.6,9999],[85.6,10082],[85.6,10165],[85.6,10249],[85.6,10332],[85.6,10415],[85.6,10499],[85.6,10582],[85.6,10665],[85.6,10749],[85.6,10832],[85.6,10916],[85.6,11000],[85.6,11082],[85.6,11166],[85.6,11250],[85.6,11332],[85.6,11416],[85.6,11499],[85.6,11582],[85.6,11666],[85.6,11749],[85.6,11832],[85.6,11916],[85.6,11999],[85.6,12082],[85.6,12166],[85.6,12248],[85.6,12332],[85.6,12416],[85.6,12499],[85.6,12582],[85.6,12665],[85.6,12749],[85.6,12832],[85.6,12915],[85.6,12999],[85.6,13082],[85.6,13165],[85.6,13249],[85.6,13332],[85.6,13415],[85.6,13499],[85.6,13582],[85.6,13665],[85.6,13749],[85.6,13832],[85.6,13915],[85.6,13998],[85.6,14082],[85.6,14166],[85.6,14249],[85.6,14332],[85.6,14415],[85.6,14498],[85.6,14582],[85.6,14665],[85.6,14748],[85.6,14832],[85.6,14916],[85.6,14999],[85.6,15082],[85.6,15165],[85.6,15249],[85.6,15332],[85.6,15415]]",1,0,745.744,749.4103,93.54166985,2.3859,"[{""rating"":91.14583333333333,""responseTime"":0.6259000000060269},{""rating"":93.02083651224773,""responseTime"":1.3875999999941087},{""rating"":93.54166984558105,""responseTime"":2.3859000000060178}]",space,3.1257,,749.4103,Half the time,50,749.4153,,,[],,0,5,5,5,1,audio/Narrative7Situation5.wav,audio/Narrative8Situation5.wav,audio/Narrative5Situation5.wav,audio/Narrative6Situation5.wav,5,2,5,2,,,,,,,,,,,,,,,,,,,,,,,,,,,,,,,,,,,,,,,
,,,,,,656397844d363e786bc5ed4b,2024-02-08_15h02.55.857,group3.1-3.2-social-tom,2023.2.2,Win32,59.52380952,65c5074098b851296ff0b7ed,65c5416d3d48c4665308acbb,,,,,,,,,,,,,,,,,,,,,,,,,,,,,749.4159,2,audio/Narrative5Situation6.wav,752.4273,,752.4273,758.1093,"[[66.8,88],[65.8,165],[65.5,248],[65.5,332],[65.5,415],[60.6,498],[56.4,588],[54.2,670],[52.4,754],[50.4,836],[49.6,922],[49.4,998],[49.4,1082],[49.4,1165],[49.4,1248],[49.4,1338],[49.4,1415],[49.4,1498],[49.4,1587],[49.4,1665],[49.4,1748],[49.4,1837],[49.4,1920],[49.4,1998],[49.4,2087],[49.4,2171],[49.4,2248],[49.4,2331],[49.4,2419],[49.4,2503],[49.4,2581],[49.4,2665],[49.4,2748],[49.4,2831],[49.4,2915],[49.4,2998],[49.4,3081],[49.4,3164],[49.4,3248],[49.4,3331],[49.4,3415],[49.4,3503],[49.4,3581],[49.4,3665],[49.4,3748],[49.4,3831],[49.4,3914],[49.4,3997],[49.4,4087],[49.4,4165],[49.3,4264],[49.3,4348],[49.3,4431],[35.9,4516],[5.5,4598]]",1,0,758.1095,762.0919,1.250000795,2.8272,"[{""rating"":1.2500007947285952,""responseTime"":2.8271999999881245}]",space,3.4349,,762.092,Half the time,50,762.0949,,,[],,0,6,6,6,1,audio/Narrative7Situation6.wav,audio/Narrative8Situation6.wav,audio/Narrative5Situation6.wav,audio/Narrative6Situation6.wav,3,2,3,2,,,,,,,,,,,,,,,,,,,,,,,,,,,,,,,,,,,,,,,
,,,,,,656397844d363e786bc5ed4b,2024-02-08_15h02.55.857,group3.1-3.2-social-tom,2023.2.2,Win32,59.52380952,65c5074098b851296ff0b7ed,65c5416d3d48c4665308acbb,,,,,,,,,,,,,,,,,,,,,,,,,,,,,762.0954,2,audio/Narrative5Situation7.wav,766.108,,766.1081,787.1557,"[[50.7,1167],[50.9,1249],[50.9,1332],[50.9,1416],[50.9,1499],[50.9,1582],[50.9,1666],[50.4,1749],[50.4,1832],[50.4,1915],[50.3,1999],[50.3,2082],[50.3,2165],[50.3,2249],[50.3,2332],[50.3,2416],[50.3,2499],[50.2,2582],[49.7,2666],[38.4,2749],[19,2832],[5.8,2915],[3.5,2999],[3.2,3082],[2.9,3166],[1.7,3249],[0.7,3332],[0.6,3416],[0.6,3499],[0.6,3582],[0.6,3666],[0.6,3749],[0.6,3832],[0.6,3915],[0.6,3999],[0.6,4082],[0.6,4165],[0.6,4249],[0.6,4332],[0.6,4416],[0.6,4499],[0.6,4582],[0.6,4666],[0.6,4749],[0.6,4832],[0.6,4915],[0.6,4999],[0.6,5082],[0.6,5166],[0.6,5249],[0.6,5332],[0.6,5415],[0.6,5499],[0.6,5582],[0.6,5665],[0.6,5749],[0.6,5832],[0.6,5915],[0.6,5999],[0.6,6082],[0.6,6165],[0.6,6249],[0.6,6332],[0.6,6415],[0.6,6498],[0.6,6582],[0.6,6665],[0.6,6748],[0.6,6832],[0.6,6915],[0.6,6998],[0.6,7082],[0.6,7165],[0.6,7249],[0.6,7332],[0.6,7415],[0.6,7498],[0.6,7582],[0.6,7665],[0.6,7748],[0.6,7832],[0.6,7915],[0.6,7999],[0.6,8082],[0.6,8165],[0.6,8248],[0.6,8332],[0.6,8415],[0.6,8498],[0.6,8582],[0.6,8665],[0.6,8748],[0.6,8832],[0.6,8915],[0.6,8998],[0.6,9082],[0.6,9165],[0.6,9248],[0.6,9332],[0.6,9415],[0.6,9498],[0.6,9581],[0.6,9665],[0.6,9748],[0.6,9832],[0.6,9915],[0.6,9998],[0.6,10082],[0.6,10165],[0.6,10248],[0.6,10331],[0.6,10415],[0.6,10498],[0.6,10581],[0.6,10665],[0.6,10748],[0.6,10831],[0.6,10915],[0.6,10998],[0.6,11081],[0.6,11164],[0.6,11248],[0.6,11331],[0.6,11415],[0.6,11498],[0.6,11582],[0.6,11665],[0.6,11748],[0.6,11831],[0.6,11915],[0.6,11998],[0.6,12081],[0.6,12165],[0.6,12248],[0.6,12331],[0.6,12415],[0.6,12498],[0.6,12581],[0.6,12664],[0.6,12748],[0.6,12831],[0.6,12914],[0.6,12998],[0.6,13081],[0.6,13165],[0.6,13248],[0.6,13331],[0.6,13414],[0.6,13498],[0.6,13581],[0.6,13664],[0.6,13748],[0.6,13831],[0.6,13914],[0.6,13998],[0.6,14081],[0.6,14164],[0.6,14247],[0.6,14331],[0.6,14414],[0.6,14498],[0.6,14581],[0.6,14666],[0.6,14748],[0.6,14831],[0.6,14915],[0.6,14998],[0.6,15081],[0.6,15164],[0.6,15248],[0.6,15331],[0.6,15415],[0.6,15497],[0.6,15581],[0.6,15665],[0.6,15748],[0.6,15831],[0.6,15914],[0.6,15997],[0.6,16081],[0.6,16165],[0.6,16247],[0.6,16331],[0.6,16414],[0.6,16497],[0.6,16581],[0.6,16664],[0.6,16748],[0.6,16831],[0.6,16914],[0.6,16998],[0.6,17081],[0.6,17165],[0.6,17248],[0.6,17331],[0.6,17414],[0.6,17498],[0.6,17581],[0.6,17664],[0.6,17748],[0.6,17831],[0.6,17914],[0.6,17997],[0.6,18081],[0.6,18164],[0.6,18247],[0.6,18331],[0.6,18414],[0.6,18497],[0.6,18581],[0.6,18664],[0.6,18748],[0.6,18831],[0.6,18914],[0.6,18998],[0.6,19081],[0.6,19164],[0.6,19247],[0.6,19331],[0.6,19414],[0.6,19497],[0.6,19580],[0.6,19664],[0.6,19747],[0.6,19831],[0.6,19914],[0.6,19997],[0.6,20081],[0.6,20164],[0.6,20247],[0.6,20330],[0.6,20414],[0.6,20497],[0.6,20581],[0.6,20664],[2.4,20748],[4,20830],[4.5,20914],[4.7,20997]]",1,0,787.1558,788.0391,3.020834923,0.6231,"[{""rating"":3.0208349227905273,""responseTime"":0.6230999999939968}]",space,0.3378,,788.0392,All the time,100,788.042,,,[],,0,7,7,7,1,audio/Narrative7Situation7.wav,audio/Narrative8Situation7.wav,audio/Narrative5Situation7.wav,audio/Narrative6Situation7.wav,5,3,4,5,,,,,,,,,,,,,,,,,,,,,,,,,,,,,,,,,,,,,,,
,,,,,,656397844d363e786bc5ed4b,2024-02-08_15h02.55.857,group3.1-3.2-social-tom,2023.2.2,Win32,59.52380952,65c5074098b851296ff0b7ed,65c5416d3d48c4665308acbb,,,,,,,,,,,,,,,,,,,,,,,,,,,,,788.0423,2,audio/Narrative5Situation8.wav,791.0555,,791.0555,799.8879,"[[43.6,416],[46,500],[47.2,583],[48.9,666],[50.4,750],[50.9,833],[51,916],[51,999],[50.2,1082],[50.1,1166],[49.9,1249],[49.9,1332],[49.8,1416],[49.8,1499],[49.8,1583],[49.1,1666],[14.4,1749],[32.3,6582],[73,6665],[77.9,6748],[79.4,6834],[79.4,6915],[79.4,6998],[79.4,7082],[79.4,7165],[79.4,7248],[79.4,7332],[79.4,7415],[79.4,7498],[79.4,7582],[79.4,7666],[79.4,7748],[79.4,7832],[79.4,7915],[79.4,7998],[79.4,8082],[79.4,8165],[79.4,8248],[79.4,8332],[79.4,8415],[79.4,8498],[79.4,8582],[79.4,8665],[79.4,8748],[79.4,8832]]",1,0,799.8881,802.4044,50.31250318,2.1728,"[{""rating"":50.31250317891439,""responseTime"":2.1728000000118755}]",space,1.9827,,802.4045,Not at all,0,802.4074,,,[],,0,8,8,8,1,audio/Narrative7Situation8.wav,audio/Narrative8Situation8.wav,audio/Narrative5Situation8.wav,audio/Narrative6Situation8.wav,2,3,3,5,,,,,,,,,,,,,,,,,,,,,,,,,,,,,,,,,,,,,,,
,,,,,,656397844d363e786bc5ed4b,2024-02-08_15h02.55.857,group3.1-3.2-social-tom,2023.2.2,Win32,59.52380952,65c5074098b851296ff0b7ed,65c5416d3d48c4665308acbb,,,,,,,,,,,,,,,,,,,,,,,,,,,,,802.4078,2,audio/Narrative5Situation9.wav,805.4206,,805.4206,844.967,"[[50.2,249],[50.2,333],[50.2,416],[50.2,499],[50.2,583],[50.2,666],[50.1,749],[50.1,833],[50.1,916],[50.1,999],[50.1,1083],[50.1,1166],[49.9,1250],[49.8,1333],[49.8,1416],[49.8,1499],[49.8,1583],[49.8,1666],[49.8,1749],[49.8,1833],[49.8,1916],[49.8,1999],[49.8,2082],[49.8,2166],[49.8,2250],[49.8,2333],[49.8,2416],[49.8,2499],[49.8,2582],[49.8,2666],[49.8,2749],[49.8,2833],[49.8,2916],[49.8,2999],[49.8,3082],[49.8,3166],[49.8,3249],[49.6,3333],[30.8,3416],[13,3499],[6,3582],[2,3666],[0.1,3750],[1.4,5583],[11,5666],[72.4,6165],[79.8,6249],[81.1,6333],[81.3,6415],[82,6498],[84.3,6582],[85.8,6665],[87.7,6750],[87.9,6832],[87.9,6915],[88.4,7001],[89.3,7082],[90.4,7165],[91.1,7249],[91.6,7332],[91.6,7416],[91.7,7499],[91.7,7582],[91.7,7665],[91.7,7749],[91.7,7832],[91.7,7916],[91.7,7999],[91.7,8082],[91.7,8166],[91.7,8249],[91.7,8332],[91.7,8415],[91.7,8498],[91.7,8582],[91.7,8666],[91.7,8749],[91.7,8832],[91.7,8915],[91.7,8999],[91.7,9082],[91.7,9165],[91.7,9248],[91.7,9332],[91.7,9415],[91.7,9498],[91.7,9582],[91.7,9665],[91.7,9748],[91.7,9832],[91.7,9915],[91.7,9998],[90.1,10082],[1.8,10748],[3.5,10832],[3.2,10915],[2.5,10998],[2.2,11081],[1.7,11165],[1.7,11249],[1.1,11332],[1.1,11415],[1.1,11499],[1.1,11582],[1.1,11665],[1.1,11749],[1.1,11832],[1.1,11915],[1.1,11999],[1.1,12082],[1.1,12165],[1.1,12248],[1.1,12332],[1.1,12415],[1.1,12498],[1.1,12581],[1.1,12665],[1.1,12749],[1.1,12832],[1.1,12915],[1.1,12998],[1.1,13081],[1.1,13165],[1.1,13248],[1.1,13331],[1.1,13415],[1.1,13498],[1.1,13582],[1.1,13665],[1.1,13748],[1.1,13832],[1.1,13915],[1.1,13998],[1.1,14081],[1.1,14165],[1.1,14248],[1.1,14331],[1.1,14415],[1.1,14498],[1.1,14581],[1.1,14665],[1.1,14748],[1.1,14831],[1.1,14914],[1.1,14998],[1.1,15081],[1.1,15165],[1.1,15248],[1.1,15331],[1.1,15415],[1.1,15498],[1.1,15581],[1.1,15665],[1.1,15748],[1.1,15831],[1.1,15915],[1.1,15998],[1.1,16081],[1.1,16164],[1.1,16248],[1.1,16331],[1.1,16414],[1.1,16498],[1.1,16581],[1.1,16664],[1.1,16748],[1.1,16832],[1.1,16914],[1.1,16998],[1.1,17081],[1.1,17164],[1.1,17248],[1.1,17331],[1.1,17414],[1.1,17498],[1.1,17581],[1.1,17664],[1.1,17748],[5.1,17833],[75,18164],[77.5,18248],[77.5,18332],[78.3,18415],[81.3,18498],[81.9,18581],[81.9,18664],[85.2,18749],[85.6,18831],[86.7,18914],[87.5,18997],[87.9,19080],[88.2,19164],[88.2,19247],[88.2,19331],[88.2,19414],[88.2,19497],[88.2,19581],[88.2,19664],[88.2,19748],[88.2,19831],[88.2,19914],[88.2,19997],[88.2,20081],[88.2,20164],[88.2,20247],[88.2,20331],[88.2,20414],[88.2,20497],[88.2,20581],[88.2,20664],[88.2,20747],[88.2,20831],[88.2,20914],[88.2,20998],[88.2,21080],[88.2,21164],[88.2,21247],[88.2,21331],[88.2,21414],[88.2,21497],[88.2,21580],[88.2,21664],[88.2,21747],[88.2,21831],[88.2,21914],[88.2,21997],[88.2,22081],[88.2,22164],[88.2,22247],[88.2,22330],[88.2,22414],[88.2,22497],[88.2,22580],[88.2,22663],[88.2,22747],[88.2,22830],[88.2,22914],[88.2,22997],[88.2,23080],[88.2,23164],[88.2,23247],[88.2,23330],[88.2,23414],[89.9,23500],[92,23581],[92.9,23664],[93.2,23747],[93.6,23831],[95,23914],[95.6,23997],[96.4,24081],[96.4,24163],[96.4,24247],[96.4,24331],[96.4,24413],[96.4,24497],[96.4,24580],[96.4,24663],[96.4,24747],[96.4,24830],[96.4,24913],[96.4,24997],[96.4,25080],[96.4,25163],[96.4,25247],[96.4,25330],[96.4,25413],[96.4,25497],[96.4,25580],[96.4,25663],[96.4,25747],[96.4,25830],[96.4,25913],[96.4,25997],[96.4,26080],[96.4,26163],[96.4,26247],[96.4,26330],[96.4,26413],[96.4,26497],[96.4,26580],[96.4,26663],[96.4,26747],[96.4,26830],[96.4,26913],[96.4,26997],[96.4,27080],[96.4,27163],[96.4,27247],[96.4,27331],[96.4,27413],[96.4,27497],[96.4,27580],[96.4,27663],[96.4,27747],[96.4,27830],[96.4,27913],[96.4,27997],[96.4,28080],[96.4,28163],[96.4,28246],[96.4,28330],[96.4,28413],[96.4,28497],[96.4,28580],[96.4,28663],[96.4,28747],[96.4,28830],[96.4,28913],[96.4,28997],[96.4,29080],[96.4,29163],[96.4,29247],[96.4,29330],[96.4,29413],[96.4,29497],[96.4,29580],[96.4,29663],[96.4,29746],[96.4,29830],[96.4,29913],[96.4,29997],[96.4,30080],[96.4,30163],[96.4,30247],[96.4,30330],[96.4,30413],[96.4,30496],[96.4,30580],[96.4,30663],[96.4,30746],[96.4,30830],[96.4,30913],[96.4,30996],[96.4,31080],[96.4,31163],[96.4,31246],[96.4,31330],[96.4,31413],[96.4,31496],[96.4,31580],[84.6,31664],[26,32163],[20.5,32246],[15.1,32330],[11.6,32413],[7.5,32496],[5.9,32580],[5.8,32663],[5.8,32746],[5.8,32829],[5.8,32913],[5.8,32996],[5.8,33080],[5.8,33163],[5.8,33246],[5.8,33329],[5.8,33413],[5.8,33496],[5.8,33579],[5.8,33663],[5.8,33746],[5.8,33829],[5.8,33913],[5.8,33996],[5.8,34079],[5.8,34163],[5.8,34246],[5.8,34329],[5.8,34413],[5.8,34496],[5.8,34580],[5.8,34663],[5.8,34746],[5.8,34830],[5.8,34913],[5.8,34996],[5.8,35079],[5.8,35163],[5.8,35246],[5.8,35329],[5.8,35413],[5.8,35496],[5.8,35579],[5.8,35663],[5.8,35746],[5.8,35829],[5.8,35913],[5.8,35996],[5.8,36079],[5.8,36162],[5.8,36246],[5.8,36329],[5.8,36412],[5.8,36496],[5.8,36579],[5.8,36662],[5.8,36746],[5.8,36829],[5.8,36912],[5.8,36996],[5.8,37079],[5.8,37162],[5.8,37246],[5.8,37329],[5.8,37412],[5.8,37496],[5.8,37579],[5.8,37662],[5.8,37746],[5.8,37829],[5.8,37912],[5.8,37996],[5.8,38079],[5.8,38162],[5.8,38246],[5.8,38329],[5.8,38412],[5.8,38496],[5.8,38579],[5.8,38662],[5.8,38746],[5.8,38829],[5.8,38912],[5.8,38996],[5.8,39079],[5.8,39162],[5.8,39246],[5.8,39329],[5.8,39412],[5.8,39496]]",1,0,844.9673,847.4164,81.97917144,1.1852,"[{""rating"":81.97917143503825,""responseTime"":1.1852000000178577}]",space,1.9092,,847.4165,Half the time,50,847.4192,,,[],,0,9,9,9,1,audio/Narrative7Situation9.wav,audio/Narrative8Situation9.wav,audio/Narrative5Situation9.wav,audio/Narrative6Situation9.wav,2,3,3,4,,,,,,,,,,,,,,,,,,,,,,,,,,,,,,,,,,,,,,,
,,,,,,656397844d363e786bc5ed4b,2024-02-08_15h02.55.857,group3.1-3.2-social-tom,2023.2.2,Win32,59.52380952,65c5074098b851296ff0b7ed,65c5416d3d48c4665308acbb,,,,,,,,,,,,,,,,,,,,,,,,,,,,,847.4195,2,audio/Narrative6Situation1.wav,849.4334,,849.4334,876.0305,"[[56.4,667],[53.5,917],[51.5,999],[49.8,1082],[49.3,1165],[49.3,1249],[49.3,1332],[49.3,1415],[49.3,1499],[49.3,1583],[49.3,1665],[49.3,1749],[49.3,1832],[49.3,1915],[49.3,1999],[49.3,2082],[49.3,2165],[49.3,2249],[49.3,2332],[49.3,2415],[49.3,2499],[49.3,2582],[49.3,2665],[49.3,2749],[49.3,2832],[49.3,2916],[49.3,2998],[49.3,3082],[49.3,3165],[43.8,3249],[31.1,3334],[24.1,3415],[18.3,3499],[13,3582],[10,3666],[8.6,3749],[8.2,3832],[8.1,3916],[8.1,3999],[8.1,4082],[8.1,4165],[8.1,4248],[8.1,4332],[8.1,4415],[8.1,4499],[8.1,4582],[8.1,4665],[8.1,4749],[8.1,4832],[8.1,4915],[8.1,4998],[8.1,5081],[8.1,5165],[8.1,5248],[8.1,5332],[8.1,5415],[8.1,5499],[8.1,5582],[8.1,5665],[8.1,5749],[8.1,5832],[8.1,5915],[8.1,5998],[8.1,6082],[8.1,6165],[8.1,6248],[8.1,6332],[8.1,6415],[8.1,6499],[8.1,6582],[8.1,6665],[8.1,6748],[8.1,6831],[8.1,6915],[8.1,6998],[8.1,7082],[8.1,7165],[8.1,7249],[8.1,7331],[8.1,7415],[8.1,7499],[8.1,7582],[8.1,7665],[8.1,7749],[8.1,7832],[8.1,7915],[8.1,7998],[8.1,8081],[8.1,8165],[8.1,8248],[8.1,8331],[8.1,8415],[8.1,8498],[8.1,8581],[8.1,8665],[8.1,8748],[8.1,8832],[8.1,8915],[8.1,8998],[8.1,9081],[8.1,9165],[8.1,9248],[8.1,9331],[8.1,9415],[8.1,9498],[8.1,9581],[8.1,9665],[8.1,9748],[8.1,9831],[8.1,9915],[8.1,9998],[8.1,10081],[8.1,10165],[8.1,10248],[8.1,10331],[8.1,10415],[8.1,10498],[8.1,10581],[8.1,10665],[8.1,10748],[8.1,10831],[8.1,10914],[8.1,10998],[8.1,11081],[8.1,11164],[8.1,11248],[8.1,11331],[8.1,11415],[8.1,11498],[8.1,11581],[8.1,11664],[8.1,11748],[8.1,11831],[8.1,11914],[8.1,11998],[8.1,12081],[8.1,12164],[8.1,12248],[8.1,12331],[8.1,12414],[8.1,12498],[8.1,12581],[8.1,12664],[8.1,12748],[8.1,12831],[8.1,12914],[8.1,12998],[8.1,13081],[8.1,13164],[8.1,13248],[8.1,13331],[8.1,13414],[8.1,13498],[8.1,13581],[8.1,13664],[8.1,13748],[8.1,13831],[8.1,13915],[8.1,13998],[8.1,14081],[8.1,14164],[8.1,14248],[8.1,14331],[8.1,14414],[8.1,14497],[8.1,14581],[8.1,14664],[8.1,14748],[8.1,14831],[12.6,14914],[19.8,14998],[20.8,15081],[21.3,15165],[34.6,15249],[48.5,15330],[56.5,15416],[60.2,15497],[60.6,15581],[65.6,15830],[65.6,15914],[65.6,15997],[65.6,16080],[65.6,16164],[65.6,16247],[65.6,16330],[65.6,16414],[65.6,16498],[65.6,16581],[65.6,16664],[65.6,16747],[65.6,16830],[65.6,16914],[65.6,16997],[65.6,17080],[65.6,17164],[44.5,17247],[30.7,17331],[21.4,17415],[16.4,17497],[12.4,17581],[9.6,17664],[9.1,17747],[9.1,17831],[9.1,17914],[9.1,17997],[9.1,18080],[9.1,18164],[9.1,18247],[9.1,18330],[9.1,18414],[9.1,18497],[9.1,18580],[9.1,18664],[9.1,18747],[9.1,18830],[9.1,18914],[9.1,18997],[9.1,19081],[9.1,19164],[9.1,19247],[9.1,19331],[9.1,19414],[9.1,19498],[9.1,19580],[9.1,19664],[9.1,19747],[9.1,19830],[9.1,19914],[13.4,19997],[26,20081],[41.1,20164],[47.4,20247],[49.4,20332],[57.7,20414],[66.4,20498],[69.5,20581],[72.9,20664],[75.1,20747],[75.5,20830],[75.5,20914],[75.5,20997],[75.5,21081],[75.5,21164],[75.5,21246],[75.5,21330],[75.5,21414],[75.5,21497],[75.5,21580],[75.5,21663],[75.5,21747],[75.5,21830],[75.5,21913],[75.5,21997],[75.5,22081],[75.5,22163],[75.5,22247],[75.5,22330],[75.5,22413],[75.5,22497],[75.5,22580],[75.5,22664],[75.5,22747],[75.5,22830],[75.5,22913],[75.5,22997],[75.5,23080],[75.5,23163],[75.5,23247],[75.5,23330],[75.5,23413],[75.5,23497],[75.5,23580],[75.5,23663],[75.5,23746],[75.5,23830],[75.5,23913],[75.5,23997],[75.5,24080],[75.5,24164],[75.5,24247],[75.5,24330],[75.5,24413],[75.5,24497],[75.5,24580],[75.5,24663],[75.5,24746],[75.5,24830],[75.5,24913],[75.5,24996],[75.5,25080],[75.5,25163],[75.5,25246],[75.5,25330],[75.5,25413],[75.5,25496],[75.5,25580],[75.5,25663],[75.5,25746],[75.5,25830],[75.5,25913],[75.5,25996],[75.5,26080],[75.5,26163],[75.5,26246],[75.5,26330],[75.5,26413],[75.5,26497],[75.5,26580]]",1,0,876.0307,878.6134,49.89583492,2.2799,"[{""rating"":49.89583492279053,""responseTime"":2.2799000000059095}]",space,2.0553,,878.6136,Half the time,50,878.6159,,,[],,0,10,10,10,1,audio/Narrative8Situation1.wav,audio/Narrative7Situation1.wav,audio/Narrative6Situation1.wav,audio/Narrative5Situation1.wav,5,2,2,5,,,,,,,,,,,,,,,,,,,,,,,,,,,,,,,,,,,,,,,
,,,,,,656397844d363e786bc5ed4b,2024-02-08_15h02.55.857,group3.1-3.2-social-tom,2023.2.2,Win32,59.52380952,65c5074098b851296ff0b7ed,65c5416d3d48c4665308acbb,,,,,,,,,,,,,,,,,,,,,,,,,,,,,878.6163,2,audio/Narrative6Situation2.wav,881.6296,,881.6297,910.127,"[[50,834],[50,917],[50,999],[50,1083],[50,1166],[50,1249],[50,1333],[50,1417],[50,1499],[50,1583],[50,1666],[50,1749],[50,1833],[50,1916],[50,1999],[50,2082],[50,2166],[50,2249],[50,2332],[50,2416],[50,2500],[50,2582],[50,2666],[50,2749],[50,2832],[50,2916],[50,2999],[50,3083],[50,3166],[50,3249],[50,3332],[50,3416],[50,3499],[50,3582],[50,3666],[50,3749],[50,3832],[50,3915],[50,3999],[50,4082],[50,4166],[50,4249],[50,4332],[50,4416],[50,4499],[50,4582],[50,4666],[50,4749],[47.4,4839],[33.8,4918],[22.2,4999],[14.6,5082],[10.3,5166],[7.1,5249],[6.4,5332],[6.4,5415],[6.4,5499],[6.4,5582],[6.4,5665],[6.4,5749],[6.4,5832],[6.4,5916],[2.8,5999],[1.4,6083],[1.4,6166],[1.4,6249],[1.4,6333],[1.4,6416],[1.4,6499],[1.4,6583],[1.4,6666],[1.4,6749],[1.4,6832],[1.4,6915],[1.4,6999],[1.4,7082],[1.4,7165],[1.4,7249],[1.4,7332],[1.4,7416],[1.4,7499],[1.4,7582],[1.4,7665],[1.4,7749],[1.4,7832],[1.4,7915],[1.4,7999],[1.4,8082],[1.4,8166],[1.4,8249],[1.4,8332],[1.4,8415],[1.4,8499],[1.4,8582],[1.4,8665],[1.4,8749],[1.4,8832],[1.4,8915],[1.4,8999],[1.4,9082],[1.4,9165],[1.4,9248],[1.4,9332],[1.4,9415],[1.4,9499],[1.4,9582],[1.4,9665],[1.4,9749],[1.4,9832],[1.4,9915],[1.4,9999],[1.6,10082],[1.6,10165],[1.6,10249],[1.6,10332],[1.6,10415],[1.6,10499],[1.6,10582],[1.6,10665],[1.6,10749],[1.6,10832],[1.6,10915],[1.6,10998],[1.6,11082],[1.6,11165],[1.6,11248],[1.6,11332],[1.6,11415],[1.6,11498],[1.6,11582],[1.6,11665],[1.6,11748],[1.6,11832],[1.6,11915],[1.6,11999],[1.6,12082],[1.6,12165],[1.6,12249],[1.6,12332],[1.6,12415],[1.6,12498],[1.6,12582],[1.6,12665],[1.6,12749],[1.6,12832],[1.6,12915],[1.6,12998],[1.6,13082],[1.6,13165],[1.6,13248],[1.6,13332],[1.6,13415],[1.6,13498],[1.6,13581],[1.6,13665],[1.6,13748],[1.6,13831],[1.5,13915],[1.5,13998],[1.5,14081],[1.5,14165],[1.5,14249],[1.5,14332],[1.5,14415],[1.4,14498],[1.4,14581],[1.4,14665],[1.4,14748],[1.4,14832],[1.4,14915],[1.4,14999],[1.4,15082],[1.4,15165],[1.4,15248],[1.4,15331],[1.4,15415],[1.4,15498],[1.4,15581],[1.4,15665],[1.4,15748],[1.4,15832],[1.4,15915],[1.4,15998],[1.4,16081],[1.4,16165],[1.4,16248],[1.4,16332],[1.4,16414],[1.4,16499],[1.4,16581],[1.4,16665],[1.4,16748],[1.4,16831],[1.4,16915],[1.4,16998],[1.4,17081],[1.4,17164],[1.4,17248],[1.4,17331],[1.3,17414],[1.3,17498],[1.3,17581],[1.3,17664],[1.3,17748],[1.3,17831],[1.3,17914],[1.3,17998],[1.3,18081],[1.3,18164],[1.3,18248],[1.3,18331],[1.3,18414],[1.3,18498],[1.3,18581],[1.3,18664],[1.8,18747],[10.7,18831],[25.1,18914],[35.2,18998],[45.2,19081],[58.8,19164],[68.4,19248],[72.8,19333],[74.7,19414],[75.7,19498],[77.8,19581],[80.6,19664],[82.2,19748],[82.2,19831],[82.2,19914],[82.2,19997],[82.2,20081],[82.2,20164],[82.2,20247],[82.2,20331],[82.2,20414],[82.2,20497],[82.2,20581],[82.2,20664],[82.2,20747],[82.2,20831],[82.2,20914],[82.2,20997],[82.2,21081],[82.2,21164],[82.2,21247],[82.2,21331],[82.2,21414],[82.2,21497],[82.2,21581],[82.2,21664],[82.2,21747],[82.2,21831],[82.2,21914],[82.2,21997],[82.2,22081],[82.2,22164],[82.2,22247],[82.2,22331],[82.2,22413],[82.2,22497],[82.2,22580],[82.2,22664],[82.2,22747],[82.2,22830],[82.2,22914],[82.2,22997],[82.2,23081],[82.2,23164],[82.2,23247],[82.2,23330],[82.2,23414],[82.2,23497],[82.2,23580],[82.2,23664],[82.2,23747],[82.2,23830],[82.2,23914],[82.2,23997],[82.2,24081],[82.2,24164],[82.2,24247],[82.2,24330],[82.2,24414],[82.2,24497],[82.2,24581],[82.2,24664],[82.2,24747],[82.2,24830],[82.2,24914],[82.2,24997],[82.2,25080],[82.2,25164],[82.2,25247],[82.2,25330],[69.5,25415],[54.3,25497],[40.5,25584],[29.9,25664],[23.5,25747],[19.7,25830],[17.3,25915],[16.3,25997],[16.3,26080],[15.2,26164],[14.2,26247],[13.1,26331],[12.1,26414],[11,26497],[10.3,26581],[10,26664],[10,26747],[10,26830],[10,26914],[10,26997],[10,27080],[10,27164],[10,27247],[10,27330],[10,27413],[10,27497],[10,27580],[10,27663],[10,27747],[10,27830],[10,27914],[10,27997],[10,28080],[10,28163],[10,28246],[10,28330],[10,28413],[10,28497]]",1,0,910.1273,913.6598,33.33333333,1.2963,"[{""rating"":28.645833333333336,""responseTime"":0.839899999976069},{""rating"":33.333333333333336,""responseTime"":1.296299999982125}]",space,3.0002,,913.6598,Half the time,50,913.661,,,[],,0,11,11,11,1,audio/Narrative8Situation2.wav,audio/Narrative7Situation2.wav,audio/Narrative6Situation2.wav,audio/Narrative5Situation2.wav,3,3,3,3,,,,,,,,,,,,,,,,,,,,,,,,,,,,,,,,,,,,,,,
,,,,,,656397844d363e786bc5ed4b,2024-02-08_15h02.55.857,group3.1-3.2-social-tom,2023.2.2,Win32,59.52380952,65c5074098b851296ff0b7ed,65c5416d3d48c4665308acbb,,,,,,,,,,,,,,,,,,,,,,,,,,,,,913.6612,2,audio/Narrative6Situation3.wav,918.6764,,918.6764,931.2912,"[[49.4,332],[49.3,417],[49.1,500],[49.1,582],[49.3,667],[49.3,751],[49.3,834],[49.3,917],[49.3,999],[49.3,1082],[49.3,1165],[49.3,1249],[49.3,1333],[49.3,1416],[49.3,1499],[49.3,1582],[49.3,1666],[49.3,1749],[49.3,1832],[49.3,1915],[49.3,1999],[49.3,2082],[49.3,2166],[49.3,2249],[49.3,2332],[49.3,2416],[49.3,2499],[49.3,2582],[49.3,2666],[49.3,2749],[49.3,2832],[49.3,2915],[49.3,2999],[49.3,3082],[49.3,3165],[49.3,3249],[49.3,3332],[49.3,3415],[49.3,3499],[49.3,3582],[49.3,3666],[49.3,3749],[49.3,3832],[49.3,3916],[45.1,3998],[28.1,4082],[17,4168],[12.3,4249],[7.1,4333],[1.8,4415],[72.2,5416],[81.8,5498],[81.9,5582],[81.9,5666],[81.9,5749],[81.9,5832],[82.4,5916],[82.4,5999],[82.4,6082],[82.4,6166],[72.6,6249],[36.6,6332],[22.6,6415],[19.5,6499],[15.7,6582],[14.7,6665],[14.3,6748],[13.6,6832],[13.6,6915],[13.6,6998],[13.6,7082],[13.6,7165],[13.6,7248],[13.6,7332],[13.6,7415],[13.6,7498],[13.6,7582],[13.6,7665],[13.6,7749],[13.6,7832],[13.6,7916],[13.6,7998],[13.6,8082],[13.6,8165],[13.6,8248],[13.6,8332],[13.6,8415],[13.6,8498],[13.6,8582],[13.6,8664],[13.6,8748],[13.6,8832],[13.5,8915],[13.5,8998],[13.5,9081],[13.5,9165],[13.5,9248],[13.5,9332],[13.5,9415],[13.5,9498],[13.5,9582],[13.5,9665],[13.5,9748],[13.5,9831],[13.5,9915],[13.5,9998],[13.5,10081],[13.5,10165],[13.5,10248],[13.5,10331],[13.5,10415],[13.5,10498],[13.5,10581],[13.5,10665],[13.5,10748],[13.5,10831],[13.5,10915],[13.5,10998],[13.5,11081],[13.5,11165],[14.1,11250],[16.8,11331],[85.5,11581],[85.9,11666],[85.9,11749],[85.6,11832],[84.8,11915],[84.8,11998],[84.8,12081],[84.8,12164],[84.8,12248],[84.8,12331],[84.8,12414],[84.8,12498],[84.8,12581]]",1,0,931.2915,947.7399,65.00000159,15.2904,"[{""rating"":65.00000158945718,""responseTime"":1.5901999999881582},{""rating"":65.00000158945718,""responseTime"":15.290400000006002}]",space,15.9213,,947.74,Not at all,0,947.7433,,,[],,0,12,12,12,1,audio/Narrative8Situation3.wav,audio/Narrative7Situation3.wav,audio/Narrative6Situation3.wav,audio/Narrative5Situation3.wav,4,8,5,3,,,,,,,,,,,,,,,,,,,,,,,,,,,,,,,,,,,,,,,
