exp_question,consent.started,consent.stopped,consentResponse.keys,consentResponse.rt,consentResponse.duration,participantID,date,expName,psychopyVersion,OS,frameRate,STUDY_ID,SESSION_ID,opening1.started,opening1.stopped,keyEndingOpening1.keys,keyEndingOpening1.rt,keyEndingOpening1.duration,volumeAdjust.started,volumeAdjust.stopped,endingAdjust.keys,endingAdjust.rt,endingAdjust.duration,opening2.started,opening2.stopped,keyEndingOpening.keys,keyEndingOpening.rt,keyEndingOpening.duration,mouse.x,mouse.y,mouse.leftButton,mouse.midButton,mouse.rightButton,mouse.time,instructionLoop.thisRepN,instructionLoop.thisTrialN,instructionLoop.thisN,instructionLoop.thisIndex,instructionLoop.ran,readyForAudio.started,readyForAudio.stopped,fixation.started,run,audio_played,fixation.stopped,endPractice.keys,audioPre.started,audioPre.stopped,continuousResponses_audio,continuousSlider.response,continuousSlider.rt,intRating.started,intRating.stopped,intQuestionSlider.response,intQuestionSlider.rt,intQuestionSlider.history,confirmResponse.keys,confirmResponse.rt,confirmResponse.duration,catchQuestion.started,catch_label,catch_value,catchQuestion.stopped,catchQuestionSlider.response,catchQuestionSlider.rt,catchQuestionSlider.history,confirmResponse_2.keys,audioRunLoop.thisRepN,audioRunLoop.thisTrialN,audioRunLoop.thisN,audioRunLoop.thisIndex,audioRunLoop.ran,conditions1_1,conditions2_1,conditions1_2,conditions2_2,dur1_1,dur2_1,dur1_2,dur2_2,endPractice.rt,endPractice.duration,confirmResponse_2.rt,confirmResponse_2.duration,runIntervalBreak.started,runIntervalBreak.stopped,endingBreakKey.keys,endingBreakKey.rt,endingBreakKey.duration,connection.started,connection.stopped,connectionEnding.keys,connectionEnding.rt,connectionEnding.duration,readyForText.started,readyForText.stopped,textPre.started,run_dup,textPre.stopped,continuousResponses_text,textRunLoop.thisRepN,textRunLoop.thisTrialN,textRunLoop.thisN,textRunLoop.thisIndex,textRunLoop.ran,text1_1,text1_2,text2_1,text2_2,runBreakText.started,runBreakText.stopped,endingBreakKey_2.keys,endingBreakKey_2.rt,endingBreakKey_2.duration,ending.started,ending.stopped,endingEnding.keys,endingEnding.rt,endingEnding.duration
social,0.0003,12.7829,y,12.4564,,656607db0fc2ad7c7b0948fa,2024-05-13_11h53.29.159,group3.1-3.2-social-tom,2023.2.2,Win32,60.60606061,65c5074098b851296ff0b7ed,6642376526b647ce83ce9cd7,,,,,,,,,,,,,,,,,,,,,,,,,,,,,,,,,,,,,,,,,,,,,,,,,,,,,,,,,,,,,,,,,,,,,,,,,,,,,,,,,,,,,,,,,,,,,,,,,,,,,,,,,,
,,,,,,656607db0fc2ad7c7b0948fa,2024-05-13_11h53.29.159,group3.1-3.2-social-tom,2023.2.2,Win32,60.60606061,65c5074098b851296ff0b7ed,6642376526b647ce83ce9cd7,12.783,21.3247,space,8.5025,,,,,,,,,,,,,,,,,,,,,,,,,,,,,,,,,,,,,,,,,,,,,,,,,,,,,,,,,,,,,,,,,,,,,,,,,,,,,,,,,,,,,,,,,,,,,,,,,,,,,,
,,,,,,656607db0fc2ad7c7b0948fa,2024-05-13_11h53.29.159,group3.1-3.2-social-tom,2023.2.2,Win32,60.60606061,65c5074098b851296ff0b7ed,6642376526b647ce83ce9cd7,,,,,,21.3248,34.5046,space,12.8384,,,,,,,,,,,,,,,,,,,,,,,,,,,,,,,,,,,,,,,,,,,,,,,,,,,,,,,,,,,,,,,,,,,,,,,,,,,,,,,,,,,,,,,,,,,,,,,,,
,,,,,,656607db0fc2ad7c7b0948fa,2024-05-13_11h53.29.159,group3.1-3.2-social-tom,2023.2.2,Win32,60.60606061,65c5074098b851296ff0b7ed,6642376526b647ce83ce9cd7,,,,,,,,,,,34.5071,48.5023,space,13.9672,,[],[],[],[],[],[],0,0,0,0,1,,,,,,,,,,,,,,,,,,,,,,,,,,,,,,,,,,,,,,,,,,,,,,,,,,,,,,,,,,,,,,,,,,,,,,,,,,,,,,,,
,,,,,,656607db0fc2ad7c7b0948fa,2024-05-13_11h53.29.159,group3.1-3.2-social-tom,2023.2.2,Win32,60.60606061,65c5074098b851296ff0b7ed,6642376526b647ce83ce9cd7,,,,,,,,,,,48.5076,72.459,space,23.8876,,[],[],[],[],[],[],1,0,1,0,1,,,,,,,,,,,,,,,,,,,,,,,,,,,,,,,,,,,,,,,,,,,,,,,,,,,,,,,,,,,,,,,,,,,,,,,,,,,,,,,,
,,,,,,656607db0fc2ad7c7b0948fa,2024-05-13_11h53.29.159,group3.1-3.2-social-tom,2023.2.2,Win32,60.60606061,65c5074098b851296ff0b7ed,6642376526b647ce83ce9cd7,,,,,,,,,,,72.4638,97.3172,space,24.8327,,[],[],[],[],[],[],2,0,2,0,1,,,,,,,,,,,,,,,,,,,,,,,,,,,,,,,,,,,,,,,,,,,,,,,,,,,,,,,,,,,,,,,,,,,,,,,,,,,,,,,,
,,,,,,656607db0fc2ad7c7b0948fa,2024-05-13_11h53.29.159,group3.1-3.2-social-tom,2023.2.2,Win32,60.60606061,65c5074098b851296ff0b7ed,6642376526b647ce83ce9cd7,,,,,,,,,,,97.3221,147.9677,space,50.635,,[],[],[],[],[],[],3,0,3,0,1,,,,,,,,,,,,,,,,,,,,,,,,,,,,,,,,,,,,,,,,,,,,,,,,,,,,,,,,,,,,,,,,,,,,,,,,,,,,,,,,
,,,,,,656607db0fc2ad7c7b0948fa,2024-05-13_11h53.29.159,group3.1-3.2-social-tom,2023.2.2,Win32,60.60606061,65c5074098b851296ff0b7ed,6642376526b647ce83ce9cd7,,,,,,,,,,,147.9729,162.1657,space,14.1773,,[],[],[],[],[],[],4,0,4,0,1,,,,,,,,,,,,,,,,,,,,,,,,,,,,,,,,,,,,,,,,,,,,,,,,,,,,,,,,,,,,,,,,,,,,,,,,,,,,,,,,
,,,,,,656607db0fc2ad7c7b0948fa,2024-05-13_11h53.29.159,group3.1-3.2-social-tom,2023.2.2,Win32,60.60606061,65c5074098b851296ff0b7ed,6642376526b647ce83ce9cd7,,,,,,,,,,,,,,,,,,,,,,,,,,,162.1715,164.7514,164.7618,1,audio/Narrative13Situation2.wav,166.7703,,166.7705,196.5334,"[[50.4,5004],[49.8,5087],[49.1,5171],[48.7,5254],[47.8,5337],[45,5421],[39.5,5504],[34.1,5588],[27.9,5671],[23.5,5754],[18.6,5838],[15.4,5921],[15.3,6005],[15.3,6088],[15.3,6172],[14.3,6255],[13.3,6339],[12.7,6422],[12.3,6505],[11.9,6589],[11.7,6672],[11.7,6755],[11.7,6839],[11.7,6922],[11.7,7006],[11.7,7089],[11.7,7173],[11.7,7256],[11.7,7340],[11.7,7423],[11.7,7506],[11.7,7590],[11.7,7673],[11.8,7756],[13.9,7840],[14.8,7923],[19.3,8007],[25.7,8090],[30.3,8174],[33.4,8257],[35.9,8340],[39.6,8424],[41.7,8507],[45,8591],[49.7,8674],[56.9,8757],[63.3,8841],[69.3,8924],[75.5,9008],[77.8,9091],[81.3,9175],[83.4,9258],[83.9,9341],[85,9425],[85.6,9508],[86.3,9592],[87.3,9675],[87.6,9758],[88.6,9842],[88.6,9925],[88.6,10009],[88.6,10092],[88.6,10175],[88.6,10259],[88.6,10342],[89.1,10426],[89.1,10510],[89.1,10593],[89.1,10676],[89.1,10759],[89.1,10843],[89.1,10927],[89.2,11010],[90,11093],[91.3,11176],[92,11260],[92.5,11343],[92.7,11427],[92.7,11510],[92.7,11594],[92.7,11677],[92.7,11760],[92.7,11844],[92.7,11927],[92.7,12011],[92.7,12095],[92.7,12178],[92.7,12261],[92.7,12345],[92.7,12428],[92.7,12511],[92.7,12595],[92.7,12678],[92.7,12761],[92.7,12845],[92.7,12928],[92.7,13012],[92.7,13095],[92.7,13178],[92.7,13262],[92.7,13345],[92.7,13429],[93.5,13512],[94.5,13596],[96.6,13679],[98.4,13763],[99,13846],[99.8,13929],[100,14013],[100,14096],[100,14180],[100,14263],[100,14346],[100,14430],[100,14514],[100,14597],[100,14680],[100,14764],[100,14847],[100,14930],[100,15014],[100,15097],[100,15180],[100,15264],[100,15347],[100,15431],[100,15514],[100,15598],[100,15681],[100,15764],[100,15848],[98.3,15931],[98.2,16015],[98.2,16098],[98.2,16182],[98.2,16265],[98.2,16348],[98.2,16432],[98.2,16515],[98.2,16599],[98.2,16682],[98.2,16765],[98.2,16849],[97.5,16932],[94.8,17016],[93.2,17099],[92.8,17183],[92.7,17266],[92.3,17349],[91.8,17433],[91.2,17516],[90.9,17600],[90.2,17683],[89.2,17766],[88.6,17850],[88.6,17934],[88.6,18016],[88.6,18100],[88.5,18183],[88.5,18267],[88.5,18351],[88.5,18434],[88.5,18517],[88.5,18601],[88.5,18684],[88.5,18767],[88.5,18851],[87.9,18934],[84.2,19018],[82,19101],[80.1,19185],[77.4,19268],[74.5,19352],[72.6,19435],[70.2,19518],[68,19602],[66.3,19685],[64,19768],[62.3,19852],[60.4,19935],[56.8,20019],[50.7,20102],[44,20186],[37.8,20269],[33.4,20352],[30.9,20436],[28.7,20519],[27.5,20603],[25.1,20686],[21.8,20769],[19.8,20853],[18.4,20936],[17.5,21020],[15.2,21103],[12.5,21187],[11.3,21270],[11.2,21354],[10.9,21437],[10.3,21520],[9.2,21604],[8,21687],[7.7,21770],[7,21854],[5.9,21937],[4.5,22021],[2.7,22104],[1.3,22188]]",1,0,196.5336,211.4983,27.65625,13.0686,"[{""rating"":27.65625,""responseTime"":13.068599999994035}]",space,14.4151,,211.4984,Not at all,0,211.5006,,,[],,0,0,0,0,1,audio/Narrative13Situation2.wav,audio/Narrative13Situation2.wav,audio/Narrative13Situation2.wav,audio/Narrative13Situation2.wav,2,2,2,2,,,,,,,,,,,,,,,,,,,,,,,,,,,,,,,,,,,,,,,
,,,,,,656607db0fc2ad7c7b0948fa,2024-05-13_11h53.29.159,group3.1-3.2-social-tom,2023.2.2,Win32,60.60606061,65c5074098b851296ff0b7ed,6642376526b647ce83ce9cd7,,,,,,,,,,,,,,,,,,,,,,,,,,,,,211.5008,1,audio/Narrative7Situation1.wav,214.067,space,214.067,269.9394,"[[999,0],[999,83],[999,166],[999,250],[999,333],[999,417],[999,500],[999,583],[999,667],[999,750],[999,834],[999,917],[999,1001],[999,1084],[999,1167],[999,1251],[999,1334],[999,1418],[999,1501],[999,1584],[999,1668],[999,1751],[999,1834],[999,1918],[999,2002],[999,2085],[999,2168],[999,2252],[999,2335],[999,2419],[50.5,2502],[50.5,2585],[50.5,2669],[50.5,2752],[50.5,2836],[50.5,2919],[50.5,3002],[50.5,3086],[50.5,3169],[50.5,3253],[50.5,3336],[50.5,3419],[50.5,3503],[50.5,3587],[50.5,3670],[50.5,3753],[50.5,3836],[50.5,3920],[50.5,4004],[50.5,4087],[50.5,4170],[50.5,4254],[50.5,4337],[50.4,4420],[50,4504],[49.5,4587],[49.1,4671],[48.9,4754],[48.9,4837],[48.7,4921],[48.5,5004],[48.5,5088],[48,5171],[46.1,5255],[46.1,5338],[46.1,5422],[46.1,5505],[44.2,5588],[42.5,5672],[38.1,5755],[34.3,5839],[31.3,5922],[28,6005],[25.4,6089],[24.1,6172],[24.1,6256],[24.1,6339],[24.1,6423],[24.1,6506],[24.1,6590],[24.1,6673],[24.1,6756],[24.1,6840],[24.1,6923],[24.1,7006],[24.1,7090],[24.1,7173],[24.1,7257],[24.1,7340],[24.1,7424],[24.1,7507],[24.1,7591],[24.1,7674],[24.1,7757],[24.1,7840],[24.1,7924],[24.1,8007],[24.1,8091],[24.7,8174],[26.2,8258],[26.8,8341],[27.7,8424],[29.3,8508],[30.8,8591],[32.3,8675],[33.7,8758],[35.6,8841],[36.3,8925],[37.3,9008],[39,9092],[41.1,9175],[42,9259],[43,9342],[44.6,9425],[45.5,9509],[46.3,9592],[47.1,9676],[48.1,9759],[48.8,9843],[49.4,9926],[49.9,10009],[50.5,10093],[52.3,10176],[54.8,10260],[68.4,10343],[68.7,10427],[68.7,10510],[68.7,10593],[68.7,10677],[68.7,10760],[68.7,10844],[68.7,10927],[68.7,11010],[68.7,11094],[68.7,11178],[68.7,11261],[68.7,11344],[68.7,11428],[68.7,11511],[68.5,11594],[68.4,11678],[68.4,11761],[68.4,11845],[68.4,11928],[68.4,12011],[68.4,12095],[68.4,12178],[68.4,12262],[68.4,12345],[67.4,12429],[66.3,12512],[63.8,12595],[62.9,12679],[62.7,12762],[62,12846],[61.6,12929],[61.6,13012],[61.6,13096],[61.6,13179],[61.6,13263],[61.6,13346],[61.6,13430],[61.6,13513],[61.6,13596],[61.6,13680],[61.6,13763],[61.6,13847],[61.6,13930],[61.6,14014],[61.6,14097],[61.6,14180],[61.6,14264],[61.6,14347],[61.6,14430],[61.6,14514],[61.6,14597],[61.6,14681],[61.6,14764],[61.6,14848],[61.6,14931],[61.6,15015],[61.6,15098],[61.6,15181],[61.6,15265],[61.6,15348],[61.6,15432],[61.6,15515],[61.6,15598],[61.6,15682],[61.6,15765],[61.6,15848],[61.6,15932],[61.6,16016],[61.6,16099],[61.6,16182],[61.6,16266],[61.6,16349],[61.6,16432],[61.6,16516],[61.6,16599],[61.6,16683],[61.6,16766],[61.6,16849],[62.6,16933],[63.5,17016],[64,17100],[65.2,17183],[66.6,17267],[67.9,17350],[68.4,17433],[69,17517],[70.6,17600],[72,17684],[74.1,17767],[74.1,17850],[75.5,17934],[75.8,18018],[75.8,18101],[75.8,18184],[75.8,18268],[75.8,18351],[75.8,18434],[75.8,18518],[75.8,18601],[75.8,18685],[75.8,18769],[75.8,18852],[75.8,18935],[75.8,19018],[75.8,19102],[75.8,19186],[75.8,19269],[75.8,19352],[75.8,19436],[75.8,19519],[75.8,19602],[75.8,19686],[75.8,19769],[75.8,19853],[75.8,19936],[75.8,20019],[75.8,20103],[75.8,20186],[75.8,20270],[75.8,20353],[75.8,20437],[75.8,20520],[75.8,20604],[75.8,20687],[75.8,20770],[75.8,20854],[75.8,20937],[75.8,21020],[75.8,21104],[74.2,21187],[68.4,21271],[64.5,21354],[62.5,21437],[61.3,21521],[58.4,21604],[55.5,21688],[54.8,21771],[54.2,21855],[53.3,21938],[52,22021],[51.3,22105],[50.7,22188],[50.2,22271],[49.8,22355],[49.8,22438],[49.7,22522],[49.7,22605],[49.7,22689],[49.7,22772],[49.7,22856],[49.7,22939],[49.7,23023],[45.4,23106],[42.6,23189],[42.6,23273],[42.5,23356],[41.5,23439],[38.8,23523],[35.6,23606],[34.1,23690],[34.1,23773],[34.1,23857],[34.1,23940],[34.1,24024],[34.1,24107],[34.1,24190],[34.1,24273],[34.1,24357],[34.1,24441],[34.1,24524],[34.1,24608],[34.1,24691],[34.1,24774],[34.1,24857],[34.1,24941],[34.1,25025],[34.1,25108],[34.1,25192],[34.1,25275],[34.1,25358],[34.1,25441],[34.1,25525],[34.1,25608],[34.1,25692],[34.1,25775],[34.1,25859],[34.1,25942],[34.1,26026],[34.1,26109],[34.1,26192],[34.1,26276],[34.1,26359],[34.1,26443],[34.1,26526],[34.1,26609],[34.1,26693],[34.1,26776],[34.1,26859],[34.1,26943],[34.1,27027],[34.1,27110],[34.1,27193],[34.1,27277],[34.1,27360],[34.1,27444],[34.1,27527],[34.1,27610],[34.1,27694],[34.1,27777],[34.1,27860],[34.1,27944],[34.1,28028],[34.1,28111],[34.1,28194],[34.1,28278],[34.1,28361],[34.1,28445],[34.1,28528],[34.1,28612],[34.1,28695],[34.1,28778],[34.1,28862],[34.1,28945],[34.1,29028],[34.1,29112],[34.1,29195],[34.1,29278],[34.1,29362],[34.1,29445],[34.1,29529],[34.5,29612],[35.2,29696],[36,29779],[37.7,29862],[40,29946],[42,30029],[44.1,30113],[45.8,30196],[46.6,30280],[47.4,30363],[48.5,30446],[49.4,30530],[50.2,30613],[51,30697],[51.6,30780],[51.9,30864],[52.7,30947],[53.5,31030],[54.8,31114],[55.2,31197],[55.9,31281],[56.8,31364],[58.6,31447],[60.5,31531],[61.7,31614],[63.5,31698],[64.8,31781],[64.8,31865],[65.2,31948],[65.4,32031],[66.1,32115],[66.5,32198],[66.7,32282],[67,32365],[67.3,32448],[67.3,32532],[67.3,32616],[67.7,32699],[68,32782],[68.4,32865],[68.6,32949],[68.9,33032],[69.1,33116],[69.4,33199],[69.5,33283],[69.5,33366],[69.5,33449],[69.5,33533],[69.5,33616],[69.5,33700],[69.5,33783],[69.5,33867],[69.5,33950],[69.5,34034],[69.5,34117],[69.6,34200],[69.6,34284],[69.6,34367],[69.6,34450],[69.7,34534],[69.7,34617],[69.7,34701],[69.7,34784],[69.7,34867],[69.7,34951],[69.7,35034],[69.7,35118],[69.7,35201],[69.7,35285],[69.7,35368],[69.7,35452],[69.7,35535],[69.7,35618],[69.7,35702],[69.7,35785],[69.7,35869],[69.7,35952],[69.7,36035],[69.7,36119],[69.7,36202],[69.7,36286],[69.7,36369],[69.7,36453],[69.7,36536],[69.7,36619],[69.7,36703],[69.7,36786],[69.7,36870],[69.7,36953],[69.7,37037],[69.7,37120],[69.7,37203],[69.7,37287],[69.7,37370],[69.7,37454],[69.7,37537],[69.7,37621],[69.7,37704],[69.7,37787],[69.7,37871],[69.7,37954],[68.8,38037],[67.4,38121],[64.5,38204],[60.9,38287],[60.2,38371],[59.4,38454],[59.2,38538],[58.7,38621],[58,38705],[56.1,38788],[54.2,38871],[54.2,38955],[54.2,39038],[54.2,39122],[54.2,39205],[54.2,39288],[54.2,39372],[54.2,39456],[54.2,39539],[54.2,39623],[54.2,39706],[54.2,39789],[54.2,39873],[54.2,39956],[54.2,40039],[54.2,40123],[54.2,40206],[54.2,40289],[54.2,40373],[54.2,40457],[54.2,40540],[54.2,40624],[54.2,40707],[54.2,40790],[54.2,40873],[54.2,40957],[54.2,41040],[54.2,41124],[54.2,41207],[54.2,41291],[54.2,41374],[54.2,41458],[54.2,41541],[54.2,41624],[54.2,41708],[54.2,41791],[54.2,41875],[54.2,41958],[54.2,42041],[54.2,42125],[54.2,42208],[54.2,42292],[54.2,42375],[54.2,42458],[54.2,42542],[54.2,42626],[54.2,42709],[54.2,42792],[54.2,42876],[54.2,42959],[54.2,43042],[54.2,43126],[54.2,43209],[54.2,43293],[54.2,43376],[54.2,43459],[54.2,43543],[54.2,43627],[54.2,43710],[54.2,43793],[54.2,43877],[54.2,43960],[54.5,44043],[61.5,44127],[67.1,44210],[69.8,44294],[72.6,44377],[75.9,44460],[83.6,44544],[87.3,44627],[88.1,44711],[89.3,44794],[89.8,44877],[90.5,44961],[90.6,45045],[90.6,45128],[91.9,45211],[92.4,45295],[93.1,45378],[94.1,45461],[95,45545],[95.8,45628],[97,45712],[97,45795],[97,45878],[97,45962],[97,46046],[97,46129],[97,46213],[97,46296],[97,46379],[97,46463],[97,46546],[97,46629],[97,46713],[97,46796],[97,46879],[97,46963],[97,47047],[97,47130],[97,47213],[97,47297],[97,47380],[97,47464],[97,47547],[97,47631],[97,47714],[97,47797],[97,47880],[97,47964],[97,48047],[97,48131],[97,48214],[97,48298],[96.4,48381],[95.9,48464],[95.7,48548],[93.9,48631],[91.1,48715],[87.1,48798],[80.3,48881],[69.5,48965],[65.9,49048],[63.7,49132],[60.2,49215],[58,49299],[56.1,49382],[54.1,49465],[51.3,49549],[47.3,49632],[30.1,50216],[29.8,50300],[29.8,50383],[29.6,50466],[28.6,50550],[25.5,50633],[23.4,50717],[23,50800],[23,50883],[23,50967],[23,51050],[23.2,51134],[23.2,51217],[23.2,51300],[23.2,51384],[23.2,51468],[23.2,51551],[23.2,51634],[23.2,51718],[23.2,51801],[23.2,51885],[23.2,51968],[23.2,52051],[23.2,52135],[23.2,52218],[23.2,52301],[23.2,52385],[23.2,52468],[23.2,52552],[23.2,52636],[23.2,52719],[23.2,52802],[23.2,52886],[23.2,52969],[23.2,53053],[23.2,53136],[23.2,53219],[23.2,53303],[23.2,53386],[23.2,53469],[23.2,53553],[23.2,53637],[23.2,53720],[23.2,53803],[23.2,53887],[23.2,53970],[23.2,54053],[23.2,54137],[23.2,54220],[23.2,54304],[23.2,54387],[23.2,54470],[23.2,54554],[23.2,54637],[23.2,54721],[23.2,54804],[23.2,54888],[23.2,54971],[23.2,55054],[23.2,55138],[23.2,55221],[23.2,55305],[23.2,55388],[23.2,55471],[22,55555],[15.6,55638],[13.8,55722],[12.7,55805]]",1,0,269.9396,274.7609,4.921875,3.3985,"[{""rating"":4.921874999999998,""responseTime"":3.3985000000000127}]",space,4.2964,,274.761,Not at all,0,288.4078,0,12.777,"[{""rating"":0,""responseTime"":6.552999999999997},{""rating"":0,""responseTime"":12.776999999999987}]",space,0,1,1,1,1,audio/Narrative7Situation1.wav,audio/Narrative8Situation1.wav,audio/Narrative5Situation1.wav,audio/Narrative6Situation1.wav,2,5,5,2,2.5461,,13.1224,,,,,,,,,,,,,,,,,,,,,,,,,,,,,,,,,,,,
,,,,,,656607db0fc2ad7c7b0948fa,2024-05-13_11h53.29.159,group3.1-3.2-social-tom,2023.2.2,Win32,60.60606061,65c5074098b851296ff0b7ed,6642376526b647ce83ce9cd7,,,,,,,,,,,,,,,,,,,,,,,,,,,,,288.408,1,audio/Narrative7Situation2.wav,291.4108,,291.4108,298.8854,"[[999,0],[999,83],[999,166],[999,250],[999,333],[999,416],[999,500],[999,583],[999,667],[999,750],[999,834],[999,917],[999,1001],[999,1084],[999,1167],[999,1251],[999,1334],[999,1418],[999,1501],[999,1585],[999,1668],[999,1751],[999,1835],[999,1918],[999,2002],[999,2085],[999,2168],[999,2252],[999,2335],[999,2419],[999,2502],[999,2585],[999,2669],[999,2752],[999,2836],[999,2919],[999,3003],[999,3086],[999,3169],[999,3253],[999,3336],[999,3420],[999,3503],[999,3586],[999,3670],[999,3753],[999,3837],[999,3920],[42.1,4004],[31.2,4087],[28.3,4170],[22.2,4254],[19.5,4337],[16.2,4420],[14.5,4504],[13.5,4587],[13.4,4671],[13.4,4755],[13.8,4838],[19.4,4921],[25.5,5004],[48.2,5088],[71.1,5171],[77.2,5255],[77.2,5338],[79,5422],[83.3,5505],[86.2,5588],[91.3,5672],[93.4,5755],[98.4,5839],[100,5922],[100,6005],[100,6089],[100,6173],[100,6256],[100,6339],[100,6423],[100,6506],[100,6590],[100,6673],[100,6756],[100,6840],[100,6923],[100,7006],[100,7090],[100,7173],[100,7257],[100,7341],[100,7424]]",1,0,298.8856,302.9556,50.078125,2.8443,"[{""rating"":50.07812499999999,""responseTime"":2.844299999982127}]",space,3.5264,,302.9556,Definitely yes,100,302.9575,,,[],,0,2,2,2,1,audio/Narrative7Situation2.wav,audio/Narrative8Situation2.wav,audio/Narrative5Situation2.wav,audio/Narrative6Situation2.wav,3,3,3,3,,,,,,,,,,,,,,,,,,,,,,,,,,,,,,,,,,,,,,,
,,,,,,656607db0fc2ad7c7b0948fa,2024-05-13_11h53.29.159,group3.1-3.2-social-tom,2023.2.2,Win32,60.60606061,65c5074098b851296ff0b7ed,6642376526b647ce83ce9cd7,,,,,,,,,,,,,,,,,,,,,,,,,,,,,302.9576,1,audio/Narrative7Situation3.wav,310.9641,,310.9642,320.2063,"[[52.3,1834],[55.7,1917],[57.3,2001],[57.8,2084],[57.9,2168],[57.9,2251],[57.9,2335],[57.9,2418],[57.9,2502],[57.7,2585],[55.9,2668],[54.1,2752],[52.7,2835],[51.9,2919],[50.9,3002],[50.5,3085],[50.3,3169],[50.2,3252],[50.2,3336],[50.2,3419],[50.2,3502],[43.4,3586],[32.3,3669],[30.4,3752],[30.3,3836],[29.8,3920],[29.5,4003],[29,4086],[27.5,4170],[21.8,4253],[19.9,4336],[19.9,4420],[19.9,4504],[19.9,4587],[19.9,4670],[19.9,4754],[20.2,4837],[20.9,4920],[21,5004],[21.1,5088],[21.1,5171],[21.1,5254],[21.1,5338],[21.1,5421],[21.1,5504],[21.1,5588],[21.1,5671],[21.1,5755],[21.1,5838],[21.1,5921],[21.1,6005],[21.1,6088],[21.1,6172],[21.1,6255],[21,6339],[18.9,6422],[17.5,6505],[17.3,6589],[16.9,6672],[15.9,6756],[14.1,6839],[14,6923],[14,7006],[14,7089],[14,7173],[14,7256],[14,7340],[14,7423],[13.4,7507],[8,7590],[7.8,7673],[5.1,7757],[5,7840],[4.5,7923],[1.3,8007]]",1,0,320.2063,323.9433,0,2.7238,"[{""rating"":0,""responseTime"":1.9956999999880622},{""rating"":0,""responseTime"":2.72380000001192}]",space,3.2051,,323.9433,Not at all,0,323.9449,,,[],,0,3,3,3,1,audio/Narrative7Situation3.wav,audio/Narrative8Situation3.wav,audio/Narrative5Situation3.wav,audio/Narrative6Situation3.wav,8,4,3,5,,,,,,,,,,,,,,,,,,,,,,,,,,,,,,,,,,,,,,,
,,,,,,656607db0fc2ad7c7b0948fa,2024-05-13_11h53.29.159,group3.1-3.2-social-tom,2023.2.2,Win32,60.60606061,65c5074098b851296ff0b7ed,6642376526b647ce83ce9cd7,,,,,,,,,,,,,,,,,,,,,,,,,,,,,323.945,1,audio/Narrative7Situation4.wav,326.9463,,326.9463,338.6582,"[[999,0],[999,83],[999,167],[999,250],[999,333],[999,416],[999,500],[999,583],[999,667],[999,750],[999,834],[999,918],[999,1000],[999,1084],[999,1167],[999,1251],[999,1334],[999,1417],[999,1501],[999,1584],[999,1668],[999,1751],[999,1835],[999,1918],[999,2002],[999,2085],[999,2168],[999,2252],[999,2335],[999,2418],[999,2502],[23.1,2585],[17.6,2669],[9.1,2752],[5,2836],[2.6,2919],[0.9,3002],[0.2,3086],[4.1,6756],[19.2,6840],[27.7,6923],[33.1,7007],[36.7,7090],[49.1,7173],[73.7,7257],[83.8,7340],[87,7423],[93.5,7507],[97.2,7590],[99.7,7674],[100,7757],[100,7841],[100,7924],[100,8008],[100,8091],[100,8174],[100,8258],[100,8341],[100,8425],[100,8508],[100,8592],[100,8675],[100,8759],[100,8842],[100,8925],[100,9009],[100,9092],[100,9176],[100,9259],[100,9342],[100,9426],[100,9509],[100,9593],[100,9676],[100,9759],[100,9843],[100,9926],[100,10009],[100,10093],[79.4,10176],[55.5,10260],[50.4,10343],[50.2,10427],[49.9,10510],[49.8,10593],[49.8,10677],[49.8,10760],[49.8,10844],[49.8,10927],[49.8,11011],[49.8,11094],[49.8,11177],[49.8,11261],[49.8,11345],[49.8,11428],[49.8,11511],[49.8,11595],[49.8,11678]]",1,0,338.6583,345.5151,76.171875,5.24,"[{""rating"":49.921875,""responseTime"":1.2077000000178941},{""rating"":75.15625,""responseTime"":4.463599999994074},{""rating"":76.171875,""responseTime"":5.240000000000009}]",space,6.3219,,345.5151,Not at all,0,345.5161,,,[],,0,4,4,4,1,audio/Narrative7Situation4.wav,audio/Narrative8Situation4.wav,audio/Narrative5Situation4.wav,audio/Narrative6Situation4.wav,3,3,1,2,,,,,,,,,,,,,,,,,,,,,,,,,,,,,,,,,,,,,,,
,,,,,,656607db0fc2ad7c7b0948fa,2024-05-13_11h53.29.159,group3.1-3.2-social-tom,2023.2.2,Win32,60.60606061,65c5074098b851296ff0b7ed,6642376526b647ce83ce9cd7,,,,,,,,,,,,,,,,,,,,,,,,,,,,,345.5161,1,audio/Narrative7Situation5.wav,350.5198,,350.5199,358.9951,"[[48,83],[48,166],[48.1,250],[48.5,333],[49.1,416],[49.6,500],[49.6,583],[49.9,667],[49.9,750],[49.9,834],[49.9,917],[49.9,1001],[49.9,1084],[49.9,1168],[49.6,1251],[49.3,1334],[49.3,1417],[49.3,1501],[49.3,1584],[49.3,1668],[49.3,1752],[49.3,1835],[49.3,1918],[49.3,2002],[49.3,2085],[49.3,2168],[49.3,2252],[49.3,2335],[49.3,2418],[49.3,2502],[49.3,2586],[49.3,2669],[49.3,2752],[49.3,2836],[49.3,2919],[49.3,3003],[49.3,3086],[47.5,3170],[36.9,3252],[31,3336],[30,3420],[26.6,3503],[22,3586],[18.1,3670],[15.1,3753],[12,3836],[1,3920]]",1,0,358.9952,362.1982,0,2.7545,"[{""rating"":0.3124999999999989,""responseTime"":2.316399999976113},{""rating"":0,""responseTime"":2.7545000000000073}]",space,2.6819,,362.1982,Not at all,0,362.199,,,[],,0,5,5,5,1,audio/Narrative7Situation5.wav,audio/Narrative8Situation5.wav,audio/Narrative5Situation5.wav,audio/Narrative6Situation5.wav,5,2,5,2,,,,,,,,,,,,,,,,,,,,,,,,,,,,,,,,,,,,,,,
,,,,,,656607db0fc2ad7c7b0948fa,2024-05-13_11h53.29.159,group3.1-3.2-social-tom,2023.2.2,Win32,60.60606061,65c5074098b851296ff0b7ed,6642376526b647ce83ce9cd7,,,,,,,,,,,,,,,,,,,,,,,,,,,,,362.199,1,audio/Narrative7Situation6.wav,365.2011,,365.2011,375.1612,"[[999,0],[21.9,83],[27.7,166],[28.8,250],[30,333],[32.2,416],[32.5,500],[32.5,584],[32.5,667],[32.5,751],[32.5,834],[23.7,917],[16.9,1000],[16.5,1084],[16.5,1167],[16.5,1251],[16.5,1334],[16.5,1418],[16.5,1501],[16.5,1584],[16.5,1668],[16.5,1752],[16.4,1835],[15.1,1918],[14.4,2001],[13.7,2085],[13.7,2169],[16,2252],[29,2335],[37.4,2418],[40.2,2503],[43,2585],[45.9,2669],[50.9,2752],[55.1,2836],[59.4,2919],[65.9,3002],[74.3,3086],[82.6,3169],[100,3253],[100,3336],[100,3420],[100,3503],[100,3587],[100,3670],[100,3753],[100,3837],[100,3920],[100,4004],[100,4087],[100,4170],[100,4254],[100,4337],[100,4420],[100,4504],[100,4587],[100,4671],[100,4754],[100,4837],[100,4921],[100,5004],[100,5088],[100,5172],[100,5255],[100,5338],[100,5422],[100,5505],[100,5588],[100,5672],[100,5755],[100,5838],[100,5922],[100,6005],[100,6089],[100,6173],[100,6256],[100,6339],[100,6423],[100,6506],[100,6590],[100,6673],[100,6756],[100,6840],[100,6923],[100,7007],[100,7090],[100,7173],[100,7257],[100,7340],[100,7424],[100,7507],[100,7590],[100,7674],[100,7758],[100,7840],[100,7924],[100,8008],[100,8091],[100,8174],[100,8258],[100,8341],[100,8424],[100,8508],[100,8591],[100,8675],[100,8758],[100,8842],[100,8925],[100,9009],[100,9092],[100,9175],[100,9259],[100,9343],[100,9425],[100,9509],[100,9593],[100,9676],[100,9759],[100,9843],[100,9926]]",1,0,375.1613,377.8807,100,2.3965,"[{""rating"":97.96875,""responseTime"":1.2200999999940336},{""rating"":100,""responseTime"":2.396500000000003}]",space,2.1953,,377.8808,Not at all,0,377.8818,,,[],,0,6,6,6,1,audio/Narrative7Situation6.wav,audio/Narrative8Situation6.wav,audio/Narrative5Situation6.wav,audio/Narrative6Situation6.wav,3,2,3,2,,,,,,,,,,,,,,,,,,,,,,,,,,,,,,,,,,,,,,,
,,,,,,656607db0fc2ad7c7b0948fa,2024-05-13_11h53.29.159,group3.1-3.2-social-tom,2023.2.2,Win32,60.60606061,65c5074098b851296ff0b7ed,6642376526b647ce83ce9cd7,,,,,,,,,,,,,,,,,,,,,,,,,,,,,377.882,1,audio/Narrative7Situation7.wav,382.8857,,382.8857,400.0527,"[[100,1834],[100,2418],[100,2502],[100,2585],[100,2668],[100,2752],[100,2835],[100,2919],[100,3002],[100,3086],[100,3169],[100,3253],[100,3336],[100,3419],[100,3503],[100,3586],[100,3669],[100,3753],[100,3837],[100,3920],[100,4004],[100,4087],[100,4170],[100,4253],[100,4337],[100,4420],[100,4504],[100,4587],[100,4670],[100,4754],[100,4839],[100,4921],[100,5004],[100,5088],[100,5172],[100,5254],[100,5338],[100,5421],[100,5505],[100,5588],[100,5672],[100,5755],[100,5839],[100,5922],[100,6005],[100,6089],[100,6172],[100,6255],[100,6339],[100,6423],[100,6506],[100,6589],[100,6673],[99.6,6756],[96.1,6839],[90.5,6923],[86.3,7006],[83.7,7090],[81.3,7173],[79,7256],[76.4,7340],[74,7423],[72.4,7507],[71.7,7590],[70.9,7674],[69.8,7757],[69,7840],[68.1,7924],[67.4,8007],[67.1,8091],[66.5,8174],[63,8258],[59.1,8341],[57.2,8424],[54.4,8508],[53.7,8591],[53.5,8675],[53.2,8758],[52.5,8842],[51.7,8925],[51.3,9008],[51.1,9092],[50.9,9175],[50.9,9258],[50.7,9342],[50.5,9425],[50.5,9509],[50.4,9592],[50.3,9676],[50.2,9759],[49.9,9842],[49.8,9926],[49.8,10009],[49.8,10093],[49.8,10176],[49.6,10260],[49.5,10343],[49.3,10426],[49.2,10510],[49.2,10593],[49.2,10677],[49.2,10760],[49.2,10843],[49.2,10927],[49.2,11010],[49.7,11094],[50.7,11177],[52,11261],[52.3,11344],[52.9,11427],[53.9,11511],[55.2,11594],[56.8,11677],[57,11761],[57,11845],[57,11928],[57,12012],[57,12095],[56.6,12178],[56.1,12261],[55.9,12345],[55.7,12428],[55.3,12512],[55,12595],[55,12679],[55,12762],[55.2,12845],[55.3,12929],[55.5,13012],[55.7,13096],[55.9,13179],[55.9,13263],[55.9,13346],[55.9,13429],[55.9,13513],[55.9,13596],[55.9,13680],[55.9,13763],[55.9,13846],[55.9,13930],[55.9,14013],[55.9,14097],[56.3,14180],[59.5,14263],[65.7,14347],[70.2,14430],[72.3,14514],[72.8,14597],[73.7,14680],[75.1,14764],[76.3,14847],[77.7,14931],[80.7,15014],[82.5,15098],[84.6,15181],[87,15264],[88.8,15348],[92.1,15431],[93.5,15515],[94.3,15598],[95.4,15682],[96.2,15765],[96.7,15848],[97.8,15932],[98.2,16015],[98.5,16099],[98.8,16182],[99,16266],[99.3,16349],[99.5,16432],[99.7,16516],[99.9,16599],[100,16682],[100,16766],[100,16850],[100,16933],[100,17016],[100,17100]]",1,0,400.0528,403.6062,63.671875,2.7491,"[{""rating"":63.671875,""responseTime"":2.74909999999403}]",space,3.0229,,403.6063,Definitely yes,100,403.6075,,,[],,0,7,7,7,1,audio/Narrative7Situation7.wav,audio/Narrative8Situation7.wav,audio/Narrative5Situation7.wav,audio/Narrative6Situation7.wav,5,3,4,5,,,,,,,,,,,,,,,,,,,,,,,,,,,,,,,,,,,,,,,
,,,,,,656607db0fc2ad7c7b0948fa,2024-05-13_11h53.29.159,group3.1-3.2-social-tom,2023.2.2,Win32,60.60606061,65c5074098b851296ff0b7ed,6642376526b647ce83ce9cd7,,,,,,,,,,,,,,,,,,,,,,,,,,,,,403.6077,1,audio/Narrative7Situation8.wav,405.6081,,405.6081,415.6182,"[[999,0],[999,83],[999,166],[999,250],[999,333],[999,417],[999,500],[999,584],[999,667],[999,750],[999,834],[999,917],[999,1001],[999,1084],[999,1167],[999,1251],[999,1334],[999,1418],[999,1501],[999,1585],[999,1668],[999,1751],[999,1834],[999,1918],[51.9,2002],[50.8,2085],[49.8,2168],[49.5,2252],[49.5,2335],[56.8,2418],[67.2,2502],[66.3,2585],[62.6,2669],[54.9,2752],[49.1,2836],[47,2919],[46.1,3002],[42.6,3086],[36.9,3169],[24.6,3253],[19,3336],[15.7,3420],[13.6,3503],[13.6,3587],[13.6,3670],[13.6,3754],[13.6,3837],[13.6,3920],[13.6,4004],[13.6,4087],[13.6,4171],[13.6,4254],[13.3,4337],[13.1,4421],[12.9,4504],[24.3,5338],[95.2,5672],[95.8,5755],[96.5,5839],[96.6,5922],[97.7,6005],[100,6089],[100,6172],[100,6256],[100,6339],[100,6423],[100,6507],[100,6589],[100,6673],[100,6756],[100,6840],[100,6923],[100,7007],[100,7090],[100,7173],[100,7257],[100,7340],[100,7423],[100,7507],[100,7591],[100,7674],[100,7757],[100,7841],[100,7924],[100,8007],[100,8091],[100,8174],[100,8258],[100,8341],[100,8425],[100,8508],[100,8591],[100,8675],[100,8758],[100,8842],[100,8925],[100,9008],[100,9092],[100,9175],[100,9259],[100,9342],[100,9426],[100,9509],[100,9593],[100,9676],[100,9759],[100,9843],[100,9926],[100,10009]]",1,0,415.6183,417.4036,70.3125,1.1838,"[{""rating"":70.3125,""responseTime"":1.1838000000119564}]",space,1.2574,,417.4036,Not at all,0,417.4049,,,[],,0,8,8,8,1,audio/Narrative7Situation8.wav,audio/Narrative8Situation8.wav,audio/Narrative5Situation8.wav,audio/Narrative6Situation8.wav,2,3,3,5,,,,,,,,,,,,,,,,,,,,,,,,,,,,,,,,,,,,,,,
,,,,,,656607db0fc2ad7c7b0948fa,2024-05-13_11h53.29.159,group3.1-3.2-social-tom,2023.2.2,Win32,60.60606061,65c5074098b851296ff0b7ed,6642376526b647ce83ce9cd7,,,,,,,,,,,,,,,,,,,,,,,,,,,,,417.405,1,audio/Narrative7Situation9.wav,419.4053,,419.4054,428.0471,"[[999,0],[999,83],[999,166],[999,250],[999,333],[999,417],[999,500],[999,584],[999,667],[999,750],[49.8,834],[49.4,917],[49.4,1000],[49.5,1084],[49.5,1167],[49.8,1251],[49.9,1334],[49.9,1417],[49.9,1501],[51.4,1584],[58.6,1668],[74.9,1751],[86.2,1834],[87.7,1918],[95,2001],[97.9,2085],[99.4,2168],[99.6,2251],[99.6,2335],[99.6,2418],[100,2502],[100,2585],[100,2669],[100,2752],[100,2835],[100,2919],[100,3003],[100,3086],[100,3169],[100,3252],[100,3336],[100,3419],[100,3503],[100,3586],[100,3669],[100,3754],[100,3836],[100,3921],[100,4003],[100,4090],[100,4174],[100,4256],[100,4337],[100,4420],[100,4506],[100,4588],[100,4671],[100,4754],[100,4838],[100,4921],[100,5004],[100,5088],[100,5171],[100,5255],[100,5338],[100,5421],[100,5505],[100,5588],[100,5672],[100,5755],[100,5838],[100,5922],[100,6006],[100,6089],[100,6172],[100,6256],[100,6339],[100,6423],[100,6506],[100,6589],[100,6673],[100,6757],[100,6839],[100,6923],[100,7007],[100,7090],[100,7173],[100,7256],[100,7340],[100,7424],[100,7507],[100,7590],[100,7674],[100,7757],[100,7840],[100,7924],[100,8007],[100,8091],[100,8174],[100,8257],[100,8341],[100,8425],[100,8508],[100,8592]]",1,0,428.0472,431.6027,92.1875,1.9832,"[{""rating"":92.1875,""responseTime"":1.9832000000178596}]",space,3.005,,431.6027,Definitely yes,100,431.6041,,,[],,0,9,9,9,1,audio/Narrative7Situation9.wav,audio/Narrative8Situation9.wav,audio/Narrative5Situation9.wav,audio/Narrative6Situation9.wav,2,3,3,4,,,,,,,,,,,,,,,,,,,,,,,,,,,,,,,,,,,,,,,
,,,,,,656607db0fc2ad7c7b0948fa,2024-05-13_11h53.29.159,group3.1-3.2-social-tom,2023.2.2,Win32,60.60606061,65c5074098b851296ff0b7ed,6642376526b647ce83ce9cd7,,,,,,,,,,,,,,,,,,,,,,,,,,,,,431.6042,1,audio/Narrative8Situation1.wav,436.6073,,436.6073,452.5383,"[[999,4],[999,82],[999,165],[999,250],[999,331],[999,415],[999,498],[999,582],[999,665],[999,751],[999,834],[999,917],[56.5,1000],[45.5,1082],[45.2,1166],[47,1252],[48.8,1334],[48.8,1416],[48.8,1500],[48.8,1583],[49.5,1666],[49.5,1750],[49.5,1833],[49.5,1917],[49.5,2000],[49.1,2086],[48.8,2167],[48.8,2250],[48.8,2333],[48.8,2417],[48.8,2500],[48.8,2584],[48.8,2668],[48.8,2750],[48.8,2834],[47.5,2919],[38.4,3002],[33,3086],[26.2,3170],[16.7,3253],[1.5,3337],[0.9,5839],[1.6,5923],[1.8,6004],[1.8,6087],[1.9,6171],[2,6254],[2,6338],[2.2,6421],[2.2,6504],[2.3,6588],[2.3,6672],[2.3,6755],[2.3,6838],[2.3,6922],[2.5,7007],[2.7,7088],[2.7,7173],[2.7,7256],[2.7,7339],[2.7,7422],[2.7,7506],[2.7,7589],[2.7,7673],[2.8,7756],[2.8,7839],[2.8,7923],[2.8,8006],[2.8,8090],[2.8,8173],[2.8,8257],[2.8,8340],[2.8,8423],[2.8,8506],[2.8,8590],[3.3,8675],[4.5,8758],[4.5,8840],[5.6,8926],[6.6,9009],[7,9090],[11.9,9176],[29.3,9259],[64.7,9342],[100,9759],[100,9843],[100,9925],[100,10008],[100,10091],[100,10175],[100,10258],[100,10341],[100,10425],[100,10508],[100,10592],[100,10675],[100,10759],[100,10842],[100,10925],[100,11009],[100,11092],[100,11177],[100,11259],[100,11343],[100,11426],[100,11509],[100,11593],[100,11677],[100,11759],[100,11843],[100,11926],[100,12010],[100,12094],[100,12177],[100,12260],[100,12343],[100,12427],[100,12511],[100,12594],[100,12677],[100,12761],[100,12844],[100,12927],[100,13011],[100,13095],[100,13178],[100,13261],[100,13345],[100,13428],[100,13511],[100,13595],[100,13678],[100,13762],[100,13845],[100,13928],[100,14012],[100,14096],[100,14179],[100,14262],[100,14346],[100,14429],[100,14513],[100,14597],[100,14679],[100,14762],[100,14846],[100,14930],[100,15013],[100,15097],[100,15181],[100,15263],[100,15347],[100,15432],[100,15514],[100,15597],[100,15680],[100,15766],[100,15847],[100,15930]]",1,0,452.5384,455.3762,76.328125,1.635,"[{""rating"":76.328125,""responseTime"":1.634999999999991}]",space,2.3021,,455.3762,Partially,50,455.3774,,,[],,0,10,10,10,1,audio/Narrative8Situation1.wav,audio/Narrative7Situation1.wav,audio/Narrative6Situation1.wav,audio/Narrative5Situation1.wav,5,2,2,5,,,,,,,,,,,,,,,,,,,,,,,,,,,,,,,,,,,,,,,
,,,,,,656607db0fc2ad7c7b0948fa,2024-05-13_11h53.29.159,group3.1-3.2-social-tom,2023.2.2,Win32,60.60606061,65c5074098b851296ff0b7ed,6642376526b647ce83ce9cd7,,,,,,,,,,,,,,,,,,,,,,,,,,,,,455.3775,1,audio/Narrative8Situation2.wav,458.3777,,458.3777,468.4876,"[[49.8,335],[49.9,416],[49.9,500],[49.9,584],[49.9,666],[49.9,750],[49.9,834],[49.9,917],[49.9,1001],[49.9,1084],[49.9,1167],[49.9,1250],[49.9,1334],[49.9,1419],[50.2,1503],[51.2,1586],[52,1669],[52,1751],[52,1835],[52,1918],[52,2002],[52,2085],[52.5,2170],[52.7,2251],[52.7,2335],[52.7,2418],[52.7,2502],[52.7,2585],[52.7,2669],[52.7,2752],[52.7,2836],[52.7,2919],[51.3,3004],[44,3088],[37.5,3171],[32.6,3254],[29.4,3338],[25.5,3421],[21.8,3505],[21.2,3588],[21.2,3669],[21.2,3753],[21.2,3837],[21.2,3920],[21.2,4004],[21.2,4087],[21.2,4170],[21.2,4254],[21.2,4337],[21.2,4420],[21.2,4504],[21.2,4587],[21.2,4670],[21.2,4754],[21.2,4838],[21.2,4921],[21.2,5005],[21.2,5088],[21.2,5171],[21.2,5254],[17.4,5340],[8.2,5423],[0.3,7592],[3.5,7675],[7.2,7759],[14.8,7842],[20.1,7926],[23.1,8009],[25.5,8092],[28,8176],[30.6,8259],[32.3,8343],[38.7,8426],[43.7,8509],[52.3,8593],[52.6,8674],[52.6,8758],[51.3,8844],[50.5,8927],[50.4,9008],[50.3,9092],[50.3,9175],[50.3,9258],[50.3,9342],[50.3,9427],[50.3,9509],[50.3,9593],[50.3,9675],[50.3,9759],[50.3,9843],[50.3,9926],[50.3,10009],[50.3,10093]]",1,0,468.4878,473.2427,50.3125,3.6181,"[{""rating"":50.31250000000001,""responseTime"":3.618099999994058}]",space,4.2284,,473.2428,Partially,50,473.2437,,,[],,0,11,11,11,1,audio/Narrative8Situation2.wav,audio/Narrative7Situation2.wav,audio/Narrative6Situation2.wav,audio/Narrative5Situation2.wav,3,3,3,3,,,,,,,,,,,,,,,,,,,,,,,,,,,,,,,,,,,,,,,
,,,,,,656607db0fc2ad7c7b0948fa,2024-05-13_11h53.29.159,group3.1-3.2-social-tom,2023.2.2,Win32,60.60606061,65c5074098b851296ff0b7ed,6642376526b647ce83ce9cd7,,,,,,,,,,,,,,,,,,,,,,,,,,,,,473.2438,1,audio/Narrative8Situation3.wav,477.2463,,477.2463,499.6187,"[[49.2,502],[49.3,584],[49.4,667],[49.5,750],[49.5,834],[49.5,917],[49.5,1000],[49.5,1084],[49.5,1167],[49.5,1251],[49.5,1334],[49.5,1420],[49.5,1501],[49.5,1586],[49.5,1668],[49.5,1752],[49.5,1835],[47.9,1920],[47.7,2002],[47.7,2085],[47.7,2168],[47.7,2252],[47.7,2335],[44.9,2420],[28.5,2504],[24.4,2585],[22.7,2670],[22.1,2754],[22.1,2836],[23.8,2921],[32.7,3004],[33.3,3086],[33.8,3171],[33.8,3255],[33.7,3338],[33.4,3421],[33.4,3503],[33.4,3587],[29.7,3671],[24.1,3755],[21.3,3839],[21.3,3920],[21.3,4004],[21.3,4087],[21.3,4170],[21.3,4254],[21.3,4337],[21.3,4421],[21.3,4504],[21.3,4587],[21.3,4671],[21.3,4754],[21.3,4838],[21.3,4921],[20.1,5006],[17,5090],[14.8,5173],[12.3,5256],[10.5,5340],[9,5424],[8.1,5507],[8,5588],[8,5672],[8,5756],[7.8,5839],[7.6,5924],[7.1,6008],[6.6,6089],[6.4,6174],[6.4,6256],[6.4,6339],[6.4,6423],[6.4,6506],[6.4,6589],[6.4,6673],[6.4,6757],[6.4,6839],[6.4,6923],[6.4,7006],[6.4,7090],[6.4,7173],[6.4,7257],[6.4,7340],[6.4,7424],[6.4,7507],[6.4,7590],[6.4,7674],[6.4,7757],[6.4,7841],[6.4,7924],[6.4,8007],[6.4,8091],[6.4,8175],[6.4,8258],[6.4,8341],[6.4,8425],[6.4,8508],[6.4,8591],[6.4,8675],[6.4,8759],[6.4,8842],[6.4,8925],[6.4,9009],[6.4,9092],[6.4,9176],[6.4,9259],[6.4,9343],[6.4,9426],[6.4,9509],[6.4,9593],[6.4,9676],[6.4,9759],[6.4,9843],[6.4,9926],[6.4,10009],[6.4,10093],[6.4,10176],[6.4,10260],[6.4,10343],[6.4,10426],[6.4,10510],[6.4,10593],[6.4,10677],[6.4,10760],[6.4,10844],[6.4,10927],[6.4,11010],[6.4,11094],[6.4,11177],[6.4,11261],[6.4,11344],[6.4,11428],[6.4,11511],[6.4,11596],[6.4,11678],[6.4,11761],[6.4,11845],[6.4,11928],[6.4,12012],[6.4,12095],[6.4,12178],[6.4,12262],[6.4,12345],[6.4,12428],[6.4,12512],[6.4,12596],[6.4,12679],[6.4,12762],[6.4,12846],[6.4,12929],[6.4,13013],[6.4,13096],[6.4,13179],[6.4,13263],[6.4,13346],[6.4,13429],[6.4,13513],[6.4,13596],[6.4,13680],[6.4,13763],[6.4,13847],[6.4,13930],[6.4,14013],[6.4,14097],[6.4,14180],[6.4,14264],[6.4,14349],[6.4,14430],[6.1,14514],[5.7,14597],[4.4,14683],[4.1,14764],[4,14848],[3.6,14933],[3.1,15016],[2.7,15098],[2.3,15183],[2.2,15265],[2.2,15348],[2.2,15432],[2.1,15515],[2.1,15598],[2.1,15682],[2.1,15766],[2.1,15849],[2.1,15932],[2.1,16016],[2.1,16099],[2.1,16183],[2.1,16266],[2.1,16349],[2.1,16433],[2.1,16516],[2.1,16599],[2.1,16683],[2.1,16767],[2.1,16850],[2.1,16933],[2.1,17017],[2.1,17100],[2.1,17184],[2.1,17267],[2.1,17350],[2.1,17434],[2.1,17517],[2.1,17600],[2.1,17684],[2.1,17768],[2.1,17851],[2.1,17934],[2.1,18018],[2.1,18101],[2.1,18185],[2.1,18268],[2.3,18351],[2.7,18437],[3.6,18520],[4.5,18601],[4.9,18687],[5.6,18768],[7,18853],[8.1,18937],[9.1,19021],[10.2,19104],[11,19187],[11.9,19270],[12.5,19354],[13.1,19438],[13.8,19521],[14.5,19604],[15,19688],[15.5,19771],[15.7,19853],[16.3,19938],[18,20021],[19.1,20105],[19.7,20188],[20.9,20271],[22.9,20355],[23.6,20438],[24.1,20522],[25,20605],[27,20689],[28.8,20772],[29.2,20855],[30,20938],[31.3,21023],[31.6,21104],[31.8,21189],[31.8,21271],[31.9,21355],[32.3,21440],[32.4,21521],[32.4,21605],[32.4,21688],[32.4,21771],[32.4,21855],[32.4,21938],[32.4,22021],[32.4,22105],[32.4,22188],[32.4,22272],[32.4,22355]]",1,0,499.6189,505.2575,7.890625,4.122,"[{""rating"":0.9375000000000022,""responseTime"":2.9045999999940477},{""rating"":7.890625000000001,""responseTime"":4.122000000000071}]",space,5.1059,,505.2575,Definitely yes,100,505.2588,,,[],,0,12,12,12,1,audio/Narrative8Situation3.wav,audio/Narrative7Situation3.wav,audio/Narrative6Situation3.wav,audio/Narrative5Situation3.wav,4,8,5,3,,,,,,,,,,,,,,,,,,,,,,,,,,,,,,,,,,,,,,,
,,,,,,656607db0fc2ad7c7b0948fa,2024-05-13_11h53.29.159,group3.1-3.2-social-tom,2023.2.2,Win32,60.60606061,65c5074098b851296ff0b7ed,6642376526b647ce83ce9cd7,,,,,,,,,,,,,,,,,,,,,,,,,,,,,505.2589,1,audio/Narrative8Situation4.wav,508.2608,,508.2609,522.4267,"[[999,4],[999,83],[999,167],[999,250],[999,333],[999,416],[999,502],[999,584],[999,666],[999,750],[999,833],[999,917],[999,1000],[999,1084],[999,1167],[45.2,1253],[44.8,1336],[44.7,1419],[44.7,1501],[44.7,1584],[44.7,1668],[44.7,1751],[44.7,1835],[44.7,1918],[43.9,2003],[41.6,2086],[39.5,2171],[36.6,2253],[33.4,2337],[31.6,2420],[30.9,2504],[30.5,2585],[30.5,2669],[29.6,2753],[27.4,2838],[24.3,2921],[21.3,3004],[18.9,3088],[18.9,3169],[18.9,3253],[18.9,3336],[18.9,3420],[18.9,3503],[18.9,3588],[18.7,3671],[18,3754],[13.9,3838],[10.9,3922],[10.1,4005],[9,4088],[7.8,4172],[7,4255],[6.8,4337],[6.8,4421],[6.8,4504],[6.8,4587],[6.8,4671],[6.8,4754],[6.8,4838],[6.8,4921],[6.8,5004],[6.8,5087],[6.8,5171],[6.8,5255],[6.8,5338],[6.8,5421],[6.8,5504],[7,5588],[7.5,5672],[9.3,5757],[11,5840],[11.7,5924],[12.3,6007],[12.6,6091],[13,6172],[13.4,6257],[13.8,6339],[14,6422],[14.1,6507],[14.4,6591],[14.6,6674],[14.8,6758],[15,6841],[15.2,6923],[15.4,7008],[15.5,7090],[16.1,7175],[16.6,7256],[16.7,7340],[16.9,7423],[17.1,7509],[20.9,7592],[35,7676],[43,7759],[47.7,7840],[57.5,7926],[66,8009],[77,8093],[81.3,8176],[83.3,8259],[86.1,8343],[86.5,8424],[87.7,8509],[89.1,8593],[91,8677],[93.9,8760],[97.3,8843],[98,8925],[98,9008],[98,9092],[98.8,9177],[100,9258],[100,9344],[100,9426],[100,9509],[100,9592],[100,9675],[100,9759],[100,9842],[100,9926],[100,10009],[100,10093],[100,10176],[100,10261],[100,10343],[100,10426],[100,10510],[100,10593],[100,10677],[100,10760],[100,10844],[100,10927],[100,11010],[100,11094],[100,11177],[100,11261],[100,11344],[100,11427],[100,11511],[100,11596],[100,11677],[100,11761],[100,11845],[100,11928],[100,12011],[100,12095],[100,12179],[100,12262],[100,12345],[100,12428],[100,12512],[100,12595],[100,12678],[100,12762],[100,12845],[100,12929],[100,13013],[100,13095],[100,13179],[100,13262],[100,13346],[100,13429],[100,13513],[100,13596],[100,13680],[100,13763],[100,13846],[100,13932],[100,14013],[100,14096]]",1,0,522.4268,524.5118,76.40625,1.2189,"[{""rating"":76.40625,""responseTime"":1.2189000000059877}]",space,1.5352,,524.5118,Not at all,0,524.5131,,,[],,0,13,13,13,1,audio/Narrative8Situation4.wav,audio/Narrative7Situation4.wav,audio/Narrative6Situation4.wav,audio/Narrative5Situation4.wav,3,3,2,1,,,,,,,,,,,,,,,,,,,,,,,,,,,,,,,,,,,,,,,
,,,,,,656607db0fc2ad7c7b0948fa,2024-05-13_11h53.29.159,group3.1-3.2-social-tom,2023.2.2,Win32,60.60606061,65c5074098b851296ff0b7ed,6642376526b647ce83ce9cd7,,,,,,,,,,,,,,,,,,,,,,,,,,,,,524.5131,1,audio/Narrative8Situation5.wav,526.5287,,526.5288,534.787,"[[51.2,920],[50.6,1002],[48,1085],[47,1168],[47,1251],[47,1336],[45.6,1419],[41.7,1503],[34.8,1586],[30.7,1670],[29.9,1753],[29.9,1835],[33.4,1920],[78.6,2003],[84.8,2087],[84.8,2168],[85.8,2254],[92.1,2337],[96.8,2421],[99.8,2504],[100,2587],[100,2670],[100,2752],[100,2836],[100,2919],[100,3002],[100,3088],[100,3169],[100,3253],[100,3336],[100,3420],[100,3503],[100,3586],[100,3670],[100,3754],[100,3836],[100,3920],[100,4005],[100,4087],[100,4170],[100,4254],[100,4337],[100,4421],[100,4504],[100,4590],[100,4671],[100,4755],[100,4838],[100,4921],[100,5005],[100,5088],[100,5171],[100,5255],[100,5342],[100,5422],[100,5505],[100,5588],[100,5672],[100,5756],[100,5839],[100,5922],[100,6005],[100,6089],[100,6172],[100,6256],[100,6339],[100,6423],[100,6506],[100,6589],[100,6673],[100,6756],[100,6840],[100,6923],[100,7007],[100,7090],[100,7173],[100,7257],[100,7341],[100,7424],[100,7507],[100,7590],[100,7674],[100,7757],[100,7841],[100,7924],[100,8008],[100,8091],[100,8174],[100,8258]]",1,0,534.787,536.5391,99.6875,0.9541,"[{""rating"":99.6875,""responseTime"":0.9540999999940141}]",space,1.2181,,536.5392,Partially,50,536.5406,,,[],,0,14,14,14,1,audio/Narrative8Situation5.wav,audio/Narrative7Situation5.wav,audio/Narrative6Situation5.wav,audio/Narrative5Situation5.wav,2,5,2,5,,,,,,,,,,,,,,,,,,,,,,,,,,,,,,,,,,,,,,,
,,,,,,656607db0fc2ad7c7b0948fa,2024-05-13_11h53.29.159,group3.1-3.2-social-tom,2023.2.2,Win32,60.60606061,65c5074098b851296ff0b7ed,6642376526b647ce83ce9cd7,,,,,,,,,,,,,,,,,,,,,,,,,,,,,536.5406,1,audio/Narrative8Situation6.wav,538.5412,,538.5412,544.9974,"[[99.6,585],[99.2,668],[99.2,750],[99.2,833],[99.2,917],[99.2,1000],[99.2,1084],[99.2,1167],[99.2,1251],[99.2,1334],[99.2,1417],[99.2,1500],[100,1586],[100,1669],[100,1751],[100,1834],[100,1918],[100,2001],[100,2084],[100,2168],[100,2251],[100,2335],[100,2418],[100,2502],[100,2587],[100,2669],[100,2752],[100,2835],[100,2919],[100,3002],[100,3085],[100,3169],[100,3254],[100,3336],[100,3420],[100,3503],[100,3586],[100,3670],[100,3753],[100,3836],[100,3920],[100,4003],[100,4087],[100,4170],[100,4253],[100,4337],[100,4421],[100,4504],[100,4587],[100,4671],[100,4754],[100,4837],[100,4921],[100,5004],[100,5088],[100,5171],[100,5254],[100,5338],[100,5421],[100,5505],[100,5588],[100,5672],[100,5755],[100,5838],[100,5922],[100,6005],[100,6089],[100,6172],[100,6255],[100,6339],[100,6422]]",1,0,544.9975,547.1999,100,1.5149,"[{""rating"":99.296875,""responseTime"":1.0654000000059796},{""rating"":100,""responseTime"":1.5149000000059232}]",space,1.6628,,547.1999,Partially,50,547.2009,,,[],,0,15,15,15,1,audio/Narrative8Situation6.wav,audio/Narrative7Situation6.wav,audio/Narrative6Situation6.wav,audio/Narrative5Situation6.wav,2,3,2,3,,,,,,,,,,,,,,,,,,,,,,,,,,,,,,,,,,,,,,,
,,,,,,656607db0fc2ad7c7b0948fa,2024-05-13_11h53.29.159,group3.1-3.2-social-tom,2023.2.2,Win32,60.60606061,65c5074098b851296ff0b7ed,6642376526b647ce83ce9cd7,,,,,,,,,,,,,,,,,,,,,,,,,,,,,547.2009,1,audio/Narrative8Situation7.wav,550.2027,,550.2027,562.2814,"[[96.8,334],[96.7,417],[96.7,500],[96.7,583],[96.7,666],[96.7,750],[96.7,834],[96.7,917],[96.7,1000],[96.7,1084],[96.7,1167],[96.7,1251],[96.1,1336],[93.2,1419],[91.6,1503],[90,1586],[87.7,1670],[84,1753],[80.8,1836],[79.5,1919],[79.5,2001],[79.5,2085],[79.5,2168],[79.5,2251],[79.2,2335],[79.1,2420],[78.8,2503],[78.6,2586],[78.4,2671],[78.4,2752],[78.4,2835],[78.4,2919],[78.4,3003],[78.4,3086],[78.4,3169],[77,3254],[75.8,3338],[72.7,3421],[65.5,3504],[62,3587],[60.7,3672],[59.5,3755],[57,3838],[53.2,3921],[49.1,4005],[47.1,4088],[47,4170],[47,4253],[45.7,4339],[45.3,4422],[45.2,4507],[44.4,4589],[41.9,4673],[40.1,4756],[38.4,4839],[37.6,4923],[34.9,5006],[33.1,5089],[32.3,5173],[32,5257],[31.9,5338],[31.4,5423],[30.5,5506],[30.1,5590],[28.9,5673],[28.4,5757],[27.7,5840],[27,5924],[25.6,6007],[24.9,6090],[24.1,6173],[23.4,6257],[22.9,6339],[22.7,6424],[22.7,6507],[22.7,6589],[22.4,6674],[21.9,6758],[21.6,6839],[21.6,6923],[21.4,7006],[21.4,7090],[21.4,7173],[21.4,7257],[21,7342],[20.4,7425],[20.1,7507],[20,7592],[19.9,7673],[19.8,7759],[19.6,7840],[19.5,7924],[19.5,8007],[19.5,8091],[19.5,8174],[19.5,8260],[19.5,8341],[19.5,8424],[19.5,8510],[19.5,8591],[19.5,8674],[18.8,8760],[18.1,8844],[17.7,8927],[17.3,9008],[17,9092],[17,9175],[17,9259],[16.6,9343],[16.4,9427],[16.1,9511],[15.7,9592],[15.5,9677],[15.5,9759],[15.5,9842],[15.5,9926],[14.8,10011],[13.3,10095],[12.9,10178],[12.4,10261],[12.2,10343],[12,10426],[11.6,10512],[11.4,10595],[10.5,10678],[9.6,10762],[8.8,10845],[8.2,10929],[7.7,11012],[7.7,11094],[7.5,11179],[7.3,11262],[6.9,11346],[6.5,11427],[5.5,11513],[4.3,11596],[2.1,11679],[0.5,11763]]",1,0,562.2816,564.5354,0,1.7865,"[{""rating"":2.421875000000001,""responseTime"":1.3360999999939622},{""rating"":0,""responseTime"":1.7864999999999327}]",space,1.7186,,564.5354,Not at all,0,564.5366,,,[],,0,16,16,16,1,audio/Narrative8Situation7.wav,audio/Narrative7Situation7.wav,audio/Narrative6Situation7.wav,audio/Narrative5Situation7.wav,3,5,5,4,,,,,,,,,,,,,,,,,,,,,,,,,,,,,,,,,,,,,,,
,,,,,,656607db0fc2ad7c7b0948fa,2024-05-13_11h53.29.159,group3.1-3.2-social-tom,2023.2.2,Win32,60.60606061,65c5074098b851296ff0b7ed,6642376526b647ce83ce9cd7,,,,,,,,,,,,,,,,,,,,,,,,,,,,,564.5367,1,audio/Narrative8Situation8.wav,567.5531,,567.5533,580.3997,"[[50.4,752],[50.4,834],[50.3,919],[50.2,1000],[50.2,1084],[50.2,1167],[50.2,1251],[50.2,1334],[50.2,1417],[50.2,1501],[50.2,1584],[50.2,1669],[50.2,1751],[50.1,1834],[49.6,1920],[49.5,2002],[48.9,2085],[46.2,2170],[38,2254],[26.5,2337],[21.1,2420],[16.1,2504],[14.5,2587],[12.3,2671],[9.8,2754],[7.6,2838],[4.1,2921],[1.9,3004],[1.4,3087],[1,3171],[0.6,3253],[0.1,3338],[2.7,9927],[11.5,10011],[19.1,10095],[25.7,10178],[28.8,10261],[31,10345],[32,10429],[33.2,10512],[35.2,10595],[36,10679],[37,10762],[37.4,10845],[37.7,10929],[37.7,11011],[37.7,11094],[37.7,11177],[37.7,11261],[37.7,11344],[37.7,11427],[37.7,11511],[37.7,11594],[37.7,11678],[37.7,11761],[37.7,11847],[38.3,11930],[41.4,12013],[44.4,12096],[44.4,12178],[44.4,12262],[44.4,12345],[44.4,12429],[44.4,12512],[44.4,12595],[44.4,12679],[44.4,12762],[44.4,12846]]",1,0,580.3997,582.3033,20.625,1.0021,"[{""rating"":20.625,""responseTime"":1.0020999999940159}]",space,1.3681,,582.3034,Definitely yes,100,582.3045,,,[],,0,17,17,17,1,audio/Narrative8Situation8.wav,audio/Narrative7Situation8.wav,audio/Narrative6Situation8.wav,audio/Narrative5Situation8.wav,3,2,5,3,,,,,,,,,,,,,,,,,,,,,,,,,,,,,,,,,,,,,,,
,,,,,,656607db0fc2ad7c7b0948fa,2024-05-13_11h53.29.159,group3.1-3.2-social-tom,2023.2.2,Win32,60.60606061,65c5074098b851296ff0b7ed,6642376526b647ce83ce9cd7,,,,,,,,,,,,,,,,,,,,,,,,,,,,,582.3046,1,audio/Narrative8Situation9.wav,585.3211,,585.3212,596.6491,"[[50.4,666],[50.3,750],[50.2,833],[50.2,917],[50.2,1000],[50.2,1086],[50.2,1167],[50.2,1251],[50.2,1334],[50.2,1417],[50.2,1501],[50.2,1584],[50.2,1668],[50.2,1751],[50.2,1834],[50.2,1918],[50.2,2002],[50.2,2085],[50.2,2168],[50.2,2253],[50.2,2335],[50.2,2418],[50.2,2502],[50.2,2585],[50.2,2669],[50.2,2752],[50.2,2835],[50.2,2920],[50.2,3002],[50.2,3085],[50.2,3169],[50.2,3253],[50.2,3336],[50.2,3419],[50.2,3503],[50.2,3586],[50.2,3670],[50.2,3753],[50.2,3836],[50.2,3920],[50.2,4003],[50.2,4087],[50.2,4170],[50.2,4254],[50.5,4339],[53.5,4422],[59.1,4505],[60.9,4589],[61.9,4672],[62.1,4755],[62.1,4839],[62.1,4921],[62.1,5004],[62.1,5087],[62.1,5171],[62.1,5254],[62.1,5338],[62.1,5421],[62.1,5504],[62.1,5588],[62.1,5672],[62.1,5755],[62.1,5838],[62.1,5922],[55.2,6007],[43.8,6090],[43.8,6172],[41.9,6257],[36.6,6341],[32.5,6424],[29.9,6508],[26.8,6591],[24.5,6674],[24.4,6759],[24.4,6840],[24.3,6923],[23.7,7008],[23.1,7091],[23.1,7173],[23.1,7257],[23.1,7340],[23.1,7423],[23.1,7507],[23.1,7590],[23.1,7673],[23.1,7757],[23.1,7841],[23.1,7924],[23.1,8008],[23.1,8092],[23.1,8174],[23.1,8258],[23.1,8341],[23.1,8425],[23.1,8508],[23.1,8591],[23.1,8675],[23.1,8758],[23.1,8842],[22.7,8927],[21.4,9010],[21,9094],[21,9176],[21,9259],[21,9342],[21,9425],[21,9509],[20,9594],[19.8,9675],[19.8,9759],[19.8,9843],[19.2,9927],[18.4,10011],[18.3,10093],[18.3,10176],[18.3,10259],[18.3,10343],[18.3,10428],[18.3,10510],[18.3,10593],[18.3,10676],[16.4,10762],[12,10845],[10.5,10928],[9.9,11012],[9.9,11095],[9.9,11177],[9.9,11260]]",1,0,596.6493,599.1848,0,1.9044,"[{""rating"":5.078125,""responseTime"":1.096599999994055},{""rating"":0,""responseTime"":1.9044000000059214}]",space,2.0036,,599.1848,Not at all,0,599.1864,,,[],,0,18,18,18,1,audio/Narrative8Situation9.wav,audio/Narrative7Situation9.wav,audio/Narrative6Situation9.wav,audio/Narrative5Situation9.wav,3,2,4,3,,,,,,,,,,,,,,,,,,,,,,,,,,,,,,,,,,,,,,,
,,,,,,656607db0fc2ad7c7b0948fa,2024-05-13_11h53.29.159,group3.1-3.2-social-tom,2023.2.2,Win32,60.60606061,65c5074098b851296ff0b7ed,6642376526b647ce83ce9cd7,,,,,,,,,,,,,,,,,,,,,,,,,,,601.6375,604.2062,604.2121,2,audio/Narrative13Situation2.wav,604.2122,,604.2122,633.9696,"[[17.1,746],[21.5,829],[24.4,913],[25.1,997],[25.1,1080],[25.1,1162],[25.1,1245],[25.1,1329],[25.1,1412],[25.1,1495],[25.1,1578],[25.1,1662],[25.1,1747],[25.1,1829],[25.1,1912],[24.9,1998],[24.7,2081],[24.5,2164],[24.3,2247],[23.1,2331],[22.4,2414],[22.4,2496],[22.4,2579],[22.3,2665],[22.3,2746],[22.3,2830],[22.3,2913],[22,2996],[20.2,3081],[19.9,3163],[19.9,3247],[19.9,3330],[19.9,3414],[19.9,3497],[19.9,3581],[19.9,3664],[19.9,3748],[19.9,3831],[19.9,3914],[19.9,3998],[19.9,4081],[19.9,4164],[19.8,4250],[19.5,4333],[19,4417],[18.3,4500],[18,4583],[18,4665],[17.9,4751],[17.2,4834],[15.2,4917],[11.4,5000],[7.4,5084],[4.6,5167],[3.6,5251],[3.6,5333],[3.6,5416],[3.6,5499],[3.6,5584],[3.6,5666],[3.6,5750],[3.6,5833],[3.6,5916],[3.6,6001],[3.6,6083],[3.6,6166],[3.6,6252],[3.6,6333],[3.6,6417],[3.6,6502],[3.6,6583],[3.6,6669],[3.6,6751],[3.6,6834],[3.6,6917],[3.6,7001],[3.6,7084],[3.6,7168],[3.6,7251],[3.6,7334],[3.6,7418],[3.6,7501],[3.6,7585],[3.6,7670],[3.6,7752],[3.6,7836],[3.6,7918],[3.6,8002],[3.6,8085],[9.8,8170],[48.4,8253],[93.1,8337],[99,8421],[99,8504],[99.1,8585],[99.4,8671],[99.7,8754],[100,8837],[100,8919],[100,9005],[100,9088],[100,9170],[100,9253],[100,9339],[100,9421],[100,9505],[100,9588],[100,9670],[100,9754],[100,9837],[100,9920],[100,10003],[100,10087],[100,10171],[100,10254],[100,10338],[100,10421],[100,10505],[100,10587],[100,10671],[100,10754],[100,10838],[100,10921],[100,11006],[100,11090],[100,11172],[100,11257],[100,11340],[100,11424],[100,11505],[100,11589],[100,11674],[100,11755],[100,11839],[100,11922],[100,12006],[100,12089],[100,12173],[100,12256],[100,12339],[100,12423],[100,12506],[100,12589],[100,12675],[100,12758],[100,12841],[100,12923],[100,13006],[100,13090],[100,13173],[100,13257],[100,13340],[100,13424],[100,13507],[100,13591],[100,13676],[100,13757],[100,13841],[100,13926],[100,14008],[100,14091],[100,14174],[100,14258],[100,14343],[100,14425],[100,14508],[100,14592],[100,14675],[100,14759],[100,14842],[100,14925],[100,15010],[100,15094],[100,15178],[100,15259],[100,15342],[100,15425],[100,15509],[100,15593],[100,15676],[100,15760],[100,15843],[100,15928],[100,16010],[100,16096],[100,16177],[100,16262],[98.8,16345],[94.4,16428],[90.5,16512],[89.1,16595],[86.9,16679],[85.5,16762],[83.4,16846],[79.6,16929],[78.7,17012],[78.6,17094],[78.6,17178],[78.3,17263],[78,17344],[75.9,17430],[69.8,17513],[66.8,17596],[64.8,17680],[62.3,17763],[59.6,17847],[56.3,17930],[53.8,18013],[53,18097],[52.6,18180],[51.6,18264],[50.9,18347],[50.3,18431],[50.2,18512],[49.7,18597],[48.9,18680],[48.7,18765],[48.4,18848],[46.9,18931],[45.9,19014],[45.1,19098],[44.1,19181],[42.7,19264],[41.6,19349],[40.6,19432],[39.1,19515],[38.1,19598],[37.5,19682],[37.3,19763],[37,19849],[36.5,19932],[36.4,20013],[36.3,20099],[36.1,20182],[35.9,20264],[35.9,20347],[35.6,20433],[35.4,20516],[35.3,20599],[35.3,20683],[35.3,20765],[35.3,20848],[35.3,20931],[35.3,21015],[35.3,21098],[35.2,21182],[34.8,21266],[34,21350],[33.5,21434],[33,21517],[32.8,21600],[32.7,21684],[32.7,21765],[32.5,21849],[32,21934],[31.9,22015],[31.8,22101],[31.7,22183],[31.6,22266],[31.6,22350],[31.6,22433],[31.6,22517],[31.6,22600],[31.6,22685],[31.6,22768],[31.4,22850],[29.4,22935],[27.4,23019],[24.4,23102],[21.2,23185],[19.1,23269],[17.3,23352],[15.1,23435],[10.5,23519],[8.2,23603],[7.3,23686],[6.6,23767],[5.2,23852],[0.2,23936]]",1,0,633.9697,633.9749,,,[],,,,633.9749,Partially,50,633.9757,,,[],,0,0,0,0,1,audio/Narrative13Situation2.wav,audio/Narrative13Situation2.wav,audio/Narrative13Situation2.wav,audio/Narrative13Situation2.wav,2,2,2,2,,,,,599.1867,601.6373,space,1.9225,,,,,,,,,,,,,,,,,,,,,,,,,,,,,,,
,,,,,,656607db0fc2ad7c7b0948fa,2024-05-13_11h53.29.159,group3.1-3.2-social-tom,2023.2.2,Win32,60.60606061,65c5074098b851296ff0b7ed,6642376526b647ce83ce9cd7,,,,,,,,,,,,,,,,,,,,,,,,,,,,,633.9758,2,audio/Narrative5Situation1.wav,638.9912,,638.9912,652.2732,"[[51.4,84],[51.9,168],[52.3,252],[52.5,333],[52.5,416],[52.5,500],[52.6,583],[52.6,667],[52.1,752],[51.7,836],[51.6,917],[51.4,1002],[50.9,1084],[50.5,1169],[50.5,1252],[50.3,1336],[50.1,1419],[50.1,1502],[50.1,1584],[50.1,1668],[50.1,1751],[50.1,1834],[50.1,1918],[50.1,2001],[50.1,2085],[50.1,2168],[50.1,2252],[50.1,2335],[50.1,2419],[50.1,2502],[50.1,2585],[50.1,2669],[50.1,2752],[50.1,2835],[50.1,2919],[50.1,3003],[50.1,3086],[50.1,3170],[50.1,3252],[50.1,3336],[50.1,3420],[50.1,3503],[50.1,3587],[48.4,3671],[41.8,3755],[32.9,3838],[20.9,3922],[10.2,4005],[1.4,4089],[0.8,10178],[10.2,10262],[17.5,10345],[19.9,10428],[23.5,10511],[29.5,10595],[32.9,10679],[37.7,10762],[41.9,10845],[43.7,10929],[45.6,11012],[46.7,11095],[47.7,11179],[48.5,11263],[49.1,11346],[49.2,11427],[49.5,11512],[49.6,11596],[49.7,11678],[49.8,11761],[49.8,11847],[49.8,11928],[49.8,12012],[49.8,12095],[49.8,12178],[49.8,12262],[49.8,12345],[49.8,12429],[49.8,12512],[49.8,12595],[49.8,12678],[49.8,12762],[49.8,12846],[49.8,12929],[49.8,13013],[49.8,13096],[49.8,13179],[49.8,13262]]",1,0,652.2732,656.2415,49.921875,0.8727,"[{""rating"":49.921875,""responseTime"":0.8726999999880718}]",space,3.4283,,656.2415,Definitely yes,100,660.6793,100,3.9054,"[{""rating"":99.84375,""responseTime"":3.1281999999880554},{""rating"":100,""responseTime"":3.9054000000060114}]",space,0,1,1,1,1,audio/Narrative7Situation1.wav,audio/Narrative8Situation1.wav,audio/Narrative5Situation1.wav,audio/Narrative6Situation1.wav,2,5,5,2,,,3.9147,,,,,,,,,,,,,,,,,,,,,,,,,,,,,,,,,,,,
,,,,,,656607db0fc2ad7c7b0948fa,2024-05-13_11h53.29.159,group3.1-3.2-social-tom,2023.2.2,Win32,60.60606061,65c5074098b851296ff0b7ed,6642376526b647ce83ce9cd7,,,,,,,,,,,,,,,,,,,,,,,,,,,,,660.6796,2,audio/Narrative5Situation2.wav,663.684,,663.684,693.1467,"[[999,0],[999,83],[999,167],[999,250],[999,331],[999,417],[999,500],[999,582],[999,667],[999,749],[999,834],[999,917],[999,999],[999,1082],[999,1166],[999,1249],[999,1333],[999,1416],[999,1500],[999,1583],[999,1666],[999,1750],[999,1833],[999,1917],[999,2000],[999,2083],[999,2167],[999,2250],[999,2334],[999,2417],[999,2500],[999,2584],[999,2667],[999,2752],[999,2836],[999,2918],[999,3001],[999,3086],[999,3170],[999,3251],[999,3334],[999,3418],[999,3502],[999,3585],[999,3670],[49.1,3754],[48.9,3837],[48.9,3918],[48.9,4002],[48.9,4085],[48.9,4169],[49.2,4254],[49.3,4335],[49.5,4419],[49.8,4504],[49.8,4586],[49.8,4669],[49.8,4753],[50.2,4838],[50.3,4920],[50.5,5004],[50.7,5086],[50.8,5170],[50.8,5253],[50.8,5337],[50.8,5420],[50.8,5505],[50.8,5587],[50.8,5670],[50.8,5754],[50.8,5837],[50.8,5921],[50.8,6004],[50.8,6089],[50.8,6171],[50.8,6256],[50.8,6338],[50.8,6421],[50.6,6506],[50.5,6588],[50.5,6671],[50.5,6755],[50,6840],[48.8,6923],[45.2,7007],[36.8,7090],[28.1,7174],[25.2,7257],[25.2,7339],[25.2,7422],[25.2,7506],[25.2,7589],[25.2,7672],[25.2,7756],[17.3,7841],[16.7,7923],[16.7,8008],[18,8091],[18.5,8173],[18.5,8256],[18.5,8340],[18.5,8423],[18.5,8506],[18.5,8591],[18.5,8675],[18.5,8757],[18.5,8840],[18.4,8923],[16.2,9009],[16,9090],[16,9173],[16,9257],[16,9340],[16,9424],[16,9508],[16,9591],[16,9674],[16,9758],[16,9841],[16,9924],[16,10010],[14.8,10093],[14.2,10176],[14,10261],[14,10341],[14,10425],[12.5,10510],[10.1,10594],[7.9,10677],[7,10760],[5.9,10844],[5.9,10925],[5.9,11009],[5.9,11092],[5.9,11176],[5.9,11259],[5.9,11342],[5.9,11426],[5.9,11512],[5.9,11593],[5.9,11676],[5.9,11762],[5.9,11843],[5.9,11927],[5.9,12010],[5.9,12093],[5.9,12177],[5.9,12262],[5.9,12343],[6.3,12429],[7.2,12513],[9.1,12596],[15.5,12679],[24.8,12762],[27.1,12846],[27.1,12928],[27.1,13011],[27.1,13095],[27.1,13180],[27.1,13261],[27.1,13345],[27.1,13428],[27.1,13511],[27.1,13595],[27.1,13678],[27.1,13762],[25.5,13847],[21.3,13930],[20.9,14012],[20.9,14095],[20.9,14178],[20.9,14262],[20.9,14346],[20.9,14429],[20.9,14512],[20.9,14596],[20.9,14679],[20.9,14763],[20.9,14846],[20.9,14930],[20.9,15013],[20.9,15096],[20.9,15180],[20.9,15263],[20.9,15347],[20.9,15430],[20.9,15514],[20.9,15597],[20.9,15682],[20.9,15764],[20.9,15847],[20.9,15933],[20.9,16015],[20.9,16097],[20.9,16181],[20.9,16264],[20.9,16348],[20.9,16431],[20.9,16515],[20.9,16598],[20.9,16681],[20.9,16767],[20.9,16848],[20.9,16933],[20.9,17017],[20.9,17099],[20.9,17182],[20.9,17265],[20.9,17349],[20.9,17432],[20.9,17515],[20.9,17599],[19.4,17688],[14.9,17768],[12.3,17851],[11.9,17934],[10.5,18018],[9.6,18101],[8.7,18184],[8,18268],[7.8,18351],[7.8,18433],[7.8,18517],[7.8,18600],[7.8,18683],[7.8,18767],[7.8,18850],[7.8,18933],[7.8,19017],[7.8,19100],[7.8,19184],[7.8,19267],[7.8,19351],[7.8,19434],[7.8,19518],[7.8,19601],[7.8,19684],[7.8,19768],[7.8,19853],[7.8,19934],[7.8,20018],[7.8,20103],[7.8,20184],[7.8,20268],[7.8,20351],[7.8,20435],[7.8,20519],[7.8,20602],[7.8,20686],[7.8,20769],[7.8,20852],[7.8,20935],[7.8,21019],[7.8,21103],[7.8,21186],[7.8,21269],[7.8,21352],[7.8,21436],[7.8,21520],[7.8,21603],[7.8,21686],[7.8,21770],[7.8,21853],[7.8,21937],[7.8,22020],[7.8,22103],[7.8,22187],[7.8,22272],[7.8,22354],[7.8,22437],[7.8,22520],[7.8,22604],[8.8,22689],[11.3,22772],[13.2,22856],[19.6,22940],[24.4,23023],[24.5,23105],[24.5,23188],[24.5,23273],[24.5,23354],[24.5,23438],[24.5,23522],[24.5,23605],[24.5,23688],[24.5,23772],[24.5,23855],[24.5,23939],[24.5,24022],[24.5,24105],[24.5,24189],[24.5,24274],[24.5,24355],[24.5,24439],[24.5,24522],[24.5,24606],[24.5,24690],[24.5,24773],[24.5,24856],[24.5,24940],[24.5,25023],[24.5,25108],[24.5,25192],[24.5,25273],[24.5,25357],[24.5,25440],[24.5,25523],[24.5,25607],[24.5,25692],[24.5,25774],[24.5,25857],[24.5,25940],[24.5,26024],[24.5,26108],[24.5,26191],[24.5,26274],[24.5,26357],[24.5,26441],[24.5,26525],[24.5,26608],[24.5,26692],[24.5,26775],[24.5,26858],[24.5,26942],[24.5,27025],[24.5,27110],[24.5,27192],[24.5,27275],[24.5,27359],[24.5,27444],[24.5,27527],[24.5,27611],[24.5,27694],[24.5,27778],[24.5,27859],[24.5,27942],[24.5,28026],[24.5,28110],[24.5,28193],[24.5,28276],[24.5,28359],[24.5,28445],[24.5,28527],[24.5,28610],[24.5,28693],[24.5,28777],[24.5,28862],[24.5,28943],[24.5,29027],[24.5,29110],[24.5,29194],[24.5,29277],[24.5,29360],[24.5,29444]]",1,0,693.1468,697.0008,5.9375,3.4585,"[{""rating"":5.078125,""responseTime"":1.3227000000179032},{""rating"":0,""responseTime"":1.7635000000000218},{""rating"":5.937500000000001,""responseTime"":3.458499999999958}]",space,3.3199,,697.0009,Definitely yes,100,697.0023,,,[],,0,2,2,2,1,audio/Narrative7Situation2.wav,audio/Narrative8Situation2.wav,audio/Narrative5Situation2.wav,audio/Narrative6Situation2.wav,3,3,3,3,,,,,,,,,,,,,,,,,,,,,,,,,,,,,,,,,,,,,,,
,,,,,,656607db0fc2ad7c7b0948fa,2024-05-13_11h53.29.159,group3.1-3.2-social-tom,2023.2.2,Win32,60.60606061,65c5074098b851296ff0b7ed,6642376526b647ce83ce9cd7,,,,,,,,,,,,,,,,,,,,,,,,,,,,,697.0025,2,audio/Narrative5Situation3.wav,700.0188,,700.0189,713.9324,"[[999,0],[999,82],[999,166],[999,250],[999,333],[999,417],[999,500],[999,583],[999,667],[999,750],[999,835],[999,919],[999,1000],[999,1083],[999,1167],[999,1251],[999,1334],[999,1417],[999,1501],[999,1584],[999,1668],[999,1751],[999,1835],[999,1920],[999,2001],[999,2085],[999,2169],[999,2252],[999,2335],[999,2418],[999,2502],[999,2586],[999,2669],[999,2752],[999,2836],[999,2919],[999,3003],[999,3086],[999,3169],[999,3253],[999,3336],[999,3420],[999,3503],[999,3586],[999,3670],[999,3754],[999,3839],[999,3922],[999,4005],[999,4088],[999,4172],[999,4255],[999,4338],[85.5,4422],[85.7,4506],[85.7,4589],[85.7,4671],[85.7,4756],[85.7,4837],[85.7,4921],[85.7,5004],[85.7,5087],[85.7,5172],[85.7,5255],[85.7,5338],[85.7,5423],[86.3,5507],[93.8,5590],[98,5673],[98.1,5755],[99.5,5840],[99.7,5922],[99.8,6007],[100,6091],[100,6174],[100,6256],[100,6340],[100,6425],[100,6506],[100,6589],[100,6672],[100,6756],[100,6840],[100,6923],[100,7006],[100,7090],[100,7173],[100,7256],[100,7340],[100,7425],[100,7507],[100,7590],[100,7674],[100,7757],[100,7841],[100,7924],[100,8007],[100,8091],[100,8176],[100,8257],[100,8341],[100,8427],[100,8508],[100,8591],[100,8675],[100,8758],[100,8841],[100,8926],[100,9008],[100,9094],[100,9175],[100,9261],[100,9342],[100,9426],[100,9509],[100,9592],[100,9676],[100,9759],[100,9843],[100,9926],[100,10009],[100,10092],[100,10176],[100,10259],[100,10343],[100,10427],[100,10510],[100,10593],[100,10676],[100,10760],[100,10843],[100,10927],[100,11010],[100,11094],[100,11177],[100,11260],[100,11344],[100,11427],[100,11511],[100,11594],[100,11679],[100,11761],[100,11845],[100,11928],[100,12012],[100,12095],[100,12178],[100,12263],[100,12345],[100,12428],[100,12514],[100,12595],[100,12678],[100,12764],[99.6,12847],[96.7,12931],[93.5,13014],[89.1,13097],[86.4,13181],[86.3,13262],[86.3,13346],[86.3,13429],[86.1,13513],[85.9,13596],[85.9,13679],[85.9,13763],[85.9,13846]]",1,0,713.9325,716.6035,85.546875,1.9574,"[{""rating"":85.546875,""responseTime"":1.9573999999762464}]",space,2.1431,,716.6036,Partially,50,716.6049,,,[],,0,3,3,3,1,audio/Narrative7Situation3.wav,audio/Narrative8Situation3.wav,audio/Narrative5Situation3.wav,audio/Narrative6Situation3.wav,8,4,3,5,,,,,,,,,,,,,,,,,,,,,,,,,,,,,,,,,,,,,,,
,,,,,,656607db0fc2ad7c7b0948fa,2024-05-13_11h53.29.159,group3.1-3.2-social-tom,2023.2.2,Win32,60.60606061,65c5074098b851296ff0b7ed,6642376526b647ce83ce9cd7,,,,,,,,,,,,,,,,,,,,,,,,,,,,,716.6049,2,audio/Narrative5Situation4.wav,717.6199,,717.62,738.0237,"[[85.9,251],[86,335],[86.1,416],[86.1,500],[86.1,583],[86.1,666],[86.1,750],[86.1,833],[86,919],[85,1002],[84.3,1085],[83.1,1168],[82.3,1252],[82.2,1334],[82.2,1417],[82.2,1500],[82.2,1584],[82.2,1667],[82.2,1751],[82.2,1834],[79.4,1919],[75.6,2003],[74.7,2086],[74.1,2170],[72.9,2253],[69.1,2336],[67.1,2420],[67.1,2502],[67.1,2585],[67.1,2668],[67.1,2752],[67.1,2835],[67.1,2919],[67.1,3002],[67.1,3085],[67.1,3169],[67.1,3252],[67.1,3336],[67.1,3419],[67.1,3502],[67.1,3586],[67.1,3670],[67.1,3753],[67.1,3836],[67.1,3920],[67.1,4003],[67.1,4086],[67.1,4170],[64.7,4255],[59.7,4338],[58.5,4422],[54.8,4506],[50.5,4589],[49.2,4672],[46.5,4756],[41,4839],[36.8,4922],[33.2,5006],[29.9,5090],[25.1,5173],[19.8,5256],[18,5339],[15.5,5423],[15.3,5504],[13.7,5590],[12.2,5673],[10.6,5757],[7,5840],[6,5923],[6,6005],[5.5,6091],[4.9,6172],[4.7,6257],[4.2,6340],[1.3,6424],[2.3,9844],[9.6,9927],[12.1,10011],[13.1,10094],[14.6,10177],[18.8,10261],[23,10345],[26.7,10428],[32.3,10511],[35.8,10595],[37.4,10678],[39.1,10761],[40.7,10845],[43.2,10929],[45.1,11012],[46,11095],[47,11178],[48,11262],[48.8,11346],[49.1,11427],[49.4,11512],[49.5,11594],[49.7,11680],[49.8,11761],[49.8,11844],[50,11928],[50.1,12011],[50.3,12097],[50.7,12179],[50.8,12262],[50.8,12345],[50.8,12428],[49.9,12513],[49.7,12597],[49.5,12680],[49.5,12763],[49.5,12845],[49.5,12929],[49.5,13012],[49.6,13095],[49.8,13181],[49.8,13263],[49.9,13348],[50.1,13429],[50.1,13513],[50.1,13596],[50.1,13679],[50.1,13763],[50.1,13846],[50.1,13930],[50.1,14013],[50.1,14097],[50.1,14180],[50.1,14264],[50.1,14346],[50.1,14430],[50.1,14514],[50.1,14597],[50.1,14681],[50,14764],[50,14847],[50,14931],[50,15014],[50,15097],[50,15181],[50,15264],[50,15348],[50,15431],[50,15514],[50,15598],[50,15681],[50,15765],[50,15848],[50,15933],[50,16017],[50.1,16098],[50.2,16184],[50.2,16265],[50.2,16351],[50.2,16434],[50.2,16515],[50.2,16599],[50.2,16684],[50.2,16766],[50.2,16849],[50.2,16933],[50.2,17016],[50.2,17100],[50.2,17183],[50.2,17266],[50.2,17350],[50.2,17433],[50.2,17516],[50.2,17600],[50.2,17684],[50.2,17767],[50.2,17851],[50.2,17934],[50.2,18017],[50.2,18101],[50.2,18184],[50.2,18267],[50.2,18351],[50.2,18434],[50.2,18517],[50.2,18601],[50.2,18684],[50.2,18768],[50.2,18851],[50.2,18935],[50.2,19018],[51.3,19103],[53.4,19187],[55.9,19270],[55.9,19352],[55.9,19435],[55.9,19519],[55.9,19602],[55.9,19685],[55.9,19771],[55.9,19852],[55.9,19936],[55.9,20019],[55.9,20103],[55.9,20186],[55.9,20269],[55.9,20353]]",1,0,738.0239,741.3099,61.953125,1.4259,"[{""rating"":61.953125,""responseTime"":1.4259000000058677}]",space,2.7409,,741.31,Definitely yes,100,741.3124,,,[],,0,4,4,4,1,audio/Narrative7Situation4.wav,audio/Narrative8Situation4.wav,audio/Narrative5Situation4.wav,audio/Narrative6Situation4.wav,3,3,1,2,,,,,,,,,,,,,,,,,,,,,,,,,,,,,,,,,,,,,,,
,,,,,,656607db0fc2ad7c7b0948fa,2024-05-13_11h53.29.159,group3.1-3.2-social-tom,2023.2.2,Win32,60.60606061,65c5074098b851296ff0b7ed,6642376526b647ce83ce9cd7,,,,,,,,,,,,,,,,,,,,,,,,,,,,,741.3127,2,audio/Narrative5Situation5.wav,746.3148,,746.3149,761.732,"[[62.3,1002],[62.2,1084],[62.2,1167],[62.2,1251],[62.2,1334],[62.2,1418],[62.2,1501],[62.2,1586],[62.2,1668],[62.2,1751],[62.2,1835],[62.2,1918],[62.2,2001],[62.2,2085],[62.2,2168],[62.2,2252],[62.2,2335],[62.2,2419],[62.2,2502],[62.2,2587],[62.2,2669],[62.2,2752],[62.2,2836],[62.2,2920],[62.2,3003],[62.2,3086],[57.3,3171],[48.7,3254],[39.5,3338],[31.9,3421],[25.9,3505],[23.6,3588],[21.2,3672],[19.1,3755],[17.5,3838],[17.3,3922],[17.3,4003],[17.3,4087],[17.3,4170],[17.3,4254],[17.3,4337],[17.3,4423],[17.3,4504],[17.3,4589],[17.3,4671],[17.3,4754],[17.3,4840],[17.3,4924],[17.3,5006],[17.3,5090],[17.3,5171],[17.3,5254],[17.3,5339],[17.3,5421],[17.3,5505],[17.3,5588],[17.3,5672],[17.3,5755],[17.3,5839],[17.3,5922],[17.3,6006],[17.3,6089],[17.3,6173],[17.3,6256],[17.3,6339],[17.1,6424],[16.7,6508],[15.8,6592],[15.2,6675],[14.5,6758],[13.8,6841],[13.2,6925],[12.6,7009],[12.3,7090],[12.3,7173],[12.3,7257],[12.3,7341],[12.3,7424],[12.3,7507],[12.3,7590],[12.3,7674],[12.3,7757],[12.3,7841],[12.3,7924],[12.3,8007],[12.3,8091],[12.3,8176],[12.3,8258],[12.3,8341],[12.3,8425],[12.3,8508],[12.3,8591],[12.3,8675],[12.3,8759],[12.3,8842],[12.3,8925],[12.3,9009],[12.3,9092],[12.3,9175],[12.3,9261],[12.3,9342],[12.3,9427],[12.3,9509],[12.3,9592],[12.3,9676],[12.3,9761],[12.3,9843],[12.3,9928],[12.3,10009],[12.3,10093],[12.3,10177],[12.3,10260],[12.3,10343],[12.3,10427],[12.3,10510],[12.3,10593],[12.3,10677],[12.3,10760],[12.3,10844],[12.3,10927],[12.3,11011],[12.3,11094],[12.3,11178],[12.3,11261],[12.3,11344],[12.3,11428],[12.3,11511],[12.3,11596],[12.3,11677],[12.3,11761],[12.3,11844],[12.3,11928],[12.3,12012],[12.3,12095],[12.3,12178],[12.3,12263],[12.3,12347],[12.3,12428],[12.3,12513],[12.3,12595],[12.3,12679],[12.3,12762],[12.3,12846],[12.3,12931],[12.3,13014],[12.3,13098],[12.3,13179],[12.3,13263],[12.3,13347],[12.3,13430],[12.3,13513],[12.3,13596],[12.3,13681],[12.3,13763],[12.3,13847],[12.3,13930],[12.3,14013],[12.3,14097],[12.3,14180],[12.3,14265],[13.6,14349],[22.7,14433],[34.1,14516],[50.6,14599],[60,14683],[61.5,14766],[63.3,14850],[63.4,14931],[63.4,15017],[63.4,15098],[63.4,15181],[63.4,15265],[63.4,15348]]",1,0,761.7321,764.2159,49.84375,1.4299,"[{""rating"":49.84375,""responseTime"":1.4298999999761008}]",space,1.946,,764.216,Definitely yes,100,764.2168,,,[],,0,5,5,5,1,audio/Narrative7Situation5.wav,audio/Narrative8Situation5.wav,audio/Narrative5Situation5.wav,audio/Narrative6Situation5.wav,5,2,5,2,,,,,,,,,,,,,,,,,,,,,,,,,,,,,,,,,,,,,,,
,,,,,,656607db0fc2ad7c7b0948fa,2024-05-13_11h53.29.159,group3.1-3.2-social-tom,2023.2.2,Win32,60.60606061,65c5074098b851296ff0b7ed,6642376526b647ce83ce9cd7,,,,,,,,,,,,,,,,,,,,,,,,,,,,,764.2169,2,audio/Narrative5Situation6.wav,767.2217,,767.2218,772.9086,"[[61.9,80],[60.4,166],[58.5,249],[57.7,332],[56.5,416],[56.5,497],[56.5,581],[52.4,666],[49.9,750],[49.9,831],[49.9,916],[49.9,998],[49.9,1081],[49.9,1165],[49.9,1248],[49.9,1333],[49.9,1415],[49.9,1500],[49.9,1582],[49.9,1665],[49.9,1748],[49.9,1834],[49.9,1916],[49.9,1999],[50,2084],[50,2165],[50.1,2249],[50.2,2335],[50.2,2416],[50.2,2500],[50.2,2583],[50.2,2667],[50.2,2749],[50.2,2833],[50.3,2916],[50.3,3000],[50.3,3083],[50.3,3167],[50.4,3250],[50.5,3333],[50.5,3417],[50.5,3500],[50.8,3587],[50.9,3669],[50.9,3751],[51,3834],[51.1,3920],[51.2,4003],[53.2,4086],[59.8,4169],[66.9,4253],[68.8,4336],[71,4420],[74.2,4503],[76.3,4587],[76.6,4670],[76.6,4752],[76.6,4835],[76.6,4918],[76.6,5002],[76.6,5086],[76.6,5169],[76.6,5252],[76.6,5335],[76.6,5419],[76.6,5502],[76.6,5586],[76.6,5669]]",1,0,772.9087,775.8964,87.421875,2.4369,"[{""rating"":87.421875,""responseTime"":2.4369000000059486}]",space,2.4529,,775.8964,Partially,50,775.8977,,,[],,0,6,6,6,1,audio/Narrative7Situation6.wav,audio/Narrative8Situation6.wav,audio/Narrative5Situation6.wav,audio/Narrative6Situation6.wav,3,2,3,2,,,,,,,,,,,,,,,,,,,,,,,,,,,,,,,,,,,,,,,
,,,,,,656607db0fc2ad7c7b0948fa,2024-05-13_11h53.29.159,group3.1-3.2-social-tom,2023.2.2,Win32,60.60606061,65c5074098b851296ff0b7ed,6642376526b647ce83ce9cd7,,,,,,,,,,,,,,,,,,,,,,,,,,,,,775.8978,2,audio/Narrative5Situation7.wav,779.8996,,779.8996,800.9542,"[[999,4],[999,82],[999,165],[999,249],[999,332],[999,416],[999,499],[999,582],[999,666],[999,749],[999,832],[999,916],[999,1000],[999,1083],[999,1166],[999,1251],[999,1333],[999,1418],[999,1502],[999,1585],[999,1668],[999,1752],[999,1835],[999,1918],[999,2000],[999,2085],[999,2169],[999,2251],[999,2336],[999,2419],[999,2503],[999,2584],[86.4,2670],[85.9,2751],[86.3,2836],[86.4,2920],[86.4,3002],[84.5,3086],[82,3170],[80.5,3253],[79.5,3337],[79.5,3420],[79.5,3502],[79.5,3585],[79.5,3671],[79.5,3752],[79.5,3835],[79.5,3919],[79.5,4002],[79.5,4086],[79.5,4169],[79.5,4252],[79.5,4336],[79.5,4419],[79.5,4503],[79.5,4586],[79.5,4670],[79.5,4753],[79.5,4836],[79.5,4920],[79.5,5005],[79.5,5086],[79.5,5171],[79.5,5254],[79.5,5337],[79.5,5420],[79.5,5504],[79.5,5587],[79.5,5670],[79.5,5754],[79.5,5837],[79.5,5921],[79.5,6004],[79.5,6087],[80.9,6173],[83.2,6256],[85.2,6340],[86.3,6423],[88,6507],[89.5,6590],[90,6673],[90.7,6756],[91,6838],[91.3,6922],[91.8,7007],[92,7088],[92,7172],[92,7255],[92,7339],[92,7423],[92,7508],[92,7589],[92,7673],[92,7756],[92,7839],[92,7923],[92,8006],[92,8090],[92.1,8175],[92.2,8256],[92.3,8340],[92.4,8423],[92.5,8507],[92.5,8590],[92.5,8674],[92.5,8757],[92.5,8842],[92.5,8925],[92.5,9007],[92.5,9091],[92.5,9176],[92.5,9258],[92.5,9341],[92.6,9424],[92.7,9510],[92.8,9591],[93,9675],[93.3,9760],[93.8,9843],[93.9,9927],[93.9,10008],[93.9,10092],[93.9,10175],[93.9,10258],[93.9,10342],[93.9,10426],[93.9,10509],[93.9,10592],[93.9,10676],[93.9,10759],[93.9,10843],[93.9,10926],[93.9,11009],[93.9,11095],[93.9,11176],[93.9,11261],[93.9,11343],[93.9,11426],[93.9,11510],[93.9,11595],[93.9,11677],[93.9,11760],[93.9,11843],[93.9,11927],[93.9,12010],[93.9,12096],[93.9,12177],[93.9,12261],[93.9,12344],[93.4,12430],[93.2,12512],[93.2,12594],[93,12680],[92.5,12763],[91.7,12846],[90.5,12930],[89.7,13013],[89.7,13095],[89.7,13178],[89.7,13262],[89.6,13345],[89.3,13430],[88.8,13514],[88.7,13595],[88.7,13679],[88.7,13762],[88.7,13846],[88.7,13931],[88.7,14012],[88.7,14096],[88.7,14179],[88.7,14263],[88.7,14346],[88.7,14432],[88.4,14514],[87.7,14598],[85.2,14684],[83,14765],[82.4,14848],[82.3,14931],[82,15015],[81.2,15098],[80.9,15182],[80.9,15264],[80.8,15347],[80.1,15432],[80.1,15514],[80.1,15597],[79.1,15682],[78.1,15766],[78,15849],[78,15933],[77.8,16014],[77.2,16099],[76.9,16181],[76.3,16267],[74.6,16350],[71.6,16433],[69.1,16516],[67,16600],[65.5,16683],[63.8,16767],[62.9,16850],[62.1,16934],[61.3,17017],[59.9,17100],[59.1,17184],[57.4,17268],[54.5,17351],[52.4,17434],[50.3,17517],[49.5,17601],[48.2,17684],[45.5,17768],[42.7,17851],[38.7,17935],[35.3,18018],[32,18101],[29.1,18184],[27,18269],[24.2,18352],[22,18435],[20.8,18518],[20.5,18600],[19.8,18685],[18.8,18769],[18.5,18852],[18,18934],[17.6,19019],[17.1,19103],[16.6,19186],[16.4,19270],[15.9,19353],[15.7,19436],[15.2,19520],[14.8,19604],[14.2,19687],[14.1,19768],[13.9,19853],[13.8,19935],[13.6,20018],[13.5,20103],[13.5,20185],[13.5,20268],[13.5,20352],[13.5,20435],[13.5,20519],[13.5,20602],[13.5,20686],[13.5,20769],[13.5,20852],[13.5,20936],[13.2,21021]]",1,0,800.9543,804.5579,62.265625,1.7597,"[{""rating"":62.265625,""responseTime"":1.759699999988129}]",space,3.054,,804.5579,Not at all,0,804.559,,,[],,0,7,7,7,1,audio/Narrative7Situation7.wav,audio/Narrative8Situation7.wav,audio/Narrative5Situation7.wav,audio/Narrative6Situation7.wav,5,3,4,5,,,,,,,,,,,,,,,,,,,,,,,,,,,,,,,,,,,,,,,
,,,,,,656607db0fc2ad7c7b0948fa,2024-05-13_11h53.29.159,group3.1-3.2-social-tom,2023.2.2,Win32,60.60606061,65c5074098b851296ff0b7ed,6642376526b647ce83ce9cd7,,,,,,,,,,,,,,,,,,,,,,,,,,,,,804.5592,2,audio/Narrative5Situation8.wav,807.5597,,807.5597,816.4019,"[[999,4],[999,83],[999,166],[999,250],[999,333],[999,416],[999,500],[999,585],[999,666],[999,752],[999,834],[999,917],[999,1000],[999,1085],[999,1169],[999,1252],[999,1336],[999,1417],[999,1500],[999,1586],[999,1669],[999,1753],[999,1836],[999,1918],[999,2001],[999,2085],[999,2168],[999,2252],[999,2335],[999,2418],[999,2502],[999,2586],[999,2670],[999,2754],[999,2837],[999,2920],[999,3004],[999,3087],[999,3170],[999,3254],[999,3338],[999,3419],[999,3504],[999,3588],[999,3672],[999,3755],[999,3838],[999,3922],[999,4005],[999,4088],[999,4172],[999,4255],[21.6,4339],[21.5,4422],[21.5,4504],[21.5,4588],[21.5,4672],[21.5,4756],[21.5,4839],[21.5,4921],[21.5,5005],[21.5,5087],[21.5,5171],[21.5,5255],[21.5,5338],[21.5,5421],[21.5,5507],[21.5,5588],[20.2,5673],[19,5756],[18.5,5840],[18.4,5922],[18.4,6005],[18.4,6088],[18.4,6172],[16.8,6257],[16,6339],[16,6424],[16,6508],[15.6,6591],[14,6674],[7.2,6757],[0.2,6842]]",1,0,816.4021,818.4562,0,1.786,"[{""rating"":0.3124999999999989,""responseTime"":1.0957999999820913},{""rating"":0,""responseTime"":1.7860000000000582}]",space,1.5185,,818.4562,Not at all,0,818.4569,,,[],,0,8,8,8,1,audio/Narrative7Situation8.wav,audio/Narrative8Situation8.wav,audio/Narrative5Situation8.wav,audio/Narrative6Situation8.wav,2,3,3,5,,,,,,,,,,,,,,,,,,,,,,,,,,,,,,,,,,,,,,,
,,,,,,656607db0fc2ad7c7b0948fa,2024-05-13_11h53.29.159,group3.1-3.2-social-tom,2023.2.2,Win32,60.60606061,65c5074098b851296ff0b7ed,6642376526b647ce83ce9cd7,,,,,,,,,,,,,,,,,,,,,,,,,,,,,818.457,2,audio/Narrative5Situation9.wav,821.4731,,821.4731,861.0294,"[[13,1419],[10.2,1503],[8,1586],[7.3,1670],[6.6,1753],[3.9,1836],[2.3,1920],[1.3,2004],[0.4,2087],[0.5,5173],[5.2,5257],[8.6,5340],[11.6,5423],[15.7,5507],[19.7,5590],[22.1,5674],[23.2,5757],[25,5841],[25.6,5924],[25.9,6005],[25.9,6089],[25.9,6172],[25.9,6256],[25.9,6339],[25.9,6423],[25.9,6506],[25.9,6590],[25.9,6673],[25.9,6756],[25.9,6840],[25.9,6924],[25.9,7007],[25.9,7090],[25.9,7173],[25.9,7257],[25.9,7340],[25.9,7424],[25.9,7509],[25.9,7590],[25.9,7676],[25.9,7757],[25.9,7841],[25.9,7924],[25.9,8008],[25.9,8091],[25.9,8175],[25.9,8258],[25.9,8341],[25.9,8424],[25.9,8508],[25.9,8591],[25.9,8675],[25.9,8759],[25.9,8844],[25.9,8926],[25.9,9009],[25.9,9092],[25.9,9176],[25.9,9259],[25.9,9342],[25.9,9426],[25.9,9509],[25.9,9592],[25.9,9676],[25.9,9760],[25.9,9842],[25.9,9926],[25.9,10010],[25.9,10093],[25.9,10176],[25.9,10260],[25.9,10343],[25.9,10427],[25.9,10510],[25.9,10594],[25.9,10677],[25.9,10761],[25.9,10844],[25.9,10927],[26.5,11017],[26.5,11094],[26.5,11177],[26.5,11261],[26.5,11344],[26.5,11428],[26.5,11511],[26.5,11595],[26.5,11678],[26.5,11761],[26.5,11845],[26.5,11928],[26.5,12012],[26.5,12095],[26.5,12178],[26.5,12262],[26.5,12346],[26.5,12429],[26.5,12513],[26.5,12596],[26.5,12679],[26.5,12763],[26.5,12846],[26.5,12929],[26.5,13012],[26.5,13096],[26.5,13179],[26.5,13263],[26.5,13346],[26.5,13430],[26.5,13513],[26.5,13597],[26.5,13682],[26.5,13763],[26.5,13847],[26.5,13930],[26.5,14014],[26.5,14097],[26.5,14181],[26.5,14264],[26.5,14347],[26.5,14431],[26.5,14514],[26.5,14600],[26.5,14681],[26.5,14764],[26.5,14848],[26.5,14931],[26.5,15015],[26.5,15098],[26.5,15182],[26.5,15265],[26.5,15348],[26.5,15432],[26.5,15515],[26.5,15599],[26.5,15682],[26.5,15765],[26.5,15849],[26.5,15932],[26.5,16016],[26.5,16099],[26.5,16183],[26.5,16268],[26.5,16349],[26.5,16433],[26.5,16516],[26.5,16600],[26.5,16683],[26.5,16766],[26.5,16850],[26.5,16933],[26.5,17017],[26.5,17100],[26.5,17183],[26.5,17269],[26.5,17351],[26.5,17434],[26.5,17518],[26.5,17601],[26.5,17684],[26.5,17767],[26.5,17851],[26.5,17934],[26.5,18018],[26.5,18101],[26.5,18185],[26.5,18268],[26.5,18352],[26.5,18435],[26.5,18520],[26.5,18602],[26.5,18685],[26.5,18769],[26.5,18852],[26.5,18935],[26.5,19019],[26.5,19102],[26.5,19186],[26.5,19271],[26.5,19352],[26.5,19435],[26.5,19519],[26.5,19602],[26.5,19686],[26.5,19769],[26.5,19853],[26.5,19936],[26.5,20019],[26.5,20103],[26.5,20187],[26.5,20270],[26.5,20353],[26.5,20437],[26.5,20520],[26.5,20605],[26.5,20687],[26.5,20770],[26.5,20854],[26.5,20937],[26.5,21021],[26.5,21106],[26.5,21187],[26.5,21271],[26.5,21354],[26.5,21438],[26.5,21521],[26.5,21605],[26.5,21688],[26.5,21772],[26.5,21855],[26.5,21938],[26.5,22022],[26.5,22105],[26.5,22189],[26.5,22272],[26.5,22356],[26.5,22439],[26.5,22522],[26.5,22605],[26.5,22689],[26.5,22772],[26.5,22856],[26.5,22939],[26.5,23022],[26.5,23106],[26.5,23189],[26.5,23273],[26.5,23356],[26.5,23440],[26.5,23523],[26.5,23607],[26.5,23690],[26.5,23773],[26.5,23857],[26.5,23940],[26.5,24024],[26.5,24107],[26.5,24191],[26.5,24274],[26.5,24358],[26.5,24441],[26.5,24524],[26.5,24608],[26.5,24691],[26.5,24774],[26.5,24858],[26.5,24941],[26.5,25024],[26.5,25108],[26.5,25193],[26.5,25275],[26.5,25359],[26.5,25442],[26.5,25525],[26.5,25609],[26.5,25692],[26.5,25775],[26.5,25859],[26.5,25942],[26.5,26026],[26.5,26111],[26.5,26193],[26.5,26276],[26.5,26360],[26.5,26443],[26.5,26526],[26.5,26610],[26.5,26693],[26.5,26777],[26.5,26860],[26.5,26943],[26.5,27027],[26.5,27110],[26.5,27195],[26.5,27277],[26.5,27362],[26.5,27443],[26.5,27527],[26.5,27611],[26.5,27696],[26.5,27778],[26.5,27860],[26.5,27946],[26.5,28028],[26.5,28111],[26.5,28194],[26.5,28278],[26.5,28361],[26.5,28444],[26.5,28528],[26.5,28612],[26.5,28695],[26.5,28779],[26.5,28862],[26.5,28945],[26.5,29030],[26.5,29112],[26.5,29196],[26.5,29279],[26.5,29362],[26.5,29446],[26.5,29529],[26.5,29612],[26.5,29696],[26.5,29779],[26.5,29862],[26.5,29946],[26.5,30031],[26.5,30113],[26.5,30196],[26.5,30280],[26.5,30364],[26.5,30447],[26.5,30530],[26.5,30614],[26.5,30697],[26.5,30780],[26.5,30864],[26.5,30947],[28.4,31033],[31.3,31115],[40.4,31199],[47.1,31283],[52.8,31366],[57.1,31450],[62.6,31533],[66.3,31616],[69.1,31699],[73.3,31783],[77.7,31867],[78.4,31950],[78.4,32031],[78.4,32115],[78.4,32199],[78.4,32282],[78.4,32365],[78.4,32449],[78.4,32532],[78.4,32617],[78.4,32699],[78.4,32782],[78.4,32866],[78.4,32949],[78.4,33034],[78.4,33116],[78.4,33200],[78.4,33283],[78.4,33366],[78.4,33450],[78.4,33533],[78.4,33617],[78.4,33700],[78.4,33783],[78.4,33867],[78.4,33950],[78.4,34035],[78.4,34117],[78.4,34200],[78.4,34284],[78.4,34367],[78.4,34451],[78.4,34534],[78.4,34618],[78.4,34701],[78.4,34784],[78.4,34870],[78.4,34951],[78.4,35034],[78.4,35118],[78.4,35201],[78.4,35285],[78.4,35368],[78.4,35452],[78.4,35535],[78.4,35619],[78.4,35702],[78.4,35785],[78.4,35869],[78.4,35952],[78.4,36035],[78.4,36119],[78.4,36202],[78.4,36286],[78.4,36370],[78.4,36453],[78.4,36536],[78.4,36620],[78.4,36703],[78.4,36786],[78.4,36870],[78.4,36953],[78.4,37037],[78.4,37120],[78.4,37204],[77.4,37289],[77.4,37372],[76.6,37455],[76.6,37537],[76.6,37620],[76.6,37704],[75.2,37789],[73.1,37872],[71.9,37956],[71.2,38040],[70.5,38123],[69.9,38206],[69.5,38290],[69,38373],[68.9,38455],[68.8,38538],[68.8,38624],[68.8,38705],[68.8,38788],[68.8,38872],[68.8,38957],[68.8,39039],[68.8,39122],[68.8,39205],[68,39291],[67,39374],[66.8,39457],[66.6,39539]]",1,0,861.0297,864.516,58.28125,1.7161,"[{""rating"":58.28124999999999,""responseTime"":1.7160999999940714}]",space,2.9507,,864.5161,Not at all,0,864.517,,,[],,0,9,9,9,1,audio/Narrative7Situation9.wav,audio/Narrative8Situation9.wav,audio/Narrative5Situation9.wav,audio/Narrative6Situation9.wav,2,3,3,4,,,,,,,,,,,,,,,,,,,,,,,,,,,,,,,,,,,,,,,
,,,,,,656607db0fc2ad7c7b0948fa,2024-05-13_11h53.29.159,group3.1-3.2-social-tom,2023.2.2,Win32,60.60606061,65c5074098b851296ff0b7ed,6642376526b647ce83ce9cd7,,,,,,,,,,,,,,,,,,,,,,,,,,,,,864.5171,2,audio/Narrative6Situation1.wav,866.5186,,866.5186,893.1113,"[[45.3,3171],[33,3254],[21.6,3338],[20.3,3421],[20.2,3504],[19.8,3586],[19.8,3670],[19.8,3753],[19.8,3836],[19.8,3919],[19.8,4003],[19.8,4088],[19.8,4170],[19.8,4256],[19.8,4337],[19.8,4420],[19.8,4504],[19.8,4589],[19.8,4670],[19.8,4756],[19.8,4838],[19.8,4920],[19.8,5004],[19.8,5087],[19.8,5171],[19.8,5255],[19.8,5338],[19.8,5421],[19.8,5505],[19.8,5590],[19.8,5672],[23.2,5757],[33.7,5840],[47.2,5924],[62.2,6007],[75.7,6090],[85.6,6173],[86.4,6257],[89.2,6341],[97,6424],[100,6507],[100,6592],[100,6673],[100,6756],[100,6840],[100,6925],[100,7006],[100,7089],[100,7173],[100,7257],[100,7340],[100,7423],[100,7507],[100,7592],[100,7675],[100,7759],[100,7840],[100,7924],[100,8007],[100,8092],[100,8174],[100,8257],[100,8341],[100,8424],[100,8507],[100,8591],[100,8675],[100,8758],[100,8841],[100,8925],[100,9008],[100,9092],[100,9175],[100,9258],[100,9342],[100,9425],[100,9509],[100,9592],[100,9676],[100,9759],[100,9843],[100,9926],[100,10010],[100,10093],[100,10176],[100,10261],[100,10343],[100,10427],[100,10510],[100,10593],[100,10677],[100,10760],[100,10843],[100,10927],[100,11010],[100,11094],[100,11177],[100,11261],[100,11344],[100,11427],[100,11512],[99,11600],[95.9,11679],[93.2,11763],[90.5,11846],[86.9,11929],[80.1,12013],[73.5,12097],[67.8,12180],[63.8,12263],[59.9,12346],[56.2,12430],[54,12513],[52.3,12597],[50,12680],[49.1,12764],[49.1,12845],[49.1,12929],[49.2,13012],[49.6,13095],[49.6,13179],[49.8,13262],[50.2,13347],[50.3,13430],[50.3,13513],[50.3,13596],[50.3,13679],[50.3,13763],[50.3,13846],[50.3,13930],[50.3,14013],[50.3,14096],[50.3,14180],[50.3,14263],[50.3,14347],[50.3,14430],[50.3,14514],[50.3,14597],[50.3,14681],[50.3,14764],[50.3,14847],[50.3,14931],[50.3,15014],[52,15100],[55.3,15183],[55.5,15264],[55.5,15348],[56.5,15433],[58.5,15516],[61.6,15600],[62,15684],[64.6,15767],[79.9,15850],[81.7,15932],[81.7,16017],[81.7,16098],[81.7,16182],[81.1,16268],[79.7,16351],[78.1,16434],[76.9,16517],[76,16600],[75.2,16685],[75.1,16766],[75.1,16849],[75.1,16934],[75.1,17016],[75.1,17099],[75.1,17183],[75.1,17266],[75.1,17350],[75.1,17433],[75.1,17516],[75.1,17600],[75.1,17683],[75.1,17767],[75.1,17850],[75.1,17936],[75.1,18017],[75.1,18101],[75.1,18184],[75.1,18267],[75.1,18351],[75.1,18434],[75.1,18517],[75.1,18601],[75.1,18686],[75.1,18768],[75.1,18851],[75.1,18935],[75.1,19018],[75.1,19101],[75.1,19185],[75.1,19268],[75.1,19352],[75.1,19435],[75.1,19518],[75.1,19602],[75.1,19685],[75.1,19769],[75.1,19852],[75.1,19936],[75.1,20019],[75.1,20103],[75.1,20188],[75.1,20270],[75.1,20353],[75.1,20436],[75.1,20519],[75.1,20603],[75.1,20687],[75.1,20770],[75.1,20854],[75.1,20937],[75.1,21020],[75.1,21105],[75.1,21187],[75.1,21270],[75.1,21354],[75.1,21437],[77.3,21523],[79.7,21606],[80.2,21687],[80.9,21772],[82,21856],[82.7,21939],[83,22023],[83.2,22106],[83.4,22188],[83.4,22272],[83.4,22355],[83.4,22438],[85.8,22523],[85.9,22605],[85.9,22689],[85.9,22772],[85.9,22858],[85.9,22938],[85.9,23022],[85.9,23105],[85.9,23189],[86.8,23274],[87.9,23357],[88.3,23441],[88.9,23525],[89.4,23608],[89.4,23690],[89.4,23773],[89.4,23856],[89.4,23939],[89.4,24023],[89.4,24106],[89.4,24190],[89.4,24273],[89.4,24357],[89.4,24441],[89.4,24526],[89.4,24607],[89.4,24691],[89.4,24776],[89.4,24859],[89.4,24941],[89.4,25024],[89.4,25107],[89.4,25191],[89.4,25275],[89.4,25358],[89.4,25441],[89.4,25525],[89.4,25608],[89.4,25692],[89.4,25775],[89.4,25858],[89.4,25942],[89.4,26025],[89.4,26108],[89.4,26192],[89.8,26277],[89.8,26359],[89.8,26444],[89.8,26526]]",1,0,893.1114,894.7649,85.390625,0.6833,"[{""rating"":85.390625,""responseTime"":0.6833000000118545}]",space,1.1355,,894.7649,Definitely yes,100,894.766,,,[],,0,10,10,10,1,audio/Narrative8Situation1.wav,audio/Narrative7Situation1.wav,audio/Narrative6Situation1.wav,audio/Narrative5Situation1.wav,5,2,2,5,,,,,,,,,,,,,,,,,,,,,,,,,,,,,,,,,,,,,,,
,,,,,,656607db0fc2ad7c7b0948fa,2024-05-13_11h53.29.159,group3.1-3.2-social-tom,2023.2.2,Win32,60.60606061,65c5074098b851296ff0b7ed,6642376526b647ce83ce9cd7,,,,,,,,,,,,,,,,,,,,,,,,,,,,,894.7662,2,audio/Narrative6Situation2.wav,897.783,,897.783,926.2776,"[[999,0],[999,83],[999,166],[999,250],[999,333],[999,417],[999,502],[999,583],[999,667],[999,750],[999,836],[999,917],[999,1000],[999,1084],[999,1167],[999,1251],[999,1334],[999,1418],[999,1501],[999,1584],[999,1668],[999,1751],[999,1835],[999,1918],[999,2001],[999,2084],[999,2168],[999,2252],[999,2335],[999,2418],[999,2502],[999,2585],[999,2669],[999,2752],[999,2835],[999,2919],[999,3002],[999,3085],[999,3169],[999,3252],[999,3336],[999,3419],[999,3502],[999,3586],[999,3670],[999,3753],[999,3837],[999,3920],[999,4005],[999,4087],[999,4170],[999,4255],[999,4338],[999,4422],[999,4505],[999,4589],[999,4672],[999,4756],[999,4839],[999,4922],[999,5006],[999,5089],[999,5173],[999,5256],[999,5339],[999,5421],[999,5505],[999,5589],[999,5673],[999,5757],[999,5840],[999,5923],[999,6007],[999,6091],[999,6172],[999,6255],[999,6339],[999,6423],[999,6508],[999,6589],[999,6673],[999,6756],[999,6841],[999,6924],[999,7008],[999,7092],[999,7175],[999,7258],[999,7342],[999,7425],[21.6,7509],[22.1,7591],[22.3,7676],[22.3,7759],[22.3,7841],[22.3,7924],[22.3,8009],[22.3,8091],[22.3,8174],[22.3,8259],[22.3,8341],[22.3,8424],[22.3,8507],[22.3,8591],[22.3,8674],[22,8760],[22,8841],[22,8924],[22,9010],[22,9092],[22,9175],[22,9259],[22,9342],[22,9426],[22,9510],[22,9592],[22,9676],[22,9759],[22,9842],[22,9926],[22,10009],[22,10092],[22,10177],[22,10260],[22,10343],[22,10426],[22,10510],[22,10595],[22,10677],[22,10760],[22,10843],[22,10927],[22,11010],[22.3,11095],[22.3,11179],[22.3,11261],[22.3,11344],[22.3,11427],[22.3,11511],[22.3,11594],[22.3,11678],[22.3,11761],[22.3,11844],[22.3,11928],[22.3,12011],[22.3,12094],[22.3,12178],[22.3,12261],[22.3,12345],[22.3,12428],[22.3,12512],[22.3,12597],[22.3,12679],[22.3,12762],[22.3,12846],[22.3,12931],[22.3,13012],[22.3,13095],[22.3,13179],[22.3,13263],[22.3,13346],[22.3,13429],[22.3,13513],[22.3,13596],[22.3,13680],[22.3,13763],[22.3,13847],[22.3,13930],[22.3,14014],[22.3,14096],[22.3,14180],[22.3,14264],[22.3,14347],[22.3,14431],[22.3,14514],[22.3,14597],[22.3,14681],[22.3,14764],[22.3,14848],[22.3,14931],[22.3,15014],[22.3,15098],[22.3,15181],[22.3,15264],[22.3,15348],[22.3,15431],[22.3,15517],[22.3,15598],[22.3,15683],[22.3,15765],[22.3,15848],[22.3,15932],[22.3,16015],[22.3,16098],[22.3,16182],[22.3,16267],[22.3,16349],[22.3,16432],[22.3,16515],[22.3,16599],[22.3,16683],[22.3,16766],[22.3,16850],[22.3,16933],[22.3,17016],[22.3,17101],[22.3,17183],[22.3,17267],[22.3,17350],[22.3,17433],[22.3,17517],[22.3,17600],[22.3,17683],[22.3,17767],[22.3,17850],[22.3,17934],[22.3,18017],[22.3,18102],[22.3,18184],[22.3,18267],[22.3,18351],[22.3,18434],[22.3,18518],[22.3,18601],[22.3,18685],[22.3,18768],[22.3,18851],[22.3,18935],[22.3,19018],[22.3,19102],[22.3,19185],[22.3,19269],[22.3,19352],[22.3,19435],[22.3,19519],[22.3,19602],[22.3,19685],[22.3,19769],[22.3,19852],[22.3,19936],[22.3,20021],[22.3,20104],[22.3,20186],[22.3,20270],[22.3,20353],[22.3,20436],[22.3,20520],[22.3,20603],[22.3,20686],[22.3,20772],[22.3,20853],[22.3,20939],[22.3,21021],[22.3,21104],[22.3,21188],[22.3,21272],[22.3,21354],[22.3,21437],[22.3,21522],[22.3,21604],[22.3,21687],[22.3,21771],[22.3,21854],[22.3,21938],[22.3,22023],[22.2,22107],[21.9,22189],[21.8,22272],[21.8,22355],[23.5,22440],[34.4,22523],[39.5,22607],[43.6,22690],[51.1,22774],[63,22857],[73.5,22941],[76.9,23024],[76.9,23106],[77,23190],[77.1,23275],[77.2,23356],[77.2,23439],[77.3,23522],[77.4,23607],[77.4,23689],[77.4,23773],[77.5,23856],[81,23942],[83,24025],[84.7,24108],[85.4,24192],[87.2,24275],[89.6,24358],[91.6,24442],[92.9,24526],[93.3,24609],[93.5,24692],[93.8,24774],[94.1,24859],[94.2,24941],[94.4,25024],[94.4,25108],[94.4,25193],[94.4,25274],[94.4,25358],[94.4,25441],[94.4,25525],[94.4,25608],[94.5,25693],[94.5,25775],[94.5,25859],[94.5,25942],[94.5,26025],[94.5,26109],[94.5,26192],[94.6,26277],[94.6,26359],[94.6,26442],[94.6,26526],[94.6,26609],[94.6,26692],[94.6,26776],[94.6,26860],[94.6,26943],[94.6,27026],[94.6,27109],[94.6,27193],[94.6,27276],[94.6,27360],[94.6,27445],[94.6,27529],[94.6,27612],[94.6,27693],[94.6,27777],[94.6,27861],[94.6,27944],[94.6,28027],[94.6,28110],[94.6,28194],[94.6,28278],[94.6,28364],[94.6,28444]]",1,0,926.2778,931.6352,57.109375,5.0921,"[{""rating"":83.125,""responseTime"":2.0600999999940086},{""rating"":57.10937499999999,""responseTime"":5.092099999993934}]",space,4.8306,,931.6353,Partially,50,931.6366,,,[],,0,11,11,11,1,audio/Narrative8Situation2.wav,audio/Narrative7Situation2.wav,audio/Narrative6Situation2.wav,audio/Narrative5Situation2.wav,3,3,3,3,,,,,,,,,,,,,,,,,,,,,,,,,,,,,,,,,,,,,,,
,,,,,,656607db0fc2ad7c7b0948fa,2024-05-13_11h53.29.159,group3.1-3.2-social-tom,2023.2.2,Win32,60.60606061,65c5074098b851296ff0b7ed,6642376526b647ce83ce9cd7,,,,,,,,,,,,,,,,,,,,,,,,,,,,,931.6366,2,audio/Narrative6Situation3.wav,936.6384,,936.6384,949.2844,"[[999,4],[999,85],[999,166],[999,249],[999,333],[999,416],[999,502],[999,583],[999,666],[999,750],[999,835],[999,919],[999,1002],[999,1085],[999,1169],[999,1250],[999,1334],[999,1417],[999,1503],[999,1584],[999,1668],[999,1752],[999,1835],[999,1918],[999,2001],[999,2085],[999,2168],[999,2252],[999,2335],[999,2418],[999,2502],[999,2585],[999,2668],[999,2752],[999,2836],[999,2919],[999,3002],[999,3088],[999,3171],[999,3254],[999,3338],[999,3421],[999,3505],[999,3588],[999,3671],[999,3755],[999,3837],[999,3920],[999,4003],[999,4087],[999,4172],[24.5,4260],[24,4338],[23.7,4422],[23.6,4505],[23.6,4587],[23.6,4670],[23.6,4754],[23.6,4837],[23.6,4921],[23.6,5004],[23.6,5088],[23.6,5171],[23.6,5255],[23.6,5338],[23.6,5421],[24.2,5507],[24.1,5590],[23.9,5674],[23.9,5755],[23.9,5838],[23.9,5922],[23.9,6005],[23.9,6091],[23.9,6172],[23.9,6256],[23.9,6339],[23.9,6423],[23.9,6506],[23.9,6589],[23.9,6673],[23.9,6756],[23.9,6840],[23.9,6925],[23.9,7006],[23.9,7090],[24.7,7175],[31.5,7258],[44.2,7342],[55.5,7425],[65.3,7508],[70.9,7592],[74.1,7675],[75.1,7759],[77,7842],[79.7,7926],[82.2,8009],[85.3,8092],[88.8,8175],[92,8260],[95.5,8343],[98.5,8426],[100,8509],[100,8593],[100,8675],[100,8758],[100,8841],[100,8927],[100,9009],[100,9092],[100,9175],[100,9258],[100,9342],[100,9425],[100,9509],[100,9593],[100,9676],[100,9759],[100,9843],[100,9926],[100,10011],[100,10093],[100,10176],[100,10259],[100,10343],[100,10427],[100,10509],[100,10593],[100,10676],[100,10760],[100,10844],[100,10929],[100,11010],[100,11094],[100,11177],[100,11261],[100,11344],[100,11427],[100,11511],[100,11594],[100,11677],[100,11761],[100,11845],[100,11928],[100,12011],[100,12095],[100,12178],[100,12262],[100,12345],[100,12428],[100,12512],[100,12595]]",1,0,949.2845,952.7373,76.40625,2.2821,"[{""rating"":76.40625,""responseTime"":2.2820999999941023}]",space,2.9112,,952.7375,Not at all,0,952.7388,,,[],,0,12,12,12,1,audio/Narrative8Situation3.wav,audio/Narrative7Situation3.wav,audio/Narrative6Situation3.wav,audio/Narrative5Situation3.wav,4,8,5,3,,,,,,,,,,,,,,,,,,,,,,,,,,,,,,,,,,,,,,,
,,,,,,656607db0fc2ad7c7b0948fa,2024-05-13_11h53.29.159,group3.1-3.2-social-tom,2023.2.2,Win32,60.60606061,65c5074098b851296ff0b7ed,6642376526b647ce83ce9cd7,,,,,,,,,,,,,,,,,,,,,,,,,,,,,952.7389,2,audio/Narrative6Situation4.wav,954.7399,,954.7399,967.3538,"[[999,0],[999,83],[999,166],[999,250],[999,333],[999,416],[999,501],[70.6,585],[70.6,667],[70.6,750],[70.6,833],[70.6,917],[70.6,1002],[70.6,1083],[70.6,1168],[70.6,1252],[70.6,1334],[70.6,1417],[70.6,1500],[70.5,1586],[70.3,1669],[70,1753],[69.1,1837],[63.1,1920],[59.6,2003],[53.9,2086],[51.1,2170],[49.5,2253],[49.2,2336],[49.1,2418],[49.1,2501],[49.1,2585],[49.1,2670],[49.1,2752],[49.1,2835],[49.1,2920],[49.1,3004],[49.1,3087],[49.1,3171],[49.1,3254],[49.2,3336],[49.3,3419],[49.5,3505],[49.7,3588],[49.9,3671],[50,3754],[50,3836],[50,3920],[50,4003],[50,4086],[50,4170],[50,4254],[50,4339],[50,4420],[50,4504],[50,4587],[50,4670],[50,4754],[50,4837],[50,4921],[50,5004],[50,5087],[50,5172],[50,5254],[50,5338],[50,5422],[50,5504],[50,5590],[50,5671],[50,5755],[50,5838],[50,5922],[50,6005],[50,6088],[50,6172],[50,6256],[50,6339],[50,6422],[50,6505],[50,6589],[50,6672],[50,6756],[50,6841],[50,6923],[50,7006],[50,7090],[50,7173],[49.9,7256],[49.9,7340],[49.9,7423],[48.8,7509],[47.6,7592],[46.8,7676],[45.3,7759],[43.2,7842],[40.2,7925],[36.4,8008],[32,8092],[29,8176],[28.4,8259],[27.8,8343],[26.9,8426],[26.5,8507],[26.4,8591],[26.4,8674],[26.4,8758],[26.4,8841],[24.8,8926],[23.9,9010],[23.9,9092],[23.9,9175],[23.9,9260],[23.9,9342],[23.9,9425],[23.9,9509],[23.9,9592],[23.9,9675],[23.9,9759],[23.9,9842],[23.9,9925],[25.2,10011],[25.9,10094],[26.4,10178],[28.3,10261],[31.2,10345],[34.3,10428],[39,10511],[43.6,10594],[45.8,10678],[46.2,10762],[46.4,10844],[46.4,10927],[46.4,11010],[46.4,11094],[46.4,11177],[46.4,11260],[46.4,11344],[46.4,11427],[46.4,11510],[46.4,11594],[46.4,11677],[46.4,11761],[46.4,11846],[46.4,11928],[46.4,12011],[46.4,12095],[46.4,12178],[46.4,12261],[45.7,12347],[42.7,12430],[37.7,12513],[36.2,12597]]",1,0,967.354,969.7063,12.109375,1.6017,"[{""rating"":12.109375,""responseTime"":1.6017000000178996}]",space,1.8188,,969.7063,Definitely yes,100,969.7075,,,[],,0,13,13,13,1,audio/Narrative8Situation4.wav,audio/Narrative7Situation4.wav,audio/Narrative6Situation4.wav,audio/Narrative5Situation4.wav,3,3,2,1,,,,,,,,,,,,,,,,,,,,,,,,,,,,,,,,,,,,,,,
,,,,,,656607db0fc2ad7c7b0948fa,2024-05-13_11h53.29.159,group3.1-3.2-social-tom,2023.2.2,Win32,60.60606061,65c5074098b851296ff0b7ed,6642376526b647ce83ce9cd7,,,,,,,,,,,,,,,,,,,,,,,,,,,,,969.7075,2,audio/Narrative6Situation5.wav,971.7234,,971.7234,979.681,"[[999,0],[999,83],[999,166],[999,250],[999,333],[999,416],[999,500],[999,585],[999,668],[999,752],[999,833],[999,917],[999,1001],[999,1084],[999,1167],[999,1252],[999,1336],[999,1419],[999,1503],[999,1586],[999,1670],[999,1751],[999,1835],[999,1918],[999,2003],[999,2085],[999,2170],[999,2254],[999,2335],[999,2420],[999,2504],[999,2587],[999,2670],[999,2754],[999,2837],[22.7,2921],[22.8,3004],[23.1,3087],[23.2,3169],[23.2,3252],[23.2,3336],[23.2,3419],[23.2,3503],[23.2,3586],[23.2,3670],[23.2,3753],[26.8,3839],[38.6,3922],[51.4,4005],[61.8,4088],[66.3,4172],[67.1,4255],[67.9,4339],[69.5,4422],[75.4,4506],[80.5,4589],[80.5,4670],[80.5,4754],[79.8,4839],[78.1,4923],[77.7,5004],[77.7,5090],[77.7,5171],[77.7,5255],[77.7,5338],[77.7,5421],[77.7,5505],[77.7,5588],[77.7,5672],[77.7,5755],[77.7,5839],[77.7,5922],[77.7,6005],[77.7,6089],[77.7,6172],[77.7,6256],[77.7,6339],[77.7,6422],[77.7,6506],[77.7,6589],[77.7,6672],[77.7,6756],[77.7,6839],[77.7,6923],[77.7,7007],[77.7,7090],[77.7,7173],[77.7,7257],[77.7,7340],[77.7,7425],[77.7,7507],[77.7,7590],[77.7,7673],[77.7,7757],[77.7,7842],[77.7,7924]]",1,0,979.6811,981.9686,60.703125,1.6729,"[{""rating"":60.703125,""responseTime"":1.6728999999761527}]",space,1.7538,,981.9686,Partially,50,981.9698,,,[],,0,14,14,14,1,audio/Narrative8Situation5.wav,audio/Narrative7Situation5.wav,audio/Narrative6Situation5.wav,audio/Narrative5Situation5.wav,2,5,2,5,,,,,,,,,,,,,,,,,,,,,,,,,,,,,,,,,,,,,,,
,,,,,,656607db0fc2ad7c7b0948fa,2024-05-13_11h53.29.159,group3.1-3.2-social-tom,2023.2.2,Win32,60.60606061,65c5074098b851296ff0b7ed,6642376526b647ce83ce9cd7,,,,,,,,,,,,,,,,,,,,,,,,,,,,,981.9699,2,audio/Narrative6Situation6.wav,983.9854,,983.9854,995.0648,"[[60.9,1419],[60.9,1501],[60.9,1584],[60.9,1668],[60.9,1751],[60.9,1835],[60.9,1918],[60.9,2002],[60.9,2085],[60.9,2169],[60.9,2252],[60.9,2335],[60.9,2419],[61,2503],[61.3,2588],[61.3,2669],[61.4,2754],[61.4,2837],[59.3,2921],[53.8,3004],[50.3,3088],[49.1,3171],[49.1,3253],[49.1,3336],[49.1,3419],[49.1,3505],[49.2,3589],[49.2,3670],[49.2,3753],[49.2,3839],[49.1,3920],[44.9,4005],[42.7,4088],[35.2,4172],[25.7,4256],[21.8,4339],[20.2,4422],[19.7,4506],[19.7,4588],[19.7,4671],[19.7,4754],[20.2,4840],[21.4,4923],[21.9,5006],[22,5088],[22,5171],[22,5254],[22,5338],[22,5421],[22,5507],[22,5589],[22,5672],[22,5755],[22,5839],[22,5922],[22,6006],[22,6089],[22,6172],[22,6255],[22,6339],[22,6423],[22,6506],[22,6590],[22,6674],[22,6757],[22,6842],[22,6923],[22,7007],[22,7090],[21.8,7176],[19.5,7259],[17.3,7342],[16.1,7426],[15.5,7509],[15,7591],[12.7,7675],[10.2,7759],[10.1,7840],[10.1,7924],[10.1,8008],[10,8091],[10,8174],[10,8258],[10,8343],[10,8424],[10,8508],[10,8591],[10,8675],[10,8758],[10,8841],[10,8925],[10,9008],[10,9092],[10,9177],[10,9259],[10,9342],[10,9426],[10,9509],[10,9592],[10,9676],[10,9760],[10,9842],[10,9926],[10,10011],[10,10093],[7.8,10178],[6.6,10261],[6.6,10345],[6.6,10427],[3.8,10512],[1.2,10595],[0.8,10677],[0.7,10760],[0.7,10843],[0.7,10927],[0.5,11013]]",1,0,995.0648,997.4672,0,1.9022,"[{""rating"":5.156250000000001,""responseTime"":1.0249999999999773},{""rating"":0,""responseTime"":1.902200000017956}]",space,1.8688,,997.4673,Not at all,0,997.4684,,,[],,0,15,15,15,1,audio/Narrative8Situation6.wav,audio/Narrative7Situation6.wav,audio/Narrative6Situation6.wav,audio/Narrative5Situation6.wav,2,3,2,3,,,,,,,,,,,,,,,,,,,,,,,,,,,,,,,,,,,,,,,
