exp_question,consent.started,consent.stopped,consentResponse.keys,consentResponse.rt,consentResponse.duration,participantID,date,expName,psychopyVersion,OS,frameRate,STUDY_ID,SESSION_ID,opening1.started,opening1.stopped,keyEndingOpening1.keys,keyEndingOpening1.rt,keyEndingOpening1.duration,volumeAdjust.started,volumeAdjust.stopped,endingAdjust.keys,endingAdjust.rt,endingAdjust.duration,opening2.started,opening2.stopped,keyEndingOpening.keys,keyEndingOpening.rt,keyEndingOpening.duration,mouse.x,mouse.y,mouse.leftButton,mouse.midButton,mouse.rightButton,mouse.time,instructionLoop.thisRepN,instructionLoop.thisTrialN,instructionLoop.thisN,instructionLoop.thisIndex,instructionLoop.ran,readyForAudio.started,readyForAudio.stopped,fixation.started,run,audio_played,fixation.stopped,endPractice.keys,audioPre.started,audioPre.stopped,continuousResponses_audio,continuousSlider.response,continuousSlider.rt,intRating.started,intRating.stopped,intQuestionSlider.response,intQuestionSlider.rt,intQuestionSlider.history,confirmResponse.keys,confirmResponse.rt,confirmResponse.duration,catchQuestion.started,catch_label,catch_value,catchQuestion.stopped,catchQuestionSlider.response,catchQuestionSlider.rt,catchQuestionSlider.history,confirmResponse_2.keys,audioRunLoop.thisRepN,audioRunLoop.thisTrialN,audioRunLoop.thisN,audioRunLoop.thisIndex,audioRunLoop.ran,conditions1_1,conditions2_1,conditions1_2,conditions2_2,dur1_1,dur2_1,dur1_2,dur2_2,endPractice.rt,endPractice.duration,confirmResponse_2.rt,confirmResponse_2.duration,runIntervalBreak.started,runIntervalBreak.stopped,endingBreakKey.keys,endingBreakKey.rt,endingBreakKey.duration,connection.started,connection.stopped,connectionEnding.keys,connectionEnding.rt,connectionEnding.duration,readyForText.started,readyForText.stopped,textPre.started,run_dup,textPre.stopped,continuousResponses_text,textRunLoop.thisRepN,textRunLoop.thisTrialN,textRunLoop.thisN,textRunLoop.thisIndex,textRunLoop.ran,text1_1,text1_2,text2_1,text2_2,runBreakText.started,runBreakText.stopped,endingBreakKey_2.keys,endingBreakKey_2.rt,endingBreakKey_2.duration,ending.started,ending.stopped,endingEnding.keys,endingEnding.rt,endingEnding.duration
tom,0.0004,105.0806,y,104.7662,,656e0dab178ffccdaa47202e,2024-05-13_10h51.49.622,group3.1-3.2-social-tom,2023.2.2,Win32,40,65c5074098b851296ff0b7ed,664252f7dc53bf4b50aa3dab,,,,,,,,,,,,,,,,,,,,,,,,,,,,,,,,,,,,,,,,,,,,,,,,,,,,,,,,,,,,,,,,,,,,,,,,,,,,,,,,,,,,,,,,,,,,,,,,,,,,,,,,,,
,,,,,,656e0dab178ffccdaa47202e,2024-05-13_10h51.49.622,group3.1-3.2-social-tom,2023.2.2,Win32,40,65c5074098b851296ff0b7ed,664252f7dc53bf4b50aa3dab,105.0813,181.3002,space,76.1601,,,,,,,,,,,,,,,,,,,,,,,,,,,,,,,,,,,,,,,,,,,,,,,,,,,,,,,,,,,,,,,,,,,,,,,,,,,,,,,,,,,,,,,,,,,,,,,,,,,,,,
,,,,,,656e0dab178ffccdaa47202e,2024-05-13_10h51.49.622,group3.1-3.2-social-tom,2023.2.2,Win32,40,65c5074098b851296ff0b7ed,664252f7dc53bf4b50aa3dab,,,,,,181.3003,377.3729,space,195.7441,,,,,,,,,,,,,,,,,,,,,,,,,,,,,,,,,,,,,,,,,,,,,,,,,,,,,,,,,,,,,,,,,,,,,,,,,,,,,,,,,,,,,,,,,,,,,,,,,
,,,,,,656e0dab178ffccdaa47202e,2024-05-13_10h51.49.622,group3.1-3.2-social-tom,2023.2.2,Win32,40,65c5074098b851296ff0b7ed,664252f7dc53bf4b50aa3dab,,,,,,,,,,,377.4166,385.6692,space,8.2249,,[],[],[],[],[],[],0,0,0,0,1,,,,,,,,,,,,,,,,,,,,,,,,,,,,,,,,,,,,,,,,,,,,,,,,,,,,,,,,,,,,,,,,,,,,,,,,,,,,,,,,
,,,,,,656e0dab178ffccdaa47202e,2024-05-13_10h51.49.622,group3.1-3.2-social-tom,2023.2.2,Win32,40,65c5074098b851296ff0b7ed,664252f7dc53bf4b50aa3dab,,,,,,,,,,,385.6947,408.8558,space,23.0529,,[],[],[],[],[],[],1,0,1,0,1,,,,,,,,,,,,,,,,,,,,,,,,,,,,,,,,,,,,,,,,,,,,,,,,,,,,,,,,,,,,,,,,,,,,,,,,,,,,,,,,
,,,,,,656e0dab178ffccdaa47202e,2024-05-13_10h51.49.622,group3.1-3.2-social-tom,2023.2.2,Win32,40,65c5074098b851296ff0b7ed,664252f7dc53bf4b50aa3dab,,,,,,,,,,,408.8831,428.2709,space,19.3359,,[],[],[],[],[],[],2,0,2,0,1,,,,,,,,,,,,,,,,,,,,,,,,,,,,,,,,,,,,,,,,,,,,,,,,,,,,,,,,,,,,,,,,,,,,,,,,,,,,,,,,
,,,,,,656e0dab178ffccdaa47202e,2024-05-13_10h51.49.622,group3.1-3.2-social-tom,2023.2.2,Win32,40,65c5074098b851296ff0b7ed,664252f7dc53bf4b50aa3dab,,,,,,,,,,,428.296,449.5932,space,21.2743,,[],[],[],[],[],[],3,0,3,0,1,,,,,,,,,,,,,,,,,,,,,,,,,,,,,,,,,,,,,,,,,,,,,,,,,,,,,,,,,,,,,,,,,,,,,,,,,,,,,,,,
,,,,,,656e0dab178ffccdaa47202e,2024-05-13_10h51.49.622,group3.1-3.2-social-tom,2023.2.2,Win32,40,65c5074098b851296ff0b7ed,664252f7dc53bf4b50aa3dab,,,,,,,,,,,449.6215,463.2788,space,13.6233,,[],[],[],[],[],[],4,0,4,0,1,,,,,,,,,,,,,,,,,,,,,,,,,,,,,,,,,,,,,,,,,,,,,,,,,,,,,,,,,,,,,,,,,,,,,,,,,,,,,,,,
,,,,,,656e0dab178ffccdaa47202e,2024-05-13_10h51.49.622,group3.1-3.2-social-tom,2023.2.2,Win32,40,65c5074098b851296ff0b7ed,664252f7dc53bf4b50aa3dab,,,,,,,,,,,,,,,,,,,,,,,,,,,463.3074,465.8776,465.9309,1,audio/Narrative13Situation2.wav,467.952,,467.9526,497.7394,"[[999,2],[999,147],[999,222],[999,297],[999,372],[999,450],[999,522],[999,597],[999,673],[999,747],[999,823],[999,897],[999,973],[999,1047],[999,1122],[999,1197],[999,1272],[999,1347],[999,1422],[999,1497],[999,1572],[999,1647],[999,1722],[999,1797],[999,1872],[999,1947],[999,2022],[999,2097],[999,2172],[999,2247],[999,2322],[999,2397],[999,2472],[999,2547],[999,2622],[999,2696],[999,2771],[999,2847],[999,2921],[999,2996],[999,3072],[999,3146],[999,3221],[999,3296],[999,3371],[999,3446],[999,3521],[999,3596],[999,3671],[999,3746],[999,3821],[999,3896],[999,3971],[999,4046],[999,4121],[999,4196],[999,4271],[999,4346],[999,4421],[999,4495],[999,4570],[999,4646],[999,4721],[999,4795],[999,4871],[999,4957],[999,5020],[999,5096],[999,5171],[999,5247],[999,5323],[999,5397],[999,5470],[999,5547],[999,5620],[999,5695],[999,5770],[999,5845],[999,5920],[999,5995],[999,6070],[999,6145],[999,6220],[999,6295],[999,6371],[999,6446],[999,6521],[999,6596],[999,6670],[999,6745],[999,6821],[999,6896],[999,6971],[999,7045],[999,7120],[999,7195],[999,7271],[999,7345],[999,7419],[999,7494],[999,7569],[999,7644],[999,7719],[999,7794],[999,7869],[999,7944],[999,8018],[999,8093],[999,8168],[999,8243],[999,8318],[999,8393],[999,8469],[999,8543],[999,8618],[999,8693],[999,8768],[999,8843],[999,8918],[999,9014],[999,9077],[999,9144],[999,9227],[999,9303],[58.2,9394],[59.4,9468],[59.8,9543],[59.8,9620],[62.9,9697],[65.2,9768],[66.4,9843],[66.4,9918],[66.4,9992],[66.4,10068],[65.2,10143],[65.2,10217],[65.2,10293],[64.9,10367],[64.9,10442],[64.9,10517],[64.9,10592],[64.9,10667],[64.9,10742],[64.8,10817],[64.8,10892],[64.8,10967],[58.6,11642],[58.9,11717],[59.7,11792],[59.8,11867],[59.8,11942],[59.8,12016],[59.8,12092],[59.8,12167],[59.8,12241],[60,12316],[60,12391],[60,12466],[60,12541],[60,12616],[60,12691],[60,12766],[60,12841],[60,12916],[60,12991],[60,13066],[60,13141],[60,13216],[60,13291],[60,13366],[60,13441],[60,13516],[60,13591],[60,13666],[60,13741],[60,13816],[60,13891],[59.7,13967],[59.7,14041],[59.7,14116],[59.7,14191],[59.7,14266],[59.7,14341],[59.7,14416],[59.7,14491],[59.7,14566],[59.7,14641],[59.7,14716],[59.7,14791],[59.7,14866],[59.7,14941],[59.5,15017],[59.4,15091],[59.2,15165],[59.2,15241],[59.2,15316],[58.8,15392],[58.8,15465],[58.8,15540],[58.8,15615],[58.8,15690],[58.8,15765],[58.8,15840],[58.8,15915],[58.8,15990],[58.8,16065],[58.8,16140],[58.8,16215],[58.8,16290],[58.8,16365],[58.8,16440],[58.8,16515],[58.8,16590],[58.8,16665],[58.8,16740],[58.8,16815],[58.8,16890],[58.8,16965],[58.8,17039],[58.8,17115],[58.8,17189],[58.8,17264],[58.8,17339],[58.6,17414],[58.6,17489],[58.3,17567],[57.6,17641],[57,17715],[56.4,17789],[55.1,17865],[54.7,17940],[54.4,18014],[53.8,18089],[53.1,18164],[52.8,18239],[51.6,18314],[50.7,18389],[50.1,18464],[50.1,18539],[50.1,18614],[48.8,18690],[46.9,18765],[46.2,18840],[45.3,18915],[44.1,18990],[42.4,19065],[40.8,19139],[40.8,19213],[40.6,19289],[40,19363],[40,19438],[40,19513],[40,19588],[40,19663],[40,19738],[40,19813],[40,19888],[40,19963],[40,20038],[40,20113],[40,20188],[40,20263],[40,20338],[39.9,20413],[39.9,20488],[39.9,20563],[39.9,20637],[39.9,20712],[39.9,20787],[39.9,20862],[39.9,20938],[39.9,21013],[39.9,21088],[39.9,21163],[39.9,21237],[39.9,21312],[39.9,21387],[39.9,21462],[39.9,21537],[39.9,21612],[39.9,21687],[39.9,21762],[39.9,21837],[39.9,21912],[39.9,21987],[39.9,22062],[39.9,22137],[39.9,22212],[39.9,22287],[38.9,22364],[37.6,22438],[36.4,22512],[35.1,22588],[33.6,22663],[33.3,22737],[33.3,22812],[33.3,22886],[33.3,22962],[33.3,23037],[33.3,23111],[33.3,23187],[33.3,23261],[33.3,23336],[33.3,23412],[33.3,23486],[33.3,23561],[33.3,23636],[33.3,23711],[33.3,23787],[33.3,23861],[33.3,23937],[33.3,24011],[33.3,24086],[32.7,24161],[32.1,24236],[31.7,24312],[31,24386],[30.4,24462],[30.2,24536],[30.2,24611],[30.2,24686],[30.2,24761],[30.2,24836],[30.2,24911],[30.2,24986],[30.2,25061],[30.2,25136],[30.2,25211],[30.2,25286],[30.2,25360],[30.2,25436],[30.2,25511],[30.2,25585],[30.2,25660],[30.2,25735],[30.2,25810],[29.6,25887],[29.1,25961],[28.5,26037],[27.7,26111],[27.6,26185],[27.6,26260],[27.6,26335],[27.6,26410],[27.2,26487],[26.7,26560],[26.7,26635],[26.7,26710],[26.7,26785],[26.7,26860],[26.7,26935],[26.7,27009],[26.7,27085],[26.7,27160],[26.7,27235],[26.7,27309],[26.7,27385],[26.7,27460],[26.7,27535],[26.7,27609],[26.7,27684],[26.7,27759],[26.7,27834],[26.7,27909],[26.7,27984],[26.7,28059],[26.7,28134],[26.7,28209],[26.7,28284],[26.7,28359],[26.7,28434],[26.7,28509],[26.7,28584],[26.7,28659],[26.7,28734],[26.7,28809],[26.7,28884],[26.7,28959],[26.7,29034],[26.7,29108],[26.7,29184],[26.7,29259],[26.7,29334],[26.7,29409],[26.7,29484],[26.7,29558],[26.7,29634],[26.7,29708],[26.7,29783]]",1,0,497.7403,508.1145,20.86383602,7.1511,"[{""rating"":23.060029282576867,""responseTime"":4.991899999976113},{""rating"":20.863836017569547,""responseTime"":7.151100000023803}]",space,9.7769,,508.1421,Half the time,50,508.1555,,,[],,0,0,0,0,1,audio/Narrative13Situation2.wav,audio/Narrative13Situation2.wav,audio/Narrative13Situation2.wav,audio/Narrative13Situation2.wav,2,2,2,2,,,,,,,,,,,,,,,,,,,,,,,,,,,,,,,,,,,,,,,
,,,,,,656e0dab178ffccdaa47202e,2024-05-13_10h51.49.622,group3.1-3.2-social-tom,2023.2.2,Win32,40,65c5074098b851296ff0b7ed,664252f7dc53bf4b50aa3dab,,,,,,,,,,,,,,,,,,,,,,,,,,,,,508.1567,1,audio/Narrative7Situation1.wav,511.3053,space,511.3055,567.2287,"[[62.6,2398],[58.2,2474],[56.7,2548],[56.6,2624],[56.6,2698],[55,2773],[51.2,2848],[50.7,2923],[50.7,2997],[50.7,3072],[50,3150],[49.4,3223],[49.4,3297],[49.4,3373],[49.4,3447],[49.4,3522],[49.4,3597],[49.4,3672],[49.4,3747],[49.4,3822],[49.4,3897],[49.4,3972],[49.4,4047],[49.4,4122],[49.4,4197],[48.4,4274],[46,4349],[45.8,4422],[45.8,4497],[45.8,4572],[45.8,4647],[45.8,4722],[45.8,4797],[45.8,4872],[45.8,4947],[45.8,5022],[45.8,5096],[45.8,5172],[45.8,5246],[45.8,5321],[45.8,5396],[45.8,5471],[45.8,5546],[45.8,5621],[45.8,5696],[45.8,5771],[45.8,5846],[45.8,5921],[45.6,5997],[46,6072],[47.1,6147],[48.7,6222],[49.7,6296],[49.9,6371],[49.9,6446],[49.9,6521],[49.9,6596],[49.9,6671],[50,6747],[50.1,6821],[50.1,6896],[50.1,6971],[50.1,7046],[50.1,7121],[50.1,7195],[50.1,7270],[50.1,7345],[50.1,7420],[50.1,7495],[50.1,7571],[50.1,7645],[50.1,7720],[50.3,7796],[50.3,7871],[50.3,7945],[50.3,8020],[50.3,8095],[50.3,8170],[50.3,8245],[50.3,8320],[50.3,8395],[50.3,8470],[50.3,8545],[50.3,8620],[50.3,8695],[50.3,8770],[50.3,8845],[50.3,8920],[50.3,8995],[50.3,9070],[51.3,9145],[51.8,9220],[51.8,9294],[51.8,9369],[51.8,9444],[51.3,9521],[47.5,9595],[45.6,9670],[44.4,9745],[42.8,9820],[41.4,9895],[41.2,9969],[41.2,10044],[41.2,10119],[41.2,10194],[41.1,10270],[39.9,10346],[38.7,10420],[37.6,10495],[37,10569],[37,10644],[37,10719],[37,10794],[37,10868],[37,10943],[37,11018],[37,11093],[37,11168],[37,11243],[37,11318],[37,11393],[37,11468],[37,11543],[37,11618],[37,11693],[37,11768],[37,11844],[37,11918],[37,11993],[37,12068],[37,12143],[37,12218],[37,12293],[38.3,12369],[39,12445],[40.2,12519],[42.4,12594],[42.8,12669],[43.1,12743],[43.1,12818],[44.4,12894],[44.4,12968],[44.4,13043],[44.4,13118],[44.4,13193],[44.4,13268],[44.4,13342],[44.4,13418],[44.4,13492],[44.4,13567],[44.4,13642],[44.4,13717],[44.4,13792],[44.4,13867],[44.4,13942],[44.4,14017],[44.4,14092],[44.4,14167],[44.4,14242],[44.4,14317],[44.4,14392],[44.4,14467],[44.4,14542],[44.4,14617],[44.4,14692],[44.4,14767],[44.4,14842],[44.4,14917],[44.6,14992],[44.6,15067],[44.6,15142],[44.6,15217],[44.6,15292],[44.6,15367],[44.6,15441],[44.6,15516],[44.6,15591],[44.6,15666],[44.9,15742],[45.3,15816],[46,15892],[46.2,15967],[46.6,16042],[47.5,16117],[48.4,16192],[48.5,16266],[48.5,16341],[48.5,16416],[48.5,16491],[48.5,16566],[48.5,16641],[48.5,16716],[48.5,16791],[48.5,16866],[48.5,16941],[48.5,17016],[48.5,17091],[48.5,17166],[48.5,17241],[48.5,17316],[48.5,17391],[48.5,17466],[48.5,17540],[48.5,17616],[48.5,17690],[48.5,17765],[48.5,17840],[48.5,17915],[48.5,17990],[48.5,18065],[48.5,18140],[48.5,18215],[48.5,18290],[48.5,18365],[48.5,18440],[48.5,18515],[48.5,18590],[48.5,18665],[48.5,18740],[48.5,18814],[48.5,18890],[48.5,18965],[48.5,19039],[48.5,19115],[48.5,19189],[48.5,19265],[48.5,19340],[48.5,19414],[48.5,19490],[48.5,19564],[48.5,19639],[48.5,19714],[48.5,19789],[48.5,19864],[48.5,19939],[48.5,20014],[48.5,20089],[48.5,20164],[48.5,20239],[48.5,20314],[48.5,20389],[48.5,20464],[48.5,20539],[48.5,20614],[48.5,20689],[48.5,20764],[48.5,20839],[48.5,20914],[48.5,20989],[48.5,21063],[48.5,21139],[48.5,21214],[48.5,21289],[48.5,21364],[48.5,21439],[48.5,21514],[48.5,21588],[48.5,21664],[48.5,21738],[48.5,21814],[48.5,21888],[48.5,21963],[48.5,22038],[48.5,22113],[48.5,22188],[48.5,22263],[48.5,22338],[48.5,22413],[47.5,22503],[47.1,22564],[46.6,22638],[46.3,22713],[46.2,22790],[45.9,22863],[45.9,22938],[45.2,23013],[45.2,23088],[45.2,23163],[44.6,23238],[44.1,23314],[44.1,23388],[44.1,23463],[44.1,23538],[44.1,23613],[44.1,23687],[44.1,23763],[44.1,23837],[44.1,23913],[44.1,23987],[44.1,24062],[44.1,24137],[44.1,24212],[44.1,24287],[44.1,24362],[44.1,24437],[44.1,24512],[44.1,24587],[44.1,24662],[44.1,24737],[43.9,24812],[43.7,24889],[42.8,24964],[41.4,25038],[41.4,25112],[41.4,25187],[41.4,25261],[41.4,25336],[41.4,25411],[41.4,25487],[41.4,25561],[41.4,25636],[41.4,25711],[41.4,25787],[41.4,25861],[41.2,25936],[41.2,26011],[41.2,26086],[41.2,26161],[40.5,26237],[40,26311],[40,26386],[39.3,26461],[39.3,26536],[39.3,26611],[39.3,26686],[39.3,26761],[39.3,26836],[39.3,26911],[39.3,26986],[39.3,27061],[39.3,27136],[39.3,27211],[39.3,27286],[39.8,27362],[40.6,27435],[41.5,27511],[42.7,27586],[43.9,27661],[43.9,27735],[44.7,27811],[45.8,27885],[45.8,27961],[45.8,28035],[45.8,28111],[45.8,28185],[45.8,28260],[46.2,28335],[46.2,28410],[46.2,28485],[46.2,28560],[46.2,28635],[47.5,28711],[47.7,28785],[47.7,28860],[47.7,28935],[47.7,29010],[47.7,29085],[47.7,29160],[47.7,29235],[47.7,29310],[47.7,29385],[47.7,29460],[47.7,29535],[47.7,29609],[47.7,29684],[47.7,29759],[47.7,29834],[47.7,29909],[47.7,29984],[47.7,30059],[47.7,30134],[47.7,30209],[47.7,30284],[47.7,30359],[47.7,30434],[47.7,30509],[47.7,30584],[48,30660],[48,30734],[48,30809],[48.2,30884],[48.2,30959],[48.2,31034],[48.2,31109],[48.2,31184],[48.2,31259],[48.2,31334],[48.2,31409],[48.2,31483],[48.2,31558],[48.2,31633],[48.2,31708],[48.2,31784],[48.2,31859],[48.2,31933],[48.2,32008],[48.2,32083],[48.2,32158],[48.2,32234],[48.2,32308],[48.2,32383],[48.2,32458],[48.2,32533],[48.2,32608],[48.2,32683],[48.2,32758],[48.2,32833],[48.2,32908],[48.2,32983],[48.2,33058],[48.2,33133],[48.2,33209],[48.2,33283],[48.2,33358],[48.2,33433],[48.2,33508],[48.2,33583],[48.2,33658],[48.2,33733],[48.2,33807],[48.2,33883],[48.2,33958],[48.2,34033],[48.2,34107],[48.2,34182],[48.2,34257],[48.2,34332],[48.2,34407],[48.2,34482],[48.2,34557],[48.2,34632],[48.2,34707],[48.2,34783],[48.2,34857],[48.2,34933],[48.2,35007],[48.2,35082],[48.2,35157],[48.2,35232],[48.2,35307],[48.2,35382],[48.2,35457],[48.2,35532],[48.2,35607],[48.2,35682],[48.2,35757],[48.2,35832],[48.2,35907],[48.2,35982],[48.2,36056],[48.2,36131],[48.2,36206],[48.2,36281],[48.2,36356],[48.2,36431],[48.2,36506],[48.2,36581],[48.2,36656],[48.2,36731],[48.2,36806],[48.2,36881],[48.2,36956],[48.2,37031],[48.2,37106],[48.2,37181],[48.2,37256],[48.2,37331],[48.2,37406],[48.2,37481],[48.2,37556],[48.2,37631],[48.2,37706],[48.2,37781],[48.2,37855],[48.2,37931],[48.2,38006],[48.2,38081],[48.2,38155],[48.2,38230],[49.1,38306],[49.1,38380],[49.1,38455],[49.1,38530],[49.1,38605],[49.1,38680],[49.1,38755],[49.1,38830],[49.1,38905],[49.1,38980],[49.1,39055],[49.1,39130],[49.1,39205],[49.1,39280],[49.1,39355],[49.1,39430],[49.1,39505],[49.1,39580],[49.1,39655],[49.1,39730],[49.1,39805],[49.1,39880],[49,39955],[49,40030],[48.5,40105],[48,40180],[48,40254],[48,40329],[48,40404],[48,40479],[48,40554],[48,40629],[48,40704],[48,40779],[48,40854],[48,40929],[48,41004],[48,41079],[48,41154],[48,41229],[48,41304],[48,41379],[48,41454],[48,41529],[48,41604],[47.7,41678],[47.7,41753],[47.7,41828],[47.7,41903],[47.7,41978],[47.7,42053],[47.5,42128],[47.5,42203],[47.5,42279],[46.8,42354],[46.5,42429],[46.2,42504],[45.8,42578],[45.8,42653],[45.8,42728],[45.8,42803],[45.8,42878],[45.8,42953],[45.8,43028],[45.8,43103],[45.8,43178],[45.8,43253],[45.8,43328],[45.8,43403],[45.8,43478],[45.8,43553],[45.8,43628],[45.8,43703],[45.8,43777],[45.8,43853],[45.8,43928],[45.8,44003],[45.8,44078],[45.8,44153],[45.8,44227],[45.8,44303],[45.8,44378],[45.8,44452],[45.8,44528],[45.8,44602],[45.8,44677],[45.8,44752],[45.8,44827],[45.8,44902],[45.8,44977],[45.8,45052],[45.8,45127],[45.8,45202],[45.8,45276],[45.8,45351],[45.8,45427],[45.8,45502],[45.8,45577],[45.8,45652],[45.8,45727],[45.8,45802],[45.8,45877],[45.8,45952],[45.8,46027],[45.8,46102],[45.8,46177],[45.8,46251],[45.8,46326],[45.8,46402],[45.8,46476],[45.8,46551],[45.8,46626],[45.8,46701],[45.8,46776],[45.8,46851],[45.8,46926],[45.8,47001],[45.8,47076],[45.8,47151],[45.8,47226],[45.8,47301],[45.8,47376],[45.8,47451],[45.8,47526],[45.5,47601],[45.3,47676],[41.1,47751],[40.5,47826],[40.5,47901],[37.6,47976],[37.6,48051],[37.6,48125],[36.2,48201],[34.8,48276],[34.3,48352],[33.7,48426],[31.4,48501],[30.8,48575],[30.8,48650],[29.5,48726],[29.2,48800],[29.2,48875],[29.2,48950],[29.2,49025],[29.2,49100],[29.2,49175],[29.2,49250],[29.2,49325],[29.2,49400],[29.2,49475],[29.2,49550],[29.2,49625],[29.2,49700],[29.2,49776],[29.2,49851],[29.2,49925],[29.2,50000],[28.6,50076],[27.9,50150],[27.3,50225],[27.3,50300],[27.3,50374],[27.3,50449],[27.3,50524],[27.3,50599],[27.3,50674],[27.3,50749],[27.3,50824],[27.3,50900],[27.3,50974],[27.3,51049],[27.3,51124],[27.3,51199],[27.3,51274],[27.3,51349],[27.3,51424],[27.3,51499],[27.3,51574],[27.3,51649],[27.3,51724],[27.3,51799],[27.3,51874],[27.3,51949],[27.3,52024],[27.3,52099],[27.3,52173],[27.3,52249],[27.3,52324],[27.3,52399],[27.3,52473],[27.3,52548],[27.3,52624],[27.3,52698],[27.3,52774],[27.3,52848],[27.3,52923],[27.3,52998],[27.3,53073],[27.3,53148],[27.3,53223],[27.3,53298],[27.3,53373],[27.3,53448],[27.3,53523],[27.3,53598],[27.3,53673],[27.3,53748],[27.3,53823],[27.3,53898],[27.3,53972],[27.3,54048],[27.3,54123],[27.3,54198],[27.3,54273],[27.3,54348],[27.3,54423],[27.3,54497],[27.3,54573],[27.3,54647],[27.3,54722],[27.3,54797],[27.3,54873],[27.3,54947],[27.3,55022],[27.3,55097],[27.3,55172],[27.3,55247],[27.3,55322],[27.3,55397],[27.3,55472],[27.3,55547],[27.3,55622],[27.3,55697],[27.3,55772],[27.3,55847],[27.3,55922]]",1,0,567.2299,575.9048,27.5988287,6.7779,"[{""rating"":27.598828696925327,""responseTime"":6.777899999976171}]",space,8.1031,,575.905,Not at all,0,575.9158,,,[],,0,1,1,1,1,audio/Narrative7Situation1.wav,audio/Narrative8Situation1.wav,audio/Narrative5Situation1.wav,audio/Narrative6Situation1.wav,2,5,5,2,3.0976,,,,,,,,,,,,,,,,,,,,,,,,,,,,,,,,,,,,,,
,,,,,,656e0dab178ffccdaa47202e,2024-05-13_10h51.49.622,group3.1-3.2-social-tom,2023.2.2,Win32,40,65c5074098b851296ff0b7ed,664252f7dc53bf4b50aa3dab,,,,,,,,,,,,,,,,,,,,,,,,,,,,,575.9171,1,audio/Narrative7Situation2.wav,578.9224,,578.9225,586.4192,"[[999,28],[999,99],[999,174],[999,249],[999,323],[999,399],[999,474],[999,549],[999,624],[999,699],[999,774],[999,849],[999,924],[999,999],[999,1073],[999,1148],[999,1223],[999,1298],[999,1373],[999,1448],[999,1523],[999,1598],[999,1673],[999,1748],[999,1823],[999,1898],[999,1973],[999,2048],[999,2123],[999,2198],[999,2273],[999,2348],[999,2423],[999,2498],[999,2573],[999,2648],[999,2723],[999,2798],[999,2873],[999,2948],[999,3022],[999,3097],[999,3173],[999,3247],[999,3322],[999,3397],[999,3472],[999,3548],[999,3622],[999,3697],[999,3773],[999,3848],[999,3923],[39.9,3998],[39.5,4073],[39.5,4147],[39.5,4222],[39.5,4297],[39.5,4371],[39.5,4447],[39.5,4522],[39.8,4596],[41.2,4672],[41.2,4746],[42.7,4822],[43.3,4896],[43.3,4971],[43.3,5046],[43.3,5121],[43.3,5196],[43.3,5271],[45.5,5349],[46.3,5422],[46.3,5496],[46.3,5572],[48.1,5647],[48.7,5721],[49.1,5796],[49.6,5871],[49.6,5947],[49.6,6021],[49.6,6096],[49.6,6171],[49.6,6246],[49.6,6321],[49.6,6396],[49.6,6471],[49.6,6546],[49.6,6621],[49.6,6696],[49.6,6771],[49.6,6846],[49.6,6921],[49.6,6996],[49.6,7071],[49.6,7146],[49.6,7221],[49.6,7296],[49.6,7370],[49.6,7446]]",1,0,586.4196,593.4152,22.62079063,5.3097,"[{""rating"":22.620790629575403,""responseTime"":5.309699999928512}]",space,6.4316,,593.4154,All the time,100,593.4266,,,[],,0,2,2,2,1,audio/Narrative7Situation2.wav,audio/Narrative8Situation2.wav,audio/Narrative5Situation2.wav,audio/Narrative6Situation2.wav,3,3,3,3,,,,,,,,,,,,,,,,,,,,,,,,,,,,,,,,,,,,,,,
,,,,,,656e0dab178ffccdaa47202e,2024-05-13_10h51.49.622,group3.1-3.2-social-tom,2023.2.2,Win32,40,65c5074098b851296ff0b7ed,664252f7dc53bf4b50aa3dab,,,,,,,,,,,,,,,,,,,,,,,,,,,,,593.4272,1,audio/Narrative7Situation3.wav,601.4364,,601.4365,610.7067,"[[999,29],[999,99],[999,174],[999,249],[999,324],[999,399],[999,474],[999,549],[999,625],[999,701],[999,775],[999,849],[999,925],[999,999],[999,1074],[999,1149],[999,1223],[999,1298],[999,1373],[999,1448],[999,1523],[999,1598],[999,1673],[999,1748],[999,1823],[999,1898],[999,1973],[999,2048],[999,2123],[999,2198],[999,2273],[999,2348],[999,2423],[999,2498],[999,2573],[999,2648],[999,2723],[999,2798],[999,2873],[999,2948],[999,3023],[999,3097],[999,3173],[999,3248],[999,3322],[999,3397],[999,3472],[999,3548],[999,3622],[999,3697],[999,3772],[999,3847],[999,3922],[999,3997],[999,4072],[999,4147],[999,4222],[999,4297],[999,4372],[999,4447],[999,4522],[999,4597],[999,4672],[999,4747],[999,4822],[999,4897],[999,4972],[999,5047],[999,5122],[999,5197],[999,5272],[999,5348],[46.3,5422],[48.1,5497],[48.2,5572],[48.2,5646],[48.2,5721],[48.2,5796],[48.1,5873],[44.3,5947],[44,6021],[43.7,6097],[43.7,6171],[43.7,6246],[43.7,6321],[43.7,6396],[43.7,6471],[43.7,6546],[43.7,6621],[43.7,6696],[43.7,6771],[43.7,6846],[43.7,6921],[43.7,6996],[43.7,7071],[43.7,7146],[43.7,7221],[43.7,7296],[43.7,7371],[43.7,7446],[43.7,7520],[43.7,7596],[43.7,7670],[43.7,7745],[43.7,7820],[43.7,7895],[43.7,7971],[43.7,8045],[43.9,8122],[45.5,8196],[46,8271],[46,8345],[46,8420],[46,8495],[46,8570],[46,8645],[46,8720],[46,8794],[46,8871],[46.9,8945],[48,9021],[49,9095],[49.7,9170],[49.7,9244]]",1,0,610.707,616.0793,53.80673499,2.6103,"[{""rating"":53.80673499267936,""responseTime"":2.610300000071561}]",space,4.803,,616.0794,Not at all,0,616.1138,,,[],,0,3,3,3,1,audio/Narrative7Situation3.wav,audio/Narrative8Situation3.wav,audio/Narrative5Situation3.wav,audio/Narrative6Situation3.wav,8,4,3,5,,,,,,,,,,,,,,,,,,,,,,,,,,,,,,,,,,,,,,,
,,,,,,656e0dab178ffccdaa47202e,2024-05-13_10h51.49.622,group3.1-3.2-social-tom,2023.2.2,Win32,40,65c5074098b851296ff0b7ed,664252f7dc53bf4b50aa3dab,,,,,,,,,,,,,,,,,,,,,,,,,,,,,616.1143,1,audio/Narrative7Situation4.wav,619.1277,,619.1279,630.8724,"[[999,1],[999,74],[999,149],[999,229],[999,303],[999,379],[999,455],[999,530],[999,606],[999,679],[999,749],[999,829],[999,905],[999,979],[999,1055],[999,1129],[999,1205],[999,1279],[999,1348],[999,1430],[999,1501],[999,1580],[999,1649],[999,1723],[999,1798],[999,1873],[999,1948],[999,2030],[999,2098],[999,2177],[999,2248],[999,2323],[999,2404],[999,2476],[999,2551],[999,2623],[999,2698],[999,2779],[999,2853],[999,2923],[999,2998],[999,3073],[999,3154],[999,3223],[999,3304],[999,3372],[999,3447],[999,3522],[999,3597],[999,3672],[999,3754],[999,3822],[999,3897],[999,3972],[999,4047],[999,4122],[999,4197],[999,4272],[999,4353],[999,4427],[999,4497],[999,4572],[999,4653],[999,4722],[999,4797],[999,4877],[999,4953],[999,5029],[999,5103],[999,5178],[999,5247],[999,5327],[999,5396],[999,5475],[999,5552],[999,5621],[999,5702],[999,5777],[999,5846],[999,5927],[999,5996],[999,6071],[999,6146],[999,6221],[999,6301],[999,6371],[999,6446],[999,6526],[999,6596],[999,6671],[999,6752],[999,6821],[999,6902],[999,6971],[999,7046],[999,7126],[999,7196],[999,7274],[999,7349],[999,7426],[999,7501],[999,7570],[999,7645],[999,7721],[999,7802],[999,7870],[999,7945],[999,8020],[999,8101],[999,8170],[999,8245],[999,8320],[999,8395],[999,8470],[999,8545],[999,8625],[999,8701],[999,8776],[999,8849],[999,8921],[999,8995],[999,9070],[999,9150],[999,9225],[999,9303],[999,9378],[999,9450],[999,9520],[999,9601],[999,9671],[999,9751],[999,9827],[47.5,9933],[47.4,9995],[47.2,10070],[47.1,10146],[46.8,10219],[46.8,10294],[46.5,10370],[46.5,10444],[46.5,10519],[45.3,10595],[44.3,10669],[44.3,10744],[44.3,10819],[44,10894],[43.9,10969],[43.9,11044],[43.9,11119],[43.9,11194],[43.9,11269],[43.9,11344],[42.1,11419],[39.8,11494],[38.9,11569],[38.9,11643],[38.6,11719]]",1,0,630.8728,635.4449,29.06295754,3.1523,"[{""rating"":29.062957540263547,""responseTime"":3.1523000000714774}]",space,4.0005,,635.4451,All the time,100,635.4548,,,[],,0,4,4,4,1,audio/Narrative7Situation4.wav,audio/Narrative8Situation4.wav,audio/Narrative5Situation4.wav,audio/Narrative6Situation4.wav,3,3,1,2,,,,,,,,,,,,,,,,,,,,,,,,,,,,,,,,,,,,,,,
,,,,,,656e0dab178ffccdaa47202e,2024-05-13_10h51.49.622,group3.1-3.2-social-tom,2023.2.2,Win32,40,65c5074098b851296ff0b7ed,664252f7dc53bf4b50aa3dab,,,,,,,,,,,,,,,,,,,,,,,,,,,,,635.4554,1,audio/Narrative7Situation5.wav,640.4673,,640.4676,648.9888,"[[999,28],[999,99],[999,174],[999,249],[999,324],[999,399],[999,474],[999,549],[999,624],[999,699],[999,774],[999,849],[999,924],[999,999],[999,1074],[999,1149],[999,1224],[999,1298],[999,1373],[999,1448],[999,1523],[999,1598],[999,1673],[999,1748],[999,1823],[999,1898],[999,1973],[999,2048],[999,2123],[999,2198],[999,2273],[999,2348],[999,2423],[999,2498],[999,2573],[999,2648],[999,2723],[999,2797],[999,2873],[999,2947],[999,3022],[999,3097],[999,3172],[999,3247],[999,3322],[999,3397],[999,3472],[999,3547],[999,3622],[999,3697],[999,3772],[999,3847],[999,3922],[999,3997],[999,4072],[999,4147],[999,4222],[999,4297],[999,4372],[999,4447],[999,4522],[999,4597],[999,4672],[999,4747],[999,4822],[999,4897],[999,4972],[999,5047],[999,5121],[999,5197],[999,5271],[999,5346],[999,5422],[999,5496],[999,5571],[999,5646],[999,5721],[999,5796],[999,5871],[999,5947],[999,6021],[999,6096],[999,6171],[999,6246],[999,6321],[999,6396],[999,6471],[999,6546],[999,6621],[999,6696],[999,6771],[999,6846],[999,6921],[999,6996],[999,7071],[999,7146],[999,7220],[999,7296],[999,7371],[999,7446],[999,7521],[999,7595],[999,7670],[999,7745],[999,7820],[999,7895],[999,7970],[999,8045],[999,8120],[999,8195],[999,8270],[999,8345],[999,8420],[999,8495]]",1,0,648.989,653.1613,44.14348463,2.7918,"[{""rating"":44.143484626647144,""responseTime"":2.7918000000714756}]",space,3.6159,,653.1617,All the time,100,653.1686,,,[],,0,5,5,5,1,audio/Narrative7Situation5.wav,audio/Narrative8Situation5.wav,audio/Narrative5Situation5.wav,audio/Narrative6Situation5.wav,5,2,5,2,,,,,,,,,,,,,,,,,,,,,,,,,,,,,,,,,,,,,,,
,,,,,,656e0dab178ffccdaa47202e,2024-05-13_10h51.49.622,group3.1-3.2-social-tom,2023.2.2,Win32,40,65c5074098b851296ff0b7ed,664252f7dc53bf4b50aa3dab,,,,,,,,,,,,,,,,,,,,,,,,,,,,,653.1695,1,audio/Narrative7Situation6.wav,656.1847,,656.1849,666.1551,"[[999,1],[999,74],[999,149],[999,224],[999,306],[999,379],[999,449],[999,527],[999,604],[999,673],[999,755],[999,830],[999,904],[999,974],[999,1054],[999,1124],[999,1199],[999,1279],[999,1354],[999,1423],[999,1499],[999,1574],[999,1654],[999,1723],[999,1804],[999,1879],[999,1955],[999,2029],[999,2106],[999,2173],[999,2248],[999,2323],[999,2398],[999,2473],[999,2555],[999,2629],[999,2702],[999,2778],[999,2847],[999,2928],[999,2997],[999,3078],[999,3155],[999,3228],[999,3301],[999,3378],[999,3454],[999,3528],[999,3604],[999,3672],[999,3753],[999,3829],[999,3903],[999,3979],[999,4052],[999,4128],[999,4202],[999,4272],[999,4353],[999,4422],[999,4503],[999,4578],[999,4647],[999,4722],[999,4801],[999,4872],[999,4947],[999,5027],[999,5103],[999,5172],[999,5254],[999,5322],[999,5396],[999,5477],[999,5546],[999,5621],[999,5704],[999,5777],[999,5846],[999,5924],[999,5996],[999,6077],[999,6146],[999,6221],[999,6300],[999,6371],[999,6446],[999,6521],[999,6596],[999,6678],[999,6746],[999,6821],[999,6896],[999,6971],[999,7045],[999,7124],[999,7195],[999,7271],[999,7351],[999,7421],[999,7501],[999,7570],[999,7650],[999,7725],[999,7801],[999,7877],[999,7951],[999,8020],[999,8099],[999,8170],[999,8252],[999,8320],[999,8395],[999,8470],[999,8545],[999,8626],[999,8701],[999,8776],[999,8851],[999,8925],[999,8995],[999,9070],[999,9145],[999,9225],[999,9295],[999,9370],[999,9451],[999,9525],[999,9594],[999,9670],[999,9750],[999,9826],[999,9895],[999,9969]]",1,0,666.1554,670.4102,39.7510981,3.129,"[{""rating"":39.751098096632504,""responseTime"":3.129000000000019}]",space,3.6865,,670.4104,All the time,100,670.4148,,,[],,0,6,6,6,1,audio/Narrative7Situation6.wav,audio/Narrative8Situation6.wav,audio/Narrative5Situation6.wav,audio/Narrative6Situation6.wav,3,2,3,2,,,,,,,,,,,,,,,,,,,,,,,,,,,,,,,,,,,,,,,
,,,,,,656e0dab178ffccdaa47202e,2024-05-13_10h51.49.622,group3.1-3.2-social-tom,2023.2.2,Win32,40,65c5074098b851296ff0b7ed,664252f7dc53bf4b50aa3dab,,,,,,,,,,,,,,,,,,,,,,,,,,,,,670.4154,1,audio/Narrative7Situation7.wav,675.4253,,675.4255,692.6172,"[[999,26],[999,99],[999,174],[999,249],[999,324],[999,399],[999,474],[999,549],[999,625],[999,699],[999,774],[999,849],[999,924],[999,999],[999,1074],[999,1149],[999,1223],[999,1298],[999,1373],[999,1449],[999,1523],[999,1598],[999,1673],[999,1748],[999,1823],[999,1898],[999,1973],[999,2048],[999,2123],[999,2198],[999,2273],[999,2348],[999,2423],[999,2498],[999,2573],[999,2647],[999,2723],[999,2798],[999,2873],[999,2948],[999,3023],[999,3098],[999,3173],[999,3248],[999,3323],[999,3398],[999,3473],[999,3548],[999,3623],[999,3697],[999,3773],[999,3847],[999,3922],[999,3997],[999,4072],[999,4147],[999,4222],[999,4297],[999,4372],[999,4447],[999,4522],[999,4597],[999,4672],[999,4747],[999,4822],[999,4897],[999,4972],[999,5047],[999,5122],[999,5197],[999,5272],[999,5347],[999,5422],[999,5497],[999,5572],[999,5646],[999,5721],[999,5797],[999,5872],[999,5946],[999,6021],[999,6097],[999,6173],[999,6248],[999,6323],[999,6397],[999,6472],[999,6547],[999,6622],[999,6696],[999,6772],[999,6847],[46.9,6921],[46.9,6996],[46.9,7071],[46.9,7146],[46.9,7221],[46.9,7295],[46.9,7371],[46.9,7446],[46.9,7521],[46.9,7596],[46.9,7671],[46.9,7745],[46.9,7820],[46.9,7895],[46.9,7970],[46.9,8045],[46.9,8120],[46.9,8195],[46.9,8270],[46.9,8345],[46.9,8420],[46.9,8495],[46.9,8571],[46.8,8645],[45.5,8721],[44.9,8795],[44.3,8870],[44.1,8945],[44.1,9020],[44.1,9095],[44.1,9170],[44.1,9244],[44.1,9319],[44.1,9394],[44.1,9469],[44.1,9545],[44.1,9619],[44.1,9694],[44.1,9769],[44.1,9844],[44.1,9919],[44.1,9994],[42.8,10069],[41.5,10144],[41.5,10219],[41.4,10294],[41.4,10369],[41.4,10444],[41.4,10519],[41.4,10594],[40.5,10669],[39.6,10744],[38.1,10819],[37.3,10894],[37.3,10969],[37.3,11044],[37.3,11119],[37.3,11194],[37.3,11268],[37.1,11344],[36.2,11419],[35.8,11493],[35.8,11568],[35.8,11644],[35.8,11718],[35.8,11793],[35.8,11868],[35.8,11943],[35.8,12019],[35.8,12093],[35.8,12168],[35.8,12243],[35.8,12318],[35.8,12393],[35.8,12468],[35.8,12543],[35.8,12618],[35.8,12693],[35.8,12768],[35.8,12843],[35.8,12918],[35.8,12993],[35.8,13068],[35.8,13142],[35.8,13218],[35.8,13293],[35.8,13368],[35.8,13443],[35.8,13518],[35.8,13593],[35.8,13668],[35.8,13743],[35.8,13818],[35.8,13893],[35.8,13967],[35.8,14042],[35.8,14117],[35.8,14192],[35.8,14268],[35.7,14343],[35.5,14417],[34.9,14493],[34.5,14567],[34.5,14642],[34.5,14717],[34.5,14792],[34.5,14867],[34.5,14942],[34.5,15017],[34.5,15092],[34.5,15167],[34.5,15242],[34.5,15317],[34.5,15392],[34.5,15467],[34.5,15542],[34.5,15617],[34.5,15691],[34.5,15767],[34.5,15842],[34.5,15917],[34.5,15991],[34.5,16066],[34.5,16141],[34.5,16216],[34.5,16291],[34.5,16366],[34.5,16442],[34.5,16516],[34.2,16591],[34.2,16666],[34.2,16741],[34.2,16816],[34.2,16891],[34.2,16966],[34.2,17041],[34.2,17116],[34.2,17191]]",1,0,692.6177,695.4406,34.18740849,1.1469,"[{""rating"":34.18740849194729,""responseTime"":1.1468999999760854}]",space,2.2614,,695.4408,Not at all,0,695.4508,,,[],,0,7,7,7,1,audio/Narrative7Situation7.wav,audio/Narrative8Situation7.wav,audio/Narrative5Situation7.wav,audio/Narrative6Situation7.wav,5,3,4,5,,,,,,,,,,,,,,,,,,,,,,,,,,,,,,,,,,,,,,,
,,,,,,656e0dab178ffccdaa47202e,2024-05-13_10h51.49.622,group3.1-3.2-social-tom,2023.2.2,Win32,40,65c5074098b851296ff0b7ed,664252f7dc53bf4b50aa3dab,,,,,,,,,,,,,,,,,,,,,,,,,,,,,695.4515,1,audio/Narrative7Situation8.wav,697.4647,,697.4647,707.51,"[[999,1],[999,74],[999,149],[999,224],[999,299],[999,374],[999,449],[999,524],[999,599],[999,674],[999,749],[999,824],[999,899],[999,974],[999,1049],[999,1124],[999,1199],[999,1274],[999,1349],[999,1423],[999,1499],[999,1574],[999,1649],[999,1723],[999,1798],[999,1873],[999,1948],[999,2024],[999,2098],[999,2173],[999,2248],[999,2323],[999,2398],[999,2473],[999,2548],[999,2623],[999,2698],[999,2773],[999,2848],[999,2923],[999,2998],[999,3073],[999,3148],[999,3223],[999,3298],[999,3373],[999,3448],[999,3523],[999,3598],[999,3673],[999,3748],[999,3822],[999,3897],[999,3972],[999,4047],[999,4123],[999,4197],[999,4272],[999,4348],[999,4422],[999,4497],[999,4572],[999,4647],[999,4722],[999,4797],[999,4872],[999,4947],[999,5022],[999,5097],[999,5172],[999,5247],[999,5322],[999,5397],[999,5472],[999,5547],[999,5622],[999,5697],[999,5772],[999,5846],[999,5922],[999,5996],[999,6071],[999,6146],[999,6221],[999,6296],[999,6371],[999,6446],[999,6521],[999,6596],[999,6671],[999,6746],[999,6821],[999,6896],[999,6971],[999,7046],[999,7121],[999,7196],[999,7271],[999,7346],[999,7421],[999,7496],[999,7571],[999,7646],[999,7721],[999,7796],[999,7871],[999,7946],[999,8020],[999,8095],[999,8170],[999,8245],[999,8320],[999,8395],[999,8470],[999,8545],[999,8620],[999,8695],[999,8770],[999,8845],[999,8920],[999,8995],[999,9070],[999,9145],[999,9220],[999,9295],[999,9370],[999,9445],[999,9520],[999,9594],[999,9670],[999,9745],[999,9820],[999,9895],[999,9969],[999,10044]]",1,0,707.5104,711.1085,46.04685212,2.5011,"[{""rating"":46.04685212298683,""responseTime"":2.5011000000238255}]",space,3.0336,,711.1087,All the time,100,717.6299,99.34114202,4.3249,"[{""rating"":99.3411420204978,""responseTime"":4.324900000095454}]",space,0,8,8,8,1,audio/Narrative7Situation8.wav,audio/Narrative8Situation8.wav,audio/Narrative5Situation8.wav,audio/Narrative6Situation8.wav,2,3,3,5,,,5.96,,,,,,,,,,,,,,,,,,,,,,,,,,,,,,,,,,,,
,,,,,,656e0dab178ffccdaa47202e,2024-05-13_10h51.49.622,group3.1-3.2-social-tom,2023.2.2,Win32,40,65c5074098b851296ff0b7ed,664252f7dc53bf4b50aa3dab,,,,,,,,,,,,,,,,,,,,,,,,,,,,,717.6571,1,audio/Narrative7Situation9.wav,719.6787,,719.6787,728.3496,"[[999,1],[999,74],[999,149],[999,224],[999,299],[999,375],[999,449],[999,524],[999,599],[999,674],[999,750],[999,824],[999,899],[999,974],[999,1049],[999,1124],[999,1199],[999,1274],[999,1349],[999,1424],[999,1499],[999,1574],[999,1649],[999,1724],[999,1799],[999,1874],[999,1949],[999,2023],[999,2099],[999,2173],[999,2249],[999,2323],[999,2399],[999,2473],[999,2548],[999,2623],[999,2699],[999,2774],[999,2850],[999,2924],[56.1,2999],[54.5,3075],[53.2,3149],[51.2,3224],[51,3299],[51,3373],[51,3448],[51,3522],[51,3597],[51,3672],[51,3748],[51,3823],[51,3898],[51,3973],[49.9,4048],[49.9,4122],[49.9,4197],[49.9,4272],[49.9,4347],[49.9,4422],[49.9,4498],[49.9,4572],[49.9,4647],[49.9,4722],[49.9,4797],[49.9,4872],[49.9,4947],[49.9,5022],[49.9,5097],[49.9,5172],[49.9,5247],[49.9,5322],[49.9,5397],[49.9,5472],[49.9,5547],[49.9,5622],[49.9,5697],[49.9,5772],[49.9,5847],[49.9,5922],[49.9,5996],[49.9,6072],[49.9,6146],[49.9,6221],[49.9,6296],[49.9,6371],[49.9,6446],[49.9,6521],[49.9,6596],[49.9,6671],[49.9,6746],[49.9,6821],[49.9,6896],[49.9,6971],[49.9,7046],[49.9,7121],[49.9,7196],[49.9,7271],[49.9,7346],[49.9,7421],[49.9,7496],[49.9,7571],[49.9,7646],[49.9,7721],[49.9,7796],[49.9,7871],[49.9,7946],[49.9,8020],[49.9,8096],[49.9,8171],[49.9,8245],[49.9,8320],[49.9,8395],[49.9,8470],[49.9,8545],[49.9,8620]]",1,0,728.35,734.2218,45.46120059,4.612,"[{""rating"":43.411420204978036,""responseTime"":4.020400000095265},{""rating"":45.46120058565154,""responseTime"":4.611999999999966}]",space,5.3209,,734.2218,All the time,100,734.2273,,,[],,0,9,9,9,1,audio/Narrative7Situation9.wav,audio/Narrative8Situation9.wav,audio/Narrative5Situation9.wav,audio/Narrative6Situation9.wav,2,3,3,4,,,,,,,,,,,,,,,,,,,,,,,,,,,,,,,,,,,,,,,
,,,,,,656e0dab178ffccdaa47202e,2024-05-13_10h51.49.622,group3.1-3.2-social-tom,2023.2.2,Win32,40,65c5074098b851296ff0b7ed,664252f7dc53bf4b50aa3dab,,,,,,,,,,,,,,,,,,,,,,,,,,,,,734.2281,1,audio/Narrative8Situation1.wav,739.2439,,739.2439,755.1613,"[[999,11],[999,75],[999,150],[999,225],[999,300],[999,374],[999,450],[999,524],[999,599],[999,675],[999,750],[999,824],[999,900],[999,974],[999,1049],[999,1124],[999,1199],[999,1274],[999,1349],[999,1424],[999,1499],[999,1574],[999,1649],[999,1723],[999,1798],[999,1873],[999,1949],[47.7,2024],[47.1,2099],[51.6,2549],[51.6,2624],[51,2698],[50.1,2774],[50.1,2848],[50.1,2923],[51,2998],[55.3,3073],[62.2,3148],[67.9,3223],[69.3,3298],[69.8,3373],[67.6,3448],[62.6,3523],[59.1,3598],[55.9,3673],[53.4,3748],[52.2,3823],[51.2,3898],[50.9,3972],[50.9,4047],[50.6,4123],[50.1,4197],[50.1,4272],[49.7,4347],[49.7,4422],[49.7,4497],[49.7,4572],[49.7,4647],[49.7,4722],[49.7,4797],[49.7,4872],[49.7,4947],[49.7,5022],[49.7,5097],[49.7,5172],[49.7,5247],[49.7,5322],[49.7,5397],[49.7,5472],[49.7,5546],[49.7,5622],[49.7,5697],[49.7,5772],[49.7,5847],[49.7,5922],[49.7,5997],[49.7,6072],[49.7,6147],[49.7,6222],[49.7,6297],[49.7,6372],[49.7,6446],[49.7,6521],[49.7,6596],[49.7,6671],[49.7,6746],[49.7,6822],[49.7,6896],[49.7,6971],[49.7,7046],[49.7,7121],[49.7,7196],[49.7,7271],[49.7,7346],[49.7,7421],[49.7,7496],[49.7,7571],[49.7,7646],[49.7,7721],[49.7,7796],[49.7,7871],[49.7,7946],[49.7,8021],[49.7,8096],[49.7,8171],[49.7,8246],[49.7,8321],[49.7,8396],[49.7,8471],[49.7,8546],[49.7,8621],[49.7,8696],[49.7,8771],[49.7,8845],[49.7,8921],[49.7,8995],[49.7,9070],[49.7,9145],[49.7,9220],[49.7,9295],[49.7,9370],[49.7,9445],[49.7,9520],[49.7,9595],[49.7,9670],[49.7,9745],[49.7,9820],[49.7,9895],[49.7,9970],[49.7,10045],[49.7,10120],[49.7,10195],[49.7,10270],[49.7,10345],[49.7,10420],[49.7,10495],[49.7,10570],[49.7,10645],[49.7,10720],[49.7,10794],[49.7,10870],[49.7,10944],[49.7,11019],[49.7,11094],[49.7,11169],[49.7,11244],[49.7,11319],[49.7,11394],[49.7,11469],[49.7,11544],[49.7,11619],[49.7,11694],[49.7,11769],[49.7,11844],[49.7,11919],[49.7,11994],[49.7,12069],[49.7,12145],[49.7,12219],[49.7,12294],[49.7,12368],[49.7,12443],[49.7,12518],[49.7,12594],[49.7,12668],[49.7,12744],[49.7,12818],[49.7,12894],[49.7,12968],[49.7,13043],[49.7,13118],[49.7,13193],[49.7,13268],[49.7,13343],[49.7,13418],[49.7,13493],[49.7,13568],[49.7,13643],[49.7,13718],[49.7,13793],[49.7,13868],[49.7,13943],[49.7,14018],[49.7,14093],[49.7,14168],[49.7,14243],[49.7,14317],[49.7,14392],[49.7,14468],[49.7,14543],[49.7,14618],[49.7,14693],[49.7,14768],[49.7,14843],[49.7,14918],[49.7,14992],[49.7,15067],[49.7,15142],[49.7,15217],[49.7,15292],[49.7,15367],[49.7,15442],[49.7,15517],[49.7,15592],[49.7,15667],[49.7,15742],[49.7,15817],[49.7,15892]]",1,0,755.1617,760.8585,31.55197657,4.3079,"[{""rating"":31.551976573938507,""responseTime"":4.307899999976144}]",space,5.1301,,760.8585,All the time,100,760.8612,,,[],,0,10,10,10,1,audio/Narrative8Situation1.wav,audio/Narrative7Situation1.wav,audio/Narrative6Situation1.wav,audio/Narrative5Situation1.wav,5,2,2,5,,,,,,,,,,,,,,,,,,,,,,,,,,,,,,,,,,,,,,,
,,,,,,656e0dab178ffccdaa47202e,2024-05-13_10h51.49.622,group3.1-3.2-social-tom,2023.2.2,Win32,40,65c5074098b851296ff0b7ed,664252f7dc53bf4b50aa3dab,,,,,,,,,,,,,,,,,,,,,,,,,,,,,760.8617,1,audio/Narrative8Situation2.wav,763.8818,,763.8818,774.0284,"[[999,14],[999,100],[999,174],[999,249],[999,324],[999,399],[999,474],[999,550],[999,625],[999,699],[999,775],[999,849],[999,924],[999,999],[999,1074],[999,1149],[50.1,1224],[50.1,1299],[50.1,1374],[50.1,1449],[50.1,1524],[50.1,1599],[50.1,1674],[50.1,1749],[50.1,1824],[50.1,1899],[50.1,1974],[50.1,2048],[50.1,2124],[50.1,2198],[50.1,2273],[50.1,2348],[50.1,2423],[50.1,2498],[50.1,2573],[50.1,2648],[50.1,2723],[50.1,2798],[50.1,2873],[50.1,2948],[50.1,3023],[50.1,3098],[50.1,3173],[50.1,3248],[50.1,3323],[50.1,3398],[50.1,3473],[50.1,3548],[50.1,3623],[50.1,3698],[50.1,3773],[50.1,3848],[50.1,3923],[50.1,3998],[50.1,4073],[50.1,4147],[50.1,4222],[50.1,4297],[50.1,4372],[50.1,4447],[50.1,4522],[50.1,4597],[50.1,4672],[50.1,4747],[50.1,4822],[50.1,4897],[50.1,4972],[50.1,5047],[50.1,5123],[50.1,5197],[50.1,5272],[50.1,5347],[50.1,5422],[50.1,5497],[50.1,5572],[50.1,5647],[50.1,5722],[50.1,5797],[50.1,5872],[50.1,5947],[50.1,6022],[50.1,6097],[50.1,6172],[50.1,6247],[50.1,6322],[50.1,6397],[50.1,6472],[50.1,6547],[50.1,6622],[50.1,6697],[50.1,6772],[50.1,6847],[50.1,6922],[50.1,6996],[50.1,7072],[50.1,7146],[50.1,7221],[50.1,7296],[50.1,7371],[50.1,7446],[50.1,7521],[50.1,7596],[50.1,7671],[50.1,7746],[50.1,7821],[50.1,7896],[50.1,7971],[50.1,8046],[50.1,8121],[50.1,8196],[50.1,8271],[50.1,8346],[50.1,8421],[50.1,8496],[50.1,8571],[50.1,8646],[50.1,8720],[50.1,8795],[50.1,8870],[50.1,8945],[50.1,9020],[50.1,9096],[50.1,9170],[50.1,9246],[50.1,9321],[50.1,9395],[50.1,9470],[50.1,9545],[50.1,9620],[50.1,9695],[50.1,9770],[50.1,9845],[50.1,9920],[50.1,9995],[50.1,10070],[50.1,10145]]",1,0,774.029,777.2759,57.4670571,1.444,"[{""rating"":57.467057101024885,""responseTime"":1.44399999999996}]",space,2.6747,,777.276,All the time,100,777.2813,,,[],,0,11,11,11,1,audio/Narrative8Situation2.wav,audio/Narrative7Situation2.wav,audio/Narrative6Situation2.wav,audio/Narrative5Situation2.wav,3,3,3,3,,,,,,,,,,,,,,,,,,,,,,,,,,,,,,,,,,,,,,,
,,,,,,656e0dab178ffccdaa47202e,2024-05-13_10h51.49.622,group3.1-3.2-social-tom,2023.2.2,Win32,40,65c5074098b851296ff0b7ed,664252f7dc53bf4b50aa3dab,,,,,,,,,,,,,,,,,,,,,,,,,,,,,777.2819,1,audio/Narrative8Situation3.wav,781.2987,,781.2988,803.7133,"[[999,23],[999,99],[999,174],[999,249],[999,324],[999,399],[999,474],[999,549],[999,624],[999,699],[999,774],[999,849],[999,924],[999,999],[999,1074],[999,1149],[999,1224],[999,1299],[999,1374],[999,1449],[999,1524],[999,1599],[999,1674],[999,1749],[999,1824],[999,1899],[999,1974],[999,2049],[999,2124],[999,2198],[999,2273],[999,2348],[999,2423],[999,2498],[999,2573],[999,2648],[999,2723],[999,2798],[999,2873],[999,2948],[999,3023],[999,3098],[999,3173],[999,3248],[999,3323],[999,3397],[999,3473],[999,3548],[999,3623],[999,3698],[999,3773],[999,3848],[999,3923],[999,3998],[999,4073],[999,4148],[999,4222],[999,4297],[999,4372],[999,4447],[999,4522],[999,4597],[999,4672],[999,4747],[999,4822],[999,4897],[999,4972],[999,5047],[999,5122],[999,5197],[999,5272],[999,5347],[999,5422],[999,5497],[999,5572],[999,5647],[999,5722],[999,5797],[999,5872],[999,5947],[999,6021],[999,6096],[999,6172],[999,6247],[999,6321],[999,6396],[999,6471],[999,6546],[999,6621],[999,6696],[999,6771],[999,6846],[999,6921],[999,6996],[999,7071],[999,7146],[999,7221],[999,7296],[999,7371],[999,7446],[999,7521],[999,7596],[999,7671],[999,7746],[999,7821],[999,7896],[999,7971],[999,8045],[999,8120],[999,8195],[999,8270],[999,8346],[999,8420],[999,8495],[999,8570],[999,8645],[999,8720],[999,8795],[999,8870],[999,8945],[999,9020],[999,9095],[999,9170],[999,9245],[999,9320],[999,9395],[999,9470],[999,9545],[999,9620],[999,9695],[999,9770],[999,9845],[999,9920],[999,9995],[999,10069],[999,10145],[999,10219],[999,10294],[999,10369],[999,10444],[999,10519],[999,10594],[999,10669],[999,10744],[999,10819],[999,10894],[999,10969],[999,11044],[999,11119],[999,11194],[999,11269],[999,11344],[999,11419],[999,11494],[999,11569],[999,11644],[999,11719],[999,11794],[999,11869],[999,11944],[999,12019],[999,12094],[999,12169],[999,12244],[999,12319],[999,12393],[999,12468],[999,12543],[999,12618],[999,12693],[999,12768],[999,12843],[999,12918],[999,12993],[999,13068],[999,13143],[999,13218],[999,13293],[999,13369],[999,13443],[999,13518],[999,13592],[999,13669],[999,13743],[999,13819],[999,13894],[999,13970],[49.4,14057],[50,14119],[50.3,14193],[50.3,14269],[50.3,14342],[50.3,14418],[50.3,14492],[50.3,14568],[50.3,14642],[50.3,14717],[50.3,14792],[50.3,14867],[50.3,14942],[50.3,15017],[50.3,15092],[50.3,15167],[50.3,15242],[50.3,15317],[50.3,15392],[50.6,15468],[51.5,15542],[51.8,15619],[52,15692],[52,15767],[52,15842],[53.4,15918],[53.7,15992],[53.7,16067],[53.7,16141],[53.7,16216],[53.7,16291],[53.7,16366],[53.7,16441],[53.7,16516],[53.7,16591],[53.7,16666],[53.7,16741],[53.7,16816],[53.7,16891],[53.7,16966],[53.7,17041],[53.7,17116],[53.7,17191],[53.7,17266],[53.7,17341],[53.7,17416],[53.7,17491],[53.7,17566],[53.7,17641],[53.7,17716],[53.7,17791],[53.7,17866],[53.7,17941],[53.7,18016],[53.7,18091],[53.7,18166],[53.7,18241],[53.7,18316],[53.7,18390],[54.5,18466],[54.7,18540],[54.7,18615],[54.7,18690],[54.7,18765],[54.7,18840],[54.7,18915],[54.7,18990],[54.7,19065],[54.7,19142],[54.7,19215],[54.7,19290],[54.7,19365],[54.7,19440],[54.7,19515],[54.7,19590],[54.7,19665],[54.7,19740],[54.7,19815],[54.7,19890],[54.7,19964],[54.7,20039],[54.7,20115],[54.7,20189],[54.7,20264],[54.7,20339],[55.3,20415],[55.3,20489],[55.3,20564],[55.3,20639],[55.3,20714],[55.3,20789],[55.3,20864],[55.3,20939],[55.3,21015],[55.3,21089],[55.3,21165],[55.3,21239],[55.3,21314],[55.3,21389],[55.3,21464],[55.3,21539],[55.3,21614],[55.3,21689],[55.3,21764],[55.3,21839],[55.3,21914],[55.3,21989],[55.3,22063],[55.3,22139],[55.3,22214],[55.3,22289],[55.3,22364]]",1,0,803.7138,807.2863,55.41727672,1.3035,"[{""rating"":55.417276720351396,""responseTime"":1.3034999999999854}]",space,3.0184,,807.2864,All the time,100,807.2918,,,[],,0,12,12,12,1,audio/Narrative8Situation3.wav,audio/Narrative7Situation3.wav,audio/Narrative6Situation3.wav,audio/Narrative5Situation3.wav,4,8,5,3,,,,,,,,,,,,,,,,,,,,,,,,,,,,,,,,,,,,,,,
,,,,,,656e0dab178ffccdaa47202e,2024-05-13_10h51.49.622,group3.1-3.2-social-tom,2023.2.2,Win32,40,65c5074098b851296ff0b7ed,664252f7dc53bf4b50aa3dab,,,,,,,,,,,,,,,,,,,,,,,,,,,,,807.2925,1,audio/Narrative8Situation4.wav,810.3097,,810.3099,824.5031,"[[999,24],[999,99],[999,174],[999,249],[999,324],[999,399],[999,474],[999,549],[999,624],[999,699],[999,774],[999,849],[999,924],[999,999],[999,1074],[999,1149],[999,1224],[999,1299],[999,1374],[999,1449],[999,1524],[999,1598],[999,1673],[999,1748],[999,1823],[999,1898],[999,1973],[999,2048],[999,2123],[999,2198],[999,2273],[999,2348],[999,2424],[51,2499],[50.4,2573],[50.4,2648],[50.4,2723],[50.4,2798],[50.4,2873],[50.4,2948],[50.4,3023],[50.4,3097],[50.4,3173],[50.4,3248],[50.3,3323],[50.3,3398],[50.3,3473],[50.3,3548],[50.3,3622],[50.3,3697],[50.3,3772],[50.3,3848],[50.3,3922],[50.3,3998],[50.3,4072],[50.3,4147],[50.3,4222],[50.3,4297],[50.3,4372],[50.3,4447],[50.3,4522],[50.3,4597],[50.3,4672],[50.3,4747],[50.3,4822],[50.3,4897],[50.3,4972],[50.3,5047],[50.3,5122],[50.3,5197],[50.3,5272],[50.3,5347],[50.3,5422],[50.3,5497],[50.3,5572],[50.3,5647],[50.3,5722],[50.3,5796],[50.3,5871],[50.3,5946],[50.3,6021],[50.3,6097],[50.3,6171],[50.3,6246],[50.3,6321],[50.3,6397],[50.3,6471],[50.3,6546],[50.3,6621],[50.3,6696],[50.3,6771],[50.3,6846],[50.3,6921],[50.3,6996],[50.3,7071],[50.3,7146],[50.3,7221],[50.3,7296],[50.3,7371],[50.3,7446],[50.3,7521],[50.3,7596],[50.3,7671],[50.3,7746],[50.3,7820],[50.3,7895],[50.3,7970],[50.3,8046],[50.3,8120],[50.3,8195],[50.3,8270],[50.3,8345],[50.3,8420],[50.3,8495],[50.3,8570],[50.3,8645],[50.3,8720],[50.3,8795],[50.3,8870],[50.3,8945],[50.3,9020],[50.3,9095],[50.3,9170],[50.3,9246],[50.3,9320],[50.3,9395],[50.3,9470],[50.3,9544],[50.3,9619],[50.3,9694],[50.3,9769],[50.3,9844],[50.3,9919],[50.3,9994],[50.3,10069],[50.3,10144],[50.3,10219],[50.3,10294],[50.3,10369],[50.3,10444],[50.3,10519],[50.3,10594],[50.3,10669],[50.3,10744],[50.3,10819],[50.3,10894],[50.3,10969],[50.3,11044],[50.3,11119],[50.3,11194],[50.3,11269],[50.3,11344],[50.3,11419],[50.3,11494],[50.3,11569],[50.3,11644],[50.3,11719],[50.3,11794],[50.3,11869],[50.3,11944],[50.3,12018],[50.3,12093],[50.3,12168],[50.3,12243],[50.3,12319],[50.3,12393],[50.3,12468],[50.3,12543],[50.3,12618],[50.3,12693],[50.3,12768],[50.3,12843],[50.3,12918],[50.3,12993],[50.3,13068],[50.3,13143],[50.3,13218],[50.3,13293],[50.3,13368],[50.3,13443],[50.3,13518],[50.3,13593],[50.3,13668],[50.3,13743],[50.3,13818],[50.3,13893],[50.3,13968],[50.3,14042],[50.3,14117],[50.3,14192]]",1,0,824.5035,829.1506,29.79502196,2.8281,"[{""rating"":29.79502196193265,""responseTime"":2.82809999990468}]",space,4.0757,,829.1508,Not at all,0,829.1598,,,[],,0,13,13,13,1,audio/Narrative8Situation4.wav,audio/Narrative7Situation4.wav,audio/Narrative6Situation4.wav,audio/Narrative5Situation4.wav,3,3,2,1,,,,,,,,,,,,,,,,,,,,,,,,,,,,,,,,,,,,,,,
,,,,,,656e0dab178ffccdaa47202e,2024-05-13_10h51.49.622,group3.1-3.2-social-tom,2023.2.2,Win32,40,65c5074098b851296ff0b7ed,664252f7dc53bf4b50aa3dab,,,,,,,,,,,,,,,,,,,,,,,,,,,,,829.1604,1,audio/Narrative8Situation5.wav,831.1744,,831.1745,839.4458,"[[999,0],[999,74],[999,149],[999,224],[999,299],[999,374],[999,449],[999,524],[999,599],[999,674],[999,750],[999,825],[999,899],[999,974],[49,1050],[47.5,1124],[47.2,1199],[47.2,1274],[47.2,1349],[47.7,1423],[48.2,1499],[49.7,1574],[50.1,1648],[50.1,1723],[50.1,1798],[50.1,1874],[50.1,1949],[50.1,2024],[50.1,2099],[50.1,2173],[50.1,2248],[50.1,2323],[50.1,2398],[50.1,2473],[50.1,2548],[50.1,2623],[50.1,2698],[50.1,2773],[50.1,2848],[50.1,2923],[50.1,2998],[50.1,3073],[50.1,3148],[50.1,3223],[50.1,3298],[50.1,3373],[50.1,3448],[50.1,3523],[50.1,3598],[50.1,3673],[50.1,3748],[50.1,3823],[50.1,3898],[50.1,3973],[50.1,4048],[50.1,4123],[50.1,4197],[50.1,4273],[50.1,4348],[50.1,4423],[50.1,4497],[50.1,4572],[50.1,4647],[50.1,4722],[50.1,4797],[50.1,4872],[50.1,4947],[50.1,5022],[50.1,5097],[50.1,5172],[50.1,5247],[50.1,5322],[50.1,5397],[50.1,5472],[50.1,5547],[50.1,5622],[50.1,5697],[50.1,5772],[50.1,5847],[50.1,5922],[50.1,5996],[50.1,6072],[50.1,6147],[50.1,6222],[50.1,6296],[50.1,6372],[50.1,6446],[50.1,6521],[50.1,6596],[50.1,6671],[50.1,6746],[50.1,6821],[50.1,6896],[50.1,6971],[50.1,7046],[50.1,7121],[50.1,7196],[50.1,7271],[50.1,7346],[50.1,7421],[50.1,7496],[50.1,7571],[50.1,7646],[50.1,7721],[50.1,7796],[50.1,7871],[50.1,7946],[50.1,8021],[50.1,8096],[50.1,8171],[50.1,8245]]",1,0,839.4463,843.1688,54.83162518,2.1877,"[{""rating"":54.83162518301611,""responseTime"":2.1877000000476983}]",space,3.1516,,843.169,All the time,100,843.1782,,,[],,0,14,14,14,1,audio/Narrative8Situation5.wav,audio/Narrative7Situation5.wav,audio/Narrative6Situation5.wav,audio/Narrative5Situation5.wav,2,5,2,5,,,,,,,,,,,,,,,,,,,,,,,,,,,,,,,,,,,,,,,
,,,,,,656e0dab178ffccdaa47202e,2024-05-13_10h51.49.622,group3.1-3.2-social-tom,2023.2.2,Win32,40,65c5074098b851296ff0b7ed,664252f7dc53bf4b50aa3dab,,,,,,,,,,,,,,,,,,,,,,,,,,,,,843.179,1,audio/Narrative8Situation6.wav,845.1928,,845.1928,851.6899,"[[999,1],[999,75],[999,149],[999,224],[999,299],[999,374],[999,449],[999,524],[999,599],[999,674],[999,750],[999,824],[999,900],[999,976],[999,1050],[49.6,1125],[50,1199],[50,1276],[50,1348],[50,1424],[50,1499],[50,1574],[50,1649],[50,1724],[50,1798],[50,1874],[50,1948],[50,2023],[50,2098],[50,2173],[50,2248],[50,2323],[50,2398],[50,2473],[50.6,2549],[50.6,2623],[50.6,2698],[50.9,2773],[50.9,2848],[50.9,2923],[50.9,2998],[50.9,3073],[50.9,3148],[50.9,3223],[50.9,3298],[50.9,3373],[50.9,3448],[50.3,3524],[50.1,3598],[50.1,3673],[50.1,3748],[50.1,3822],[50.1,3898],[50.1,3972],[50.1,4047],[50.1,4122],[50,4198],[50,4273],[50,4347],[50,4422],[50,4497],[50,4572],[50,4647],[50,4722],[50,4797],[50,4872],[50,4947],[50,5022],[50,5096],[50,5171],[50,5247],[50,5322],[50,5397],[50,5472],[50,5547],[50,5622],[50,5697],[50,5772],[50,5847],[50,5921],[50,5996],[50,6071],[50,6146],[50,6221],[50,6296],[50,6371],[50,6446]]",1,0,851.6902,860.2856,58.05270864,6.2525,"[{""rating"":54.978038067349935,""responseTime"":2.2938000000714283},{""rating"":58.05270863836017,""responseTime"":6.252499999999941}]",space,8.0241,,860.2858,All the time,100,860.2917,,,[],,0,15,15,15,1,audio/Narrative8Situation6.wav,audio/Narrative7Situation6.wav,audio/Narrative6Situation6.wav,audio/Narrative5Situation6.wav,2,3,2,3,,,,,,,,,,,,,,,,,,,,,,,,,,,,,,,,,,,,,,,
,,,,,,656e0dab178ffccdaa47202e,2024-05-13_10h51.49.622,group3.1-3.2-social-tom,2023.2.2,Win32,40,65c5074098b851296ff0b7ed,664252f7dc53bf4b50aa3dab,,,,,,,,,,,,,,,,,,,,,,,,,,,,,860.2923,1,audio/Narrative8Situation7.wav,863.3091,,863.3092,875.428,"[[999,27],[999,99],[999,174],[999,249],[999,324],[999,399],[999,474],[999,549],[999,624],[999,699],[47.8,775],[48.4,850],[48.8,924],[48.8,998],[49.7,1074],[49.7,1148],[50,1223],[50,1298],[50,1374],[50,1448],[50,1523],[50,1598],[50,1673],[50,1748],[50,1823],[50,1898],[50,1973],[50,2048],[50,2123],[50,2198],[50,2273],[50,2348],[50,2423],[50,2498],[50,2573],[50,2648],[50,2723],[50,2798],[50,2873],[50,2948],[50,3023],[50,3098],[50,3173],[50,3248],[50,3323],[50,3398],[50,3472],[50,3548],[50,3623],[50,3697],[50,3772],[50,3847],[50,3922],[50,3997],[50,4072],[50,4147],[50,4222],[50,4297],[50,4372],[50,4447],[50,4522],[50,4597],[50,4672],[50,4747],[50,4822],[50,4897],[50,4972],[50,5047],[50,5122],[50,5196],[50,5271],[50,5346],[50,5422],[50,5496],[50,5572],[50,5646],[50,5721],[50,5796],[50,5871],[50,5946],[50,6021],[50,6096],[50,6171],[50,6246],[50,6321],[50,6396],[50,6471],[50,6546],[50,6621],[50,6696],[50,6771],[50,6846],[50,6921],[50,6996],[50,7071],[50,7146],[50,7221],[50,7296],[50,7370],[50,7446],[50,7520],[50,7596],[50,7671],[50,7745],[50,7820],[50,7895],[50,7970],[50,8045],[50,8120],[50,8195],[50,8270],[50,8345],[50,8420],[50,8495],[50,8570],[50,8645],[50,8720],[50,8795],[50,8870],[50,8945],[50,9020],[50,9095],[50,9170],[50,9245],[50,9320],[50,9395],[50,9470],[50,9545],[50,9620],[50,9695],[50,9769],[50,9844],[50,9919],[50,9994],[50,10069],[50,10144],[50,10219],[50,10294],[50,10369],[50,10444],[50,10519],[50,10594],[50,10669],[50,10744],[50,10819],[50,10894],[50,10969],[50,11044],[50,11119],[50,11194],[50,11269],[50,11344],[50,11419],[50,11494],[50,11568],[50,11644],[50,11718],[50,11793],[50,11869],[50,11943],[50,12018],[50,12093]]",1,0,875.4283,879.976,35.9443631,3.1286,"[{""rating"":35.94436310395315,""responseTime"":3.1286000000237664}]",space,3.9743,,879.9761,All the time,100,879.9814,,,[],,0,16,16,16,1,audio/Narrative8Situation7.wav,audio/Narrative7Situation7.wav,audio/Narrative6Situation7.wav,audio/Narrative5Situation7.wav,3,5,5,4,,,,,,,,,,,,,,,,,,,,,,,,,,,,,,,,,,,,,,,
,,,,,,656e0dab178ffccdaa47202e,2024-05-13_10h51.49.622,group3.1-3.2-social-tom,2023.2.2,Win32,40,65c5074098b851296ff0b7ed,664252f7dc53bf4b50aa3dab,,,,,,,,,,,,,,,,,,,,,,,,,,,,,879.982,1,audio/Narrative8Situation8.wav,882.9993,,882.9996,895.8933,"[[999,1],[999,74],[999,149],[999,225],[999,299],[999,374],[999,449],[999,524],[999,599],[999,674],[999,749],[999,824],[999,899],[999,974],[999,1049],[999,1124],[999,1198],[999,1273],[999,1348],[999,1423],[999,1498],[999,1573],[999,1648],[999,1723],[999,1798],[999,1873],[999,1948],[999,2023],[999,2098],[999,2173],[999,2248],[999,2323],[999,2398],[999,2473],[999,2548],[999,2623],[999,2698],[999,2773],[999,2848],[999,2923],[999,2998],[999,3073],[999,3147],[999,3223],[999,3298],[999,3373],[999,3447],[999,3522],[999,3597],[999,3672],[999,3747],[999,3822],[999,3897],[999,3972],[999,4047],[999,4122],[999,4197],[999,4272],[999,4347],[999,4422],[999,4497],[999,4572],[999,4647],[999,4722],[999,4797],[999,4872],[999,4947],[999,5022],[999,5097],[999,5172],[999,5247],[999,5322],[999,5396],[999,5471],[999,5546],[999,5621],[999,5696],[999,5771],[999,5846],[999,5921],[999,5996],[999,6071],[999,6146],[999,6221],[999,6296],[999,6371],[999,6446],[999,6521],[999,6596],[999,6671],[999,6746],[999,6821],[999,6896],[999,6971],[999,7046],[999,7121],[999,7196],[999,7271],[999,7346],[999,7421],[999,7495],[999,7571],[999,7645],[999,7720],[999,7795],[999,7870],[999,7945],[999,8020],[999,8095],[999,8170],[999,8245],[999,8320],[999,8395],[999,8470],[999,8545],[999,8620],[999,8695],[999,8770],[999,8845],[999,8920],[999,8995],[999,9070],[999,9145],[999,9220],[999,9295],[999,9370],[999,9445],[999,9519],[999,9595],[999,9670],[999,9744],[999,9819],[999,9894],[999,9969],[999,10044],[999,10119],[999,10194],[999,10269],[999,10344],[999,10419],[999,10494],[999,10569],[999,10644],[999,10719],[999,10794],[999,10869],[999,10944],[999,11019],[999,11094],[999,11169],[999,11244],[999,11319],[999,11394],[999,11468],[999,11544],[999,11618],[999,11693],[999,11769],[999,11844],[999,11918],[999,11993],[999,12068],[999,12143],[999,12218],[999,12293],[999,12368],[999,12443],[999,12518],[999,12593],[999,12668],[999,12743],[999,12818],[999,12893]]",1,0,895.8938,903.4895,30.08784773,5.7438,"[{""rating"":30.08784773060029,""responseTime"":5.743800000071587}]",space,7.0249,,903.4896,All the time,100,903.4946,,,[],,0,17,17,17,1,audio/Narrative8Situation8.wav,audio/Narrative7Situation8.wav,audio/Narrative6Situation8.wav,audio/Narrative5Situation8.wav,3,2,5,3,,,,,,,,,,,,,,,,,,,,,,,,,,,,,,,,,,,,,,,
,,,,,,656e0dab178ffccdaa47202e,2024-05-13_10h51.49.622,group3.1-3.2-social-tom,2023.2.2,Win32,40,65c5074098b851296ff0b7ed,664252f7dc53bf4b50aa3dab,,,,,,,,,,,,,,,,,,,,,,,,,,,,,903.4952,1,audio/Narrative8Situation9.wav,906.5129,,906.513,917.8579,"[[999,27],[999,99],[999,174],[999,249],[999,324],[999,399],[999,474],[999,549],[999,624],[999,699],[999,774],[999,849],[999,924],[999,998],[999,1073],[999,1149],[999,1223],[999,1298],[999,1373],[999,1449],[999,1524],[999,1599],[999,1676],[48,1749],[48,1825],[47.8,1900],[47.8,1974],[47.8,2048],[47.8,2123],[48.4,2198],[48.7,2273],[49.9,2349],[50.9,2423],[51.3,2498],[51.3,2573],[51.3,2648],[51.3,2723],[51.3,2798],[51.3,2873],[51.3,2948],[51.3,3023],[51.3,3098],[51.3,3173],[51.3,3249],[51.3,3323],[50.7,3399],[50.4,3473],[50.4,3548],[50.4,3623],[50.4,3697],[50.4,3772],[50.4,3847],[49.7,3924],[49.4,3998],[49.4,4072],[49.4,4147],[49.4,4222],[49.4,4297],[49.4,4372],[49.4,4447],[49.4,4522],[49.3,4597],[49.3,4672],[49.3,4747],[49.3,4822],[49.3,4897],[49.3,4972],[49.3,5047],[49.3,5122],[49.3,5197],[49.3,5272],[49.3,5347],[49.3,5422],[49.3,5497],[49.3,5572],[49.3,5647],[49.3,5722],[49.3,5796],[49.3,5872],[49.3,5947],[49.3,6021],[49.3,6096],[49.3,6171],[49.3,6246],[49.3,6321],[49.3,6396],[49.3,6471],[49.3,6546],[49.3,6621],[49.3,6696],[49.3,6771],[49.3,6846],[49.3,6921],[49.3,6996],[49.3,7071],[49.3,7146],[49.3,7221],[49.3,7296],[49.3,7371],[49.3,7446],[49.3,7521],[49.3,7596],[49.3,7671],[49.3,7745],[49.3,7821],[49.3,7895],[49.3,7970],[49.3,8045],[49.3,8120],[49.3,8195],[49.3,8270],[49.3,8345],[49.3,8420],[49.3,8495],[49.3,8570],[49.3,8645],[49.3,8720],[49.3,8795],[49.3,8870],[49.3,8944],[49.3,9020],[49.3,9095],[49.3,9169],[49.3,9245],[49.3,9319],[49.3,9394],[49.3,9469],[49.3,9544],[49.3,9619],[49.3,9695],[49.3,9770],[49.3,9844],[49.3,9919],[49.3,9994],[49.3,10069],[49.3,10144],[49.3,10219],[49.3,10294],[49.3,10369],[49.3,10444],[49.3,10519],[49.3,10594],[49.3,10669],[49.3,10745],[49.3,10819],[49.3,10894],[49.3,10969],[49.3,11044],[49.3,11119],[49.3,11194],[49.3,11269],[49.3,11344]]",1,0,917.8584,922.3057,45.90043924,2.9175,"[{""rating"":45.900439238653,""responseTime"":2.917500000000018}]",space,3.8765,,922.306,All the time,100,922.313,,,[],,0,18,18,18,1,audio/Narrative8Situation9.wav,audio/Narrative7Situation9.wav,audio/Narrative6Situation9.wav,audio/Narrative5Situation9.wav,3,2,4,3,,,,,,,,,,,,,,,,,,,,,,,,,,,,,,,,,,,,,,,
,,,,,,656e0dab178ffccdaa47202e,2024-05-13_10h51.49.622,group3.1-3.2-social-tom,2023.2.2,Win32,40,65c5074098b851296ff0b7ed,664252f7dc53bf4b50aa3dab,,,,,,,,,,,,,,,,,,,,,,,,,,,928.882,931.4509,931.4913,2,audio/Narrative13Situation2.wav,931.4916,,931.4917,961.2617,"[[999,0],[999,84],[999,158],[999,233],[999,308],[999,384],[999,458],[999,533],[999,608],[999,683],[999,758],[999,833],[999,908],[999,983],[999,1058],[999,1133],[999,1208],[999,1283],[999,1358],[999,1433],[999,1508],[999,1583],[999,1658],[999,1732],[999,1807],[999,1882],[999,1957],[999,2033],[999,2108],[999,2182],[999,2259],[999,2333],[45.8,2409],[48.4,2483],[48.4,2557],[49.6,2633],[51,2708],[51.3,2782],[51.3,2857],[51.3,2932],[51.3,3007],[51.3,3082],[51.3,3157],[51.3,3232],[50.6,3308],[50.3,3382],[50,3458],[49.6,3532],[49.6,3607],[49.6,3682],[49.6,3756],[49.6,3831],[49.6,3906],[49.6,3981],[49.6,4056],[49.6,4131],[49.6,4206],[49.6,4281],[49.6,4356],[49.7,4432],[50,4506],[50,4581],[50,4656],[50,4731],[50,4806],[50,4881],[50,4956],[50,5031],[50,5106],[50,5181],[50,5256],[50,5331],[50,5406],[50,5481],[50,5556],[50,5631],[50,5706],[50,5781],[50,5856],[50,5931],[50,6006],[50,6081],[50,6156],[50,6230],[50,6305],[50,6380],[50,6455],[50,6530],[50,6605],[50,6680],[50,6755],[50,6830],[50,6905],[50,6980],[50,7055],[50,7130],[50,7205],[50,7280],[50,7355],[50,7430],[50,7505],[50,7580],[50,7655],[50,7730],[50,7805],[50,7880],[50,7956],[50,8029],[50,8105],[50,8179],[50,8254],[50,8330],[50,8404],[50,8479],[50,8555],[50,8629],[50,8704],[50,8779],[50,8854],[50,8929],[50,9004],[50,9079],[50,9154],[50,9229],[50,9304],[50,9379],[50,9454],[50,9529],[50,9604],[50,9679],[50,9754],[50,9829],[50,9904],[50,9979],[50,10054],[50,10129],[50,10204],[50,10278],[50,10354],[50,10428],[50,10503],[50,10578],[50,10653],[50,10728],[50,10803],[50,10878],[50,10953],[50,11028],[50,11103],[50,11178],[50,11253],[50,11328],[50,11403],[50,11478],[50,11553],[50,11628],[50,11703],[50,11778],[50,11853],[50,11928],[50,12003],[50,12077],[50,12153],[50,12228],[50,12302],[50,12377],[50,12452],[50,12527],[50,12602],[50,12677],[50,12752],[50,12827],[50,12902],[50,12977],[50,13052],[50,13127],[50,13202],[50,13277],[50,13352],[50,13427],[50,13502],[50,13577],[50,13652],[50,13727],[50,13802],[50,13877],[50,13952],[50,14027],[50,14102],[50,14177],[50,14252],[50,14326],[50,14402],[50,14476],[50,14551],[50,14626],[50,14701],[50,14776],[50,14851],[50,14926],[50,15001],[50,15076],[50,15151],[50,15226],[50,15301],[50,15376],[50,15451],[50,15527],[50,15601],[50,15676],[50,15751],[50,15826],[50,15900],[50,15975],[50,16050],[50,16125],[50,16200],[50,16276],[50,16351],[50,16425],[50,16500],[50,16575],[50,16650],[50,16725],[50,16800],[50,16875],[50,16950],[50,17025],[50,17100],[50,17175],[50,17250],[50,17325],[50,17400],[50,17475],[50,17550],[50,17625],[50,17700],[50,17775],[50,17850],[50,17925],[50,18000],[50,18075],[50,18150],[50,18225],[50,18299],[50,18374],[50,18449],[50,18525],[50,18600],[50,18674],[50,18750],[50,18824],[50,18899],[50,18974],[50,19049],[50,19124],[50,19199],[50,19274],[50,19349],[50,19424],[50,19499],[50,19574],[50,19649],[50,19724],[50,19799],[50,19874],[50,19949],[50,20024],[50,20099],[50,20173],[50,20248],[50,20323],[50,20398],[50,20474],[50,20548],[50,20623],[50,20698],[50,20773],[50,20849],[50,20923],[50,20998],[50,21073],[50,21148],[50,21223],[50,21298],[50,21373],[50,21448],[50,21523],[50,21598],[50,21673],[50,21748],[50,21823],[50,21898],[50,21973],[50,22048],[50,22123],[50,22197],[50,22273],[50,22347],[50,22423],[50,22497],[50,22573],[50,22647],[50,22722],[50,22797],[50,22872],[50,22947],[50,23022],[50,23097],[50,23172],[50,23247],[50,23322],[50,23397],[50,23472],[50,23547],[50,23622],[50,23697],[50,23771],[50,23846],[50,23921],[50,23996],[50,24071],[50,24146],[50,24221],[50,24296],[50,24371],[50,24446],[50,24521],[50,24596],[50,24672],[50,24746],[50,24822],[50,24896],[50,24971],[50,25046],[50,25121],[50,25196],[50,25271],[50,25346],[50,25421],[50,25496],[50,25571],[50,25646],[50,25721],[50,25796],[50,25871],[50,25946],[50,26020],[50,26096],[50,26170],[50,26245],[50,26321],[50,26396],[50,26471],[50,26546],[50,26621],[50,26696],[50,26770],[50,26846],[50,26920],[50,26995],[50,27070],[50,27145],[50,27220],[50,27295],[50,27370],[50,27445],[50,27520],[50,27595],[50,27670],[50,27745],[50,27820],[50,27896],[50,27970],[50,28045],[50,28120],[50,28195],[50,28270],[50,28345],[50,28420],[50,28495],[50,28570],[50,28645],[50,28720],[50,28795],[50,28869],[50,28945],[50,29019],[50,29094],[50,29169],[50,29244],[50,29319],[50,29394],[50,29469],[50,29544],[50,29619],[50,29694],[50,29769]]",1,0,961.2625,961.2917,,,[],,,,961.2918,Not at all,0,961.2947,,,[],,0,0,0,0,1,audio/Narrative13Situation2.wav,audio/Narrative13Situation2.wav,audio/Narrative13Situation2.wav,audio/Narrative13Situation2.wav,2,2,2,2,,,,,922.3152,928.8547,space,5.9983,,,,,,,,,,,,,,,,,,,,,,,,,,,,,,,
,,,,,,656e0dab178ffccdaa47202e,2024-05-13_10h51.49.622,group3.1-3.2-social-tom,2023.2.2,Win32,40,65c5074098b851296ff0b7ed,664252f7dc53bf4b50aa3dab,,,,,,,,,,,,,,,,,,,,,,,,,,,,,961.295,2,audio/Narrative5Situation1.wav,966.309,,966.3091,979.6026,"[[999,23],[999,99],[999,175],[999,251],[999,324],[999,399],[999,475],[999,550],[49.6,624],[49.6,699],[49.6,775],[49.6,849],[49.6,924],[49.6,999],[50.6,1075],[51.3,1149],[51.8,1224],[51.8,1298],[51.6,1374],[51.2,1448],[51,1523],[50.7,1598],[50.1,1674],[49.7,1748],[49.7,1823],[49.7,1898],[49.7,1973],[49.7,2048],[49.7,2123],[49.7,2198],[49.7,2273],[49.7,2348],[49.7,2423],[49.7,2498],[49.7,2573],[49.7,2648],[49.7,2723],[49.7,2798],[49.7,2873],[49.7,2948],[49.7,3023],[49.7,3098],[49.7,3173],[49.7,3248],[49.7,3323],[49.7,3398],[49.7,3472],[49.7,3548],[49.7,3623],[49.7,3697],[49.7,3772],[49.7,3847],[49.7,3922],[49.7,3997],[49.7,4072],[49.7,4147],[49.7,4222],[49.7,4297],[49.7,4372],[49.7,4447],[49.7,4522],[49.7,4597],[49.7,4672],[49.7,4747],[49.7,4822],[49.7,4897],[49.7,4972],[49.7,5047],[49.7,5122],[49.7,5197],[49.7,5272],[49.7,5346],[49.7,5422],[49.7,5496],[49.7,5571],[49.7,5646],[49.7,5721],[49.7,5797],[49.7,5871],[49.7,5946],[49.7,6021],[49.7,6096],[49.7,6171],[49.7,6246],[49.7,6321],[49.7,6396],[49.7,6471],[49.7,6546],[49.7,6621],[49.7,6696],[49.7,6771],[49.7,6846],[49.7,6921],[49.7,6996],[49.7,7071],[49.7,7146],[49.7,7221],[49.7,7296],[49.7,7370],[49.7,7445],[49.7,7520],[49.7,7596],[49.7,7670],[49.7,7746],[49.7,7820],[49.7,7895],[49.7,7970],[49.7,8045],[49.7,8120],[49.7,8195],[49.7,8270],[49.7,8345],[49.7,8420],[49.7,8495],[49.7,8570],[49.7,8645],[49.7,8720],[49.7,8795],[49.7,8869],[49.7,8945],[49.7,9019],[49.7,9094],[49.7,9169],[49.7,9244],[49.7,9319],[49.7,9395],[49.7,9469],[49.7,9545],[49.7,9619],[49.7,9694],[49.7,9769],[49.7,9844],[49.7,9919],[49.7,9994],[49.7,10069],[49.7,10144],[49.7,10219],[49.7,10294],[49.7,10369],[49.7,10444],[49.7,10519],[49.7,10594],[49.7,10669],[49.7,10744],[49.7,10819],[49.7,10894],[49.7,10969],[49.7,11044],[49.7,11119],[49.7,11193],[49.7,11268],[49.7,11343],[49.7,11418],[49.7,11493],[49.7,11568],[49.7,11643],[49.7,11718],[49.7,11793],[49.7,11868],[49.7,11943],[49.7,12018],[49.7,12093],[49.7,12168],[49.7,12243],[49.7,12318],[49.7,12393],[49.7,12468],[49.7,12543],[49.7,12618],[49.7,12693],[49.7,12768],[49.7,12843],[49.7,12918],[49.7,12993],[49.7,13068],[49.7,13143],[49.7,13217],[49.7,13293]]",1,0,979.603,984.3003,63.32357247,3.579,"[{""rating"":61.566617862371885,""responseTime"":2.176499999999919},{""rating"":63.32357247437774,""responseTime"":3.578999999999951}]",space,4.1265,,984.3005,Half the time,50,984.3094,,,[],,0,1,1,1,1,audio/Narrative7Situation1.wav,audio/Narrative8Situation1.wav,audio/Narrative5Situation1.wav,audio/Narrative6Situation1.wav,2,5,5,2,,,,,,,,,,,,,,,,,,,,,,,,,,,,,,,,,,,,,,,
,,,,,,656e0dab178ffccdaa47202e,2024-05-13_10h51.49.622,group3.1-3.2-social-tom,2023.2.2,Win32,40,65c5074098b851296ff0b7ed,664252f7dc53bf4b50aa3dab,,,,,,,,,,,,,,,,,,,,,,,,,,,,,984.3099,2,audio/Narrative5Situation2.wav,987.3237,,987.3238,1016.8095,"[[61.4,2400],[59.1,2473],[58.1,2548],[58.1,2623],[54.2,2698],[49.6,2773],[49,2847],[47.7,2923],[47.5,2998],[47.5,3073],[47.5,3148],[47.5,3223],[47.5,3298],[47.5,3373],[47.5,3448],[47.5,3523],[47.5,3597],[47.5,3673],[47.5,3747],[47.5,3822],[47.5,3897],[47.5,3972],[47.5,4047],[47.5,4122],[47.5,4197],[47.2,4273],[45.9,4348],[41.8,4424],[41.4,4497],[41.1,4572],[41.1,4647],[41.1,4722],[41.1,4797],[40.9,4872],[40.9,4947],[40.9,5022],[40.9,5097],[40.9,5172],[40.9,5247],[41.2,5323],[42.5,5397],[44.4,5473],[45.6,5547],[46,5622],[46,5696],[46.8,5772],[48.4,5847],[48.4,5921],[48.4,5996],[48.4,6071],[48.4,6146],[48.4,6221],[48.4,6296],[49.1,6373],[49.3,6446],[49.3,6521],[49.3,6596],[49.3,6671],[49.3,6746],[49.3,6821],[49.3,6896],[49.3,6971],[49.3,7046],[50.1,7123],[50.1,7196],[50.1,7271],[50.1,7346],[50.1,7421],[50.1,7496],[50.1,7571],[50.1,7645],[50.1,7721],[50.1,7795],[50.1,7870],[50.1,7945],[50.1,8020],[50.1,8095],[50.1,8170],[50.1,8245],[50.1,8320],[50.1,8395],[50.1,8470],[50.1,8545],[50.1,8620],[50.1,8694],[50.1,8770],[50.1,8844],[50.1,8920],[50.1,8994],[50.1,9069],[50.1,9144],[50.1,9219],[50.1,9295],[50.1,9370],[50.1,9445],[50.1,9520],[50.1,9595],[50.1,9670],[50.1,9745],[50.1,9820],[50.1,9894],[50.1,9970],[50.1,10044],[50.1,10119],[50.1,10194],[50.1,10269],[50.1,10344],[50.1,10419],[50.1,10494],[50.1,10569],[50.1,10644],[50.1,10719],[50.1,10794],[50.1,10869],[50.1,10944],[50.1,11019],[49.9,11094],[49,11169],[49,11244],[48.4,11319],[48.4,11394],[48.4,11469],[48.4,11544],[48.4,11619],[48.4,11693],[48.4,11769],[48.4,11843],[48.4,11919],[48.4,11993],[47.1,12069],[45.6,12144],[44.7,12218],[44.1,12294],[44,12368],[44,12443],[44,12518],[43.1,12594],[43.1,12668],[43.1,12743],[43.1,12818],[43.1,12893],[43.1,12968],[43.1,13043],[43.1,13118],[42.2,13193],[42.2,13268],[42.2,13343],[42.2,13418],[42.2,13493],[42.2,13568],[42.2,13643],[42.2,13718],[42.2,13792],[42.1,13868],[41.8,13943],[41.2,14018],[41.2,14093],[41.2,14167],[41.2,14242],[41.2,14317],[41.2,14392],[41.2,14467],[41.2,14543],[41.2,14617],[41.2,14692],[41.2,14767],[41.2,14842],[40.8,14917],[40.3,14992],[40,15067],[39.9,15141],[39.6,15217],[38.7,15292],[38.6,15366],[38.6,15441],[38.6,15516],[38.6,15592],[38.6,15667],[38.6,15742],[38.6,15817],[38.6,15891],[38.6,15967],[38.6,16042],[38.6,16116],[38.6,16191],[38.6,16267],[38.6,16341],[38.6,16416],[38.1,16493],[37.6,16567],[36.2,16643],[35.2,16717],[35.2,16791],[35.2,16866],[35.2,16941],[35.2,17016],[35.2,17091],[35.2,17166],[35.2,17241],[35.2,17316],[35.2,17391],[35.2,17466],[35.2,17541],[35.2,17616],[35.2,17691],[35.2,17766],[35.2,17841],[35.2,17915],[35.2,17990],[35.2,18066],[35.2,18141],[35.2,18215],[35.2,18290],[35.2,18365],[35.2,18440],[35.2,18515],[35.2,18590],[35.2,18665],[35.2,18740],[35.2,18815],[35.2,18890],[35.2,18965],[35.2,19040],[35.2,19115],[35.2,19190],[35.2,19265],[35.2,19340],[35.2,19415],[35.2,19490],[35.2,19565],[35.2,19640],[35.2,19715],[35.2,19790],[35.2,19865],[35.2,19940],[35.2,20015],[35.2,20089],[35.2,20166],[35.2,20239],[35.2,20314],[35.2,20389],[35.2,20464],[35.2,20539],[35.2,20614],[35.2,20689],[35.2,20764],[35.2,20841],[35.2,20914],[35.2,20989],[35.2,21064],[35.2,21139],[35.2,21214],[35.2,21289],[35.2,21364],[35.2,21439],[35.2,21514],[35.2,21589],[35.2,21664],[35.2,21739],[35.2,21814],[35.2,21889],[35.2,21963],[35.2,22038],[35.2,22114],[35.2,22188],[35.2,22264],[35.2,22338],[35.2,22413],[35.2,22488],[35.2,22563],[35.2,22638],[35.2,22713],[35.2,22788],[35.2,22863],[35.2,22938],[35.2,23013],[35.2,23088],[35.2,23163],[35.2,23238],[35.2,23313],[35.2,23388],[35.2,23463],[35.2,23538],[35.2,23613],[35.2,23688],[35.2,23763],[35.2,23838],[35.2,23913],[35.2,23988],[35.2,24063],[35.2,24137],[35.2,24213],[35.2,24287],[35.2,24363],[35.2,24437],[35.2,24512],[35.2,24588],[35.2,24662],[35.2,24737],[35.2,24812],[35.2,24887],[35.2,24962],[35.2,25037],[35.2,25112],[35.2,25187],[35.2,25262],[35.2,25337],[35.2,25412],[35.2,25487],[35.2,25562],[35.2,25637],[35.2,25712],[35.2,25787],[35.2,25862],[35.2,25937],[35.2,26012],[35.2,26087],[35.2,26162],[35.2,26236],[35.2,26311],[35.2,26386],[35.7,26470],[35.8,26536],[35.8,26611],[35.8,26686],[35.8,26761],[35.8,26836],[35.8,26911],[35.8,26986],[35.8,27061],[35.2,27137],[34.3,27213],[33.2,27287],[33.2,27362],[33.2,27436],[33.2,27511],[33.2,27586],[33.2,27661],[33.2,27736],[33.2,27811],[33.2,27886],[33.2,27961],[33.2,28036],[33.2,28111],[33.2,28186],[33.2,28261],[33.2,28335],[33.2,28410],[33.2,28485],[33.2,28560],[33.2,28635],[33.2,28710],[33.2,28785],[33.2,28860],[33.2,28935],[33.2,29010],[33,29085],[33,29160],[33,29235],[33,29310],[33,29385],[33,29460]]",1,0,1016.8103,1020.8073,28.33089312,2.2534,"[{""rating"":28.330893118594435,""responseTime"":2.253399999976182}]",space,3.4262,,1020.8075,Not at all,0,1020.8164,,,[],,0,2,2,2,1,audio/Narrative7Situation2.wav,audio/Narrative8Situation2.wav,audio/Narrative5Situation2.wav,audio/Narrative6Situation2.wav,3,3,3,3,,,,,,,,,,,,,,,,,,,,,,,,,,,,,,,,,,,,,,,
,,,,,,656e0dab178ffccdaa47202e,2024-05-13_10h51.49.622,group3.1-3.2-social-tom,2023.2.2,Win32,40,65c5074098b851296ff0b7ed,664252f7dc53bf4b50aa3dab,,,,,,,,,,,,,,,,,,,,,,,,,,,,,1020.817,2,audio/Narrative5Situation3.wav,1023.8309,,1023.831,1037.7743,"[[999,27],[999,99],[999,174],[999,249],[999,324],[999,399],[999,474],[999,549],[999,624],[999,699],[999,774],[999,849],[999,923],[999,999],[999,1074],[999,1149],[999,1224],[999,1299],[999,1374],[999,1449],[999,1524],[999,1599],[999,1673],[999,1748],[999,1823],[999,1898],[999,1973],[999,2048],[999,2123],[999,2198],[999,2273],[999,2348],[999,2423],[999,2498],[999,2573],[999,2648],[999,2723],[999,2798],[999,2873],[999,2948],[999,3023],[999,3097],[999,3173],[999,3247],[999,3322],[999,3397],[999,3472],[999,3547],[999,3622],[999,3697],[999,3772],[999,3847],[999,3923],[999,3997],[999,4072],[999,4147],[999,4222],[999,4297],[999,4372],[999,4447],[999,4522],[999,4597],[999,4672],[999,4747],[999,4822],[999,4897],[999,4972],[999,5047],[999,5122],[999,5197],[999,5271],[999,5347],[999,5422],[999,5497],[999,5572],[999,5647],[999,5721],[999,5797],[999,5871],[999,5947],[999,6021],[999,6096],[999,6171],[999,6246],[999,6321],[999,6396],[999,6471],[999,6546],[999,6621],[999,6696],[999,6771],[999,6846],[999,6921],[999,6996],[999,7071],[999,7146],[999,7221],[999,7296],[999,7371],[999,7446],[999,7521],[999,7596],[999,7671],[999,7746],[999,7820],[999,7895],[999,7971],[999,8046],[999,8121],[999,8195],[999,8270],[999,8346],[999,8420],[999,8495],[999,8570],[999,8645],[999,8720],[999,8795],[999,8870],[999,8945],[999,9020],[999,9095],[999,9170],[999,9245],[999,9320],[999,9395],[999,9470],[999,9545],[999,9620],[999,9695],[999,9769],[999,9844],[999,9920],[999,9995],[999,10069],[999,10144],[999,10219],[999,10295],[999,10369],[999,10444],[999,10519],[999,10594],[999,10669],[999,10745],[999,10819],[999,10894],[999,10969],[999,11044],[999,11119],[999,11194],[999,11269],[999,11344],[999,11419],[999,11494],[999,11569],[999,11644],[999,11719],[999,11794],[999,11869],[999,11943],[999,12018],[999,12093],[999,12168],[999,12244],[999,12318],[999,12393],[999,12468],[999,12543],[999,12618],[999,12693],[999,12768],[999,12843],[999,12918],[999,12993],[999,13068],[999,13143],[999,13218],[999,13293],[999,13368],[999,13443],[999,13518],[999,13593],[999,13668],[999,13743],[999,13817],[999,13893]]",1,0,1037.7746,1041.8222,57.32064422,2.3735,"[{""rating"":57.32064421669107,""responseTime"":2.373499999999922}]",space,3.4831,,1041.8223,Not at all,0,1041.8272,,,[],,0,3,3,3,1,audio/Narrative7Situation3.wav,audio/Narrative8Situation3.wav,audio/Narrative5Situation3.wav,audio/Narrative6Situation3.wav,8,4,3,5,,,,,,,,,,,,,,,,,,,,,,,,,,,,,,,,,,,,,,,
,,,,,,656e0dab178ffccdaa47202e,2024-05-13_10h51.49.622,group3.1-3.2-social-tom,2023.2.2,Win32,40,65c5074098b851296ff0b7ed,664252f7dc53bf4b50aa3dab,,,,,,,,,,,,,,,,,,,,,,,,,,,,,1041.8278,2,audio/Narrative5Situation4.wav,1042.8469,,1042.847,1063.262,"[[58.5,13656],[53.4,13718],[50.9,13793],[50,13867],[49.7,13942],[49.7,14017],[49.7,14092],[49.7,14167],[49.7,14242],[49.7,14317],[49.7,14392],[49.7,14467],[49.7,14542],[49.7,14617],[49.7,14692],[49.7,14767],[49.7,14842],[49.7,14917],[49.7,14992],[49.7,15067],[49.7,15142],[49.7,15217],[49.7,15291],[49.7,15366],[49.7,15441],[49.7,15516],[49.7,15591],[49.7,15666],[49.7,15741],[49.7,15816],[49.7,15891],[49.7,15966],[49.7,16041],[49.7,16116],[49.7,16191],[49.7,16266],[49.7,16341],[49.7,16416],[49.7,16491],[49.7,16566],[49.7,16641],[49.7,16716],[49.7,16791],[49.7,16866],[49.7,16941],[49.7,17016],[49,17091],[48,17166],[47.7,17241],[46.3,17316],[46.3,17391],[46.3,17465],[46.3,17540],[46.3,17615],[46.3,17690],[46.3,17765],[46.3,17840],[46.3,17916],[46.3,17990],[46.3,18065],[46.3,18140],[46.3,18215],[46.3,18290],[46.3,18365],[46.3,18440],[46.3,18515],[46.3,18590],[46.3,18665],[46.3,18740],[46.3,18815],[46.3,18890],[46.3,18965],[46.3,19039],[46.3,19115],[46.3,19189],[46.3,19264],[46.3,19339],[46.3,19414],[46.3,19489],[46.3,19564],[46.3,19640],[46.3,19714],[46.3,19789],[46.3,19864],[46.3,19939],[46.3,20014],[46.3,20089],[46.3,20164],[46.3,20240],[46.3,20314],[46.3,20389]]",1,0,1063.2624,1066.6601,51.02489019,1.5054,"[{""rating"":51.02489019033675,""responseTime"":1.5053999999761345}]",space,2.8325,,1066.6603,Not at all,0,1066.6676,,,[],,0,4,4,4,1,audio/Narrative7Situation4.wav,audio/Narrative8Situation4.wav,audio/Narrative5Situation4.wav,audio/Narrative6Situation4.wav,3,3,1,2,,,,,,,,,,,,,,,,,,,,,,,,,,,,,,,,,,,,,,,
,,,,,,656e0dab178ffccdaa47202e,2024-05-13_10h51.49.622,group3.1-3.2-social-tom,2023.2.2,Win32,40,65c5074098b851296ff0b7ed,664252f7dc53bf4b50aa3dab,,,,,,,,,,,,,,,,,,,,,,,,,,,,,1066.6688,2,audio/Narrative5Situation5.wav,1071.6826,,1071.6827,1087.1254,[],1,0,1087.126,1090.9983,53.80673499,2.7387,"[{""rating"":53.80673499267936,""responseTime"":2.738700000047629}]",space,3.2997,,1090.9984,Half the time,50,1091.0078,,,[],,0,5,5,5,1,audio/Narrative7Situation5.wav,audio/Narrative8Situation5.wav,audio/Narrative5Situation5.wav,audio/Narrative6Situation5.wav,5,2,5,2,,,,,,,,,,,,,,,,,,,,,,,,,,,,,,,,,,,,,,,
,,,,,,656e0dab178ffccdaa47202e,2024-05-13_10h51.49.622,group3.1-3.2-social-tom,2023.2.2,Win32,40,65c5074098b851296ff0b7ed,664252f7dc53bf4b50aa3dab,,,,,,,,,,,,,,,,,,,,,,,,,,,,,1091.0085,2,audio/Narrative5Situation6.wav,1094.0218,,1094.0219,1099.719,"[[999,23],[999,99],[999,174],[999,249],[999,324],[999,400],[999,474],[999,549],[999,624],[999,699],[999,776],[999,849],[999,925],[44.6,999],[48.4,1075],[49.9,1149],[50.3,1225],[51,1299],[51.6,1375],[51.6,1448],[51.6,1524],[51.6,1598],[51.6,1674],[51,1749],[50.4,1825],[50.1,1899],[50,1974],[50,2048],[50,2123],[50,2198],[50,2273],[50,2348],[50,2423],[50,2498],[50,2573],[50,2648],[50,2723],[50,2798],[50,2873],[49.9,2948],[49.9,3023],[49.9,3097],[49.3,3173],[49.3,3247],[49.3,3322],[49.3,3397],[49.3,3472],[49.3,3548],[49.3,3623],[49.3,3698],[49.3,3772],[49.6,3848],[49.9,3922],[49.9,3997],[50.3,4073],[50.4,4147],[50.4,4222],[50.4,4297],[50.4,4372],[50.4,4447],[50.4,4522],[50.4,4597],[50.4,4672],[50.4,4747],[50.4,4822],[50.4,4897],[50.4,4972],[50.4,5047],[50.4,5122],[50.4,5197],[50.9,5272],[50.9,5346],[50.9,5422],[50.9,5497],[50.9,5571],[50.9,5646]]",1,0,1099.7194,1105.5163,43.4114202,4.3537,"[{""rating"":43.411420204978036,""responseTime"":4.353700000047638}]",space,5.222,,1105.5165,All the time,100,1105.525,,,[],,0,6,6,6,1,audio/Narrative7Situation6.wav,audio/Narrative8Situation6.wav,audio/Narrative5Situation6.wav,audio/Narrative6Situation6.wav,3,2,3,2,,,,,,,,,,,,,,,,,,,,,,,,,,,,,,,,,,,,,,,
,,,,,,656e0dab178ffccdaa47202e,2024-05-13_10h51.49.622,group3.1-3.2-social-tom,2023.2.2,Win32,40,65c5074098b851296ff0b7ed,664252f7dc53bf4b50aa3dab,,,,,,,,,,,,,,,,,,,,,,,,,,,,,1105.5257,2,audio/Narrative5Situation7.wav,1109.5389,,1109.5389,1130.6044,"[[999,21],[999,99],[999,174],[999,249],[999,324],[999,399],[999,474],[999,549],[999,625],[999,700],[999,776],[53.8,850],[53.8,924],[53.2,1000],[52.2,1076],[51.8,1150],[51.8,1224],[51.6,1300],[50.7,1375],[49.1,1450],[48.7,1524],[48.7,1599],[48.7,1674],[48.7,1749],[48.7,1824],[48.7,1899],[48.7,1974],[48.7,2048],[48.7,2124],[48.7,2199],[48.7,2274],[48.7,2349],[48.7,2423],[48.7,2499],[48.7,2573],[48.7,2648],[48.4,2723],[48.4,2798],[48.4,2873],[48.4,2948],[48.1,3024],[48.1,3098],[48,3173],[48,3248],[48,3323],[48,3399],[48.7,3474],[50.3,3549],[50.6,3623],[51.6,3699],[53.7,3774],[55.7,3849],[57.2,3924],[57.2,3997],[57.2,4072],[57.2,4148],[57.2,4223],[57.2,4298],[57.2,4373],[57.9,4449],[58.9,4524],[59.2,4597],[60,4673],[60.4,4748],[60.4,4822],[60.4,4897],[60.4,4972],[60.5,5048],[60.5,5122],[60.5,5197],[60.5,5272],[60.5,5347],[60.5,5422],[60.5,5497],[60.5,5572],[61.1,5647],[61.1,5722],[61.1,5797],[61.1,5872],[61.1,5947],[61.1,6022],[61.6,6097],[61.6,6172],[61.6,6247],[61.6,6322],[61.6,6397],[61.9,6473],[62,6547],[62,6622],[62.2,6697],[62.2,6771],[62.2,6846],[62.2,6922],[62.2,6997],[62.2,7071],[62.2,7146],[62.2,7221],[62.2,7296],[62.2,7371],[62.2,7446],[62.2,7521],[62.3,7597],[62.3,7671],[62.3,7746],[62.3,7821],[62.3,7896],[62.3,7971],[62.3,8046],[62.3,8121],[62.6,8197],[62.7,8271],[62.7,8346],[62.7,8421],[62.7,8496],[62.7,8570],[62.7,8646],[63.2,8721],[63.2,8796],[63.2,8870],[63.2,8945],[63.2,9020],[63.2,9095],[63.2,9170],[63.2,9245],[63.2,9320],[63.2,9395],[63.2,9470],[63.2,9545],[63.2,9620],[63.2,9695],[63.2,9770],[64.5,9846],[64.5,9920],[64.6,9995],[64.6,10070],[64.6,10145],[64.6,10220],[64.6,10295],[64.6,10370],[64.6,10445],[64.6,10519],[64.6,10595],[64.6,10669],[64.6,10745],[64.6,10819],[64.6,10894],[64.6,10969],[64.6,11044],[64.6,11119],[64.6,11194],[64.6,11269],[64.6,11344],[64.6,11419],[64.6,11494],[64.6,11569],[64.6,11644],[64.6,11719],[64.6,11794],[64.6,11868],[64.6,11944],[64.6,12019],[64.6,12095],[64.6,12169],[64.6,12244],[64.6,12319],[64.6,12394],[64.6,12469],[64.6,12544],[64.6,12619],[64.6,12694],[64.6,12769],[64.6,12844],[64.6,12918],[64.6,12993],[64.6,13068],[64.6,13143],[64.6,13219],[64.6,13293],[64.6,13368],[64.6,13443],[64.6,13518],[64.6,13593],[64.6,13668],[64.6,13743],[64.6,13818],[64.6,13893],[64.6,13968],[64.6,14043],[64.6,14118],[64.6,14193],[64.6,14268],[64.6,14343],[64.6,14417],[64.6,14493],[64.6,14567],[64.6,14642],[64.6,14717],[64.6,14792],[64.6,14867],[64.6,14942],[64.6,15017],[64.6,15092],[64.6,15167],[64.6,15242],[64.6,15317],[64.6,15392],[64.6,15467],[64.6,15542],[64.6,15617],[64.6,15692],[64.6,15767],[64.6,15842],[64.6,15917],[64.6,15992],[64.6,16067],[64.6,16142],[64.6,16217],[64.6,16292],[64.6,16367],[64.6,16442],[64.6,16516],[64.6,16591],[64.6,16667],[64.6,16742],[64.6,16817],[64.6,16891],[64.6,16966],[64.6,17041],[64.6,17116],[64.6,17191],[64.6,17266],[64.6,17341],[64.6,17416],[64.6,17491],[64.6,17566],[64.6,17641],[64.6,17716],[64.6,17791],[64.6,17866],[64.6,17941],[64.6,18016],[64.6,18091],[64.6,18166],[64.6,18241],[64.6,18316],[64.6,18391],[64.6,18466],[64.6,18541],[64.6,18616],[64.6,18691],[64.6,18766],[64.6,18841],[64.6,18916],[64.6,18990],[64.6,19065],[64.6,19140],[64.6,19215],[64.6,19290],[62.2,19380],[61.3,19440],[58.8,19515],[53.8,19590],[53.8,19665],[53.8,19740],[53.8,19815],[52.9,19891],[52.9,19965],[52.8,20041],[52,20115],[51.3,20190],[51.3,20265],[51.3,20340],[51.3,20415],[51.3,20490],[51.3,20565],[51.3,20639],[51.3,20715],[51.3,20790],[51.5,20865],[52,20940],[52.3,21015]]",1,0,1130.6052,1132.8526,54.6852123,0.761,"[{""rating"":54.68521229868229,""responseTime"":0.7609999999999673}]",space,1.6923,,1132.8527,Half the time,50,1132.8584,,,[],,0,7,7,7,1,audio/Narrative7Situation7.wav,audio/Narrative8Situation7.wav,audio/Narrative5Situation7.wav,audio/Narrative6Situation7.wav,5,3,4,5,,,,,,,,,,,,,,,,,,,,,,,,,,,,,,,,,,,,,,,
,,,,,,656e0dab178ffccdaa47202e,2024-05-13_10h51.49.622,group3.1-3.2-social-tom,2023.2.2,Win32,40,65c5074098b851296ff0b7ed,664252f7dc53bf4b50aa3dab,,,,,,,,,,,,,,,,,,,,,,,,,,,,,1132.8587,2,audio/Narrative5Situation8.wav,1135.8762,,1135.8764,1144.7223,"[[999,27],[999,99],[999,174],[999,249],[999,324],[999,399],[999,474],[999,549],[999,624],[999,699],[999,774],[999,849],[999,924],[999,1000],[999,1074],[999,1149],[999,1224],[999,1298],[999,1374],[999,1448],[999,1523],[999,1598],[999,1673],[999,1749],[999,1823],[999,1898],[999,1973],[999,2048],[999,2123],[999,2198],[999,2273],[999,2348],[999,2423],[999,2498],[999,2573],[999,2648],[999,2723],[999,2798],[999,2872],[999,2947],[999,3022],[999,3097],[999,3172],[999,3247],[999,3322],[999,3397],[999,3472],[999,3547],[999,3622],[999,3697],[999,3772],[999,3847],[999,3922],[999,3997],[999,4072],[999,4147],[999,4222],[999,4297],[999,4372],[999,4447],[999,4522],[999,4597],[999,4672],[999,4747],[999,4822],[999,4897],[999,4972],[999,5047],[999,5122],[999,5197],[999,5272],[999,5347],[999,5422],[999,5497],[999,5571],[999,5647],[999,5722],[999,5797],[999,5872],[999,5947],[999,6021],[999,6096],[999,6171],[999,6246],[999,6321],[999,6396],[999,6472],[999,6546],[999,6621],[999,6696],[999,6771],[999,6846],[999,6921],[999,6996],[999,7071],[999,7146],[999,7221],[999,7296],[999,7371],[999,7446],[999,7521],[999,7596],[999,7671],[999,7746],[999,7820],[999,7895],[999,7971],[999,8045],[999,8120],[999,8195],[999,8270],[999,8345],[999,8420],[999,8495],[999,8570],[999,8645],[999,8720],[999,8795]]",1,0,1144.7226,1148.8952,66.54465593,2.0653,"[{""rating"":66.54465592972181,""responseTime"":2.065299999952231}]",space,3.6002,,1148.8956,All the time,100,1148.9054,,,[],,0,8,8,8,1,audio/Narrative7Situation8.wav,audio/Narrative8Situation8.wav,audio/Narrative5Situation8.wav,audio/Narrative6Situation8.wav,2,3,3,5,,,,,,,,,,,,,,,,,,,,,,,,,,,,,,,,,,,,,,,
,,,,,,656e0dab178ffccdaa47202e,2024-05-13_10h51.49.622,group3.1-3.2-social-tom,2023.2.2,Win32,40,65c5074098b851296ff0b7ed,664252f7dc53bf4b50aa3dab,,,,,,,,,,,,,,,,,,,,,,,,,,,,,1148.9069,2,audio/Narrative5Situation9.wav,1151.9185,,1151.9185,1191.5065,"[[999,1],[999,75],[999,156],[999,230],[999,299],[999,374],[999,449],[999,524],[999,599],[999,674],[999,755],[999,830],[999,899],[999,974],[999,1054],[999,1131],[999,1199],[999,1274],[999,1349],[999,1429],[999,1499],[999,1574],[999,1649],[999,1729],[999,1799],[999,1874],[999,1949],[999,2023],[999,2098],[999,2173],[999,2248],[999,2328],[999,2398],[999,2473],[999,2548],[999,2629],[999,2704],[999,2773],[999,2848],[999,2930],[999,3003],[999,3073],[999,3148],[999,3223],[999,3298],[999,3373],[999,3448],[999,3523],[999,3603],[999,3673],[999,3748],[999,3823],[999,3898],[999,3972],[999,4047],[999,4122],[999,4197],[999,4272],[999,4347],[999,4422],[999,4502],[999,4575],[999,4652],[999,4722],[999,4797],[999,4879],[999,4953],[999,5022],[999,5103],[999,5178],[999,5253],[999,5327],[999,5397],[999,5477],[999,5552],[999,5622],[999,5697],[999,5778],[999,5851],[999,5922],[999,5997],[999,6072],[999,6146],[999,6221],[999,6303],[999,6377],[999,6452],[999,6527],[999,6596],[999,6677],[999,6752],[999,6821],[999,6896],[999,6971],[999,7046],[999,7126],[999,7196],[999,7278],[999,7351],[999,7428],[999,7496],[999,7571],[999,7653],[999,7726],[999,7796],[999,7876],[999,7946],[999,8020],[999,8096],[999,8171],[999,8252],[999,8320],[999,8395],[999,8470],[999,8545],[999,8620],[999,8695],[999,8770],[999,8845],[999,8920],[999,8995],[999,9075],[999,9145],[999,9226],[999,9295],[999,9370],[999,9445],[999,9525],[999,9595],[999,9670],[999,9745],[999,9825],[999,9901],[999,9970],[999,10045],[999,10119],[999,10200],[999,10269],[999,10345],[999,10426],[999,10500],[999,10569],[999,10644],[999,10720],[999,10794],[999,10869],[999,10950],[999,11019],[999,11100],[999,11169],[999,11244],[999,11319],[999,11399],[999,11469],[999,11549],[999,11619],[999,11700],[999,11769],[999,11844],[999,11919],[999,12000],[999,12068],[999,12144],[999,12218],[999,12293],[999,12368],[999,12443],[999,12518],[999,12599],[999,12673],[999,12743],[999,12823],[999,12894],[999,12973],[999,13043],[999,13118],[999,13200],[999,13268],[999,13343],[999,13418],[999,13493],[999,13575],[999,13643],[999,13718],[999,13793],[999,13872],[999,13943],[999,14018],[999,14093],[999,14168],[999,14248],[999,14317],[999,14393],[999,14467],[999,14542],[999,14617],[999,14692],[999,14767],[999,14842],[999,14917],[999,14992],[999,15067],[999,15149],[999,15217],[999,15292],[999,15372],[999,15442],[999,15517],[999,15592],[999,15672],[999,15746],[999,15817],[999,15892],[999,15970],[999,16042],[999,16117],[999,16192],[999,16267],[999,16348],[999,16422],[999,16492],[999,16571],[999,16642],[999,16723],[999,16791],[999,16866],[999,16941],[999,17017],[999,17091],[999,17166],[999,17248],[999,17323],[999,17398],[999,17473],[999,17549],[999,17623],[999,17699],[999,17772],[999,17841],[999,17916],[999,17998],[999,18073],[999,18149],[999,18222],[999,18298],[999,18372],[999,18448],[999,18521],[999,18590],[999,18665],[999,18747],[999,18815],[999,18897],[999,18965],[999,19047],[999,19115],[999,19190],[999,19271],[999,19344],[999,19421],[999,19490],[999,19565],[999,19640],[999,19715],[999,19795],[999,19871],[999,19940],[999,20015],[999,20095],[999,20165],[999,20240],[999,20315],[999,20390],[999,20470],[999,20540],[999,20620],[999,20690],[999,20770],[999,20839],[999,20914],[999,20989],[999,21070],[999,21144],[999,21214],[999,21289],[999,21364],[999,21445],[999,21514],[999,21589],[999,21664],[999,21745],[999,21814],[999,21889],[999,21968],[999,22039],[999,22114],[999,22189],[999,22271],[999,22344],[999,22413],[999,22489],[999,22564],[999,22638],[999,22713],[999,22788],[999,22863],[999,22944],[999,23013],[999,23088],[999,23163],[999,23244],[999,23313],[999,23388],[999,23463],[999,23544],[999,23614],[999,23688],[999,23763],[999,23838],[999,23913],[999,23988],[999,24063],[999,24144],[999,24218],[999,24288],[999,24363],[999,24438],[999,24518],[999,24587],[999,24663],[999,24738],[999,24818],[999,24887],[999,24962],[999,25037],[999,25112],[999,25187],[999,25262],[999,25337],[999,25419],[999,25493],[999,25568],[999,25643],[999,25712],[999,25787],[999,25862],[999,25937],[999,26012],[999,26093],[999,26167],[999,26237],[999,26312],[999,26393],[999,26462],[999,26537],[999,26612],[999,26687],[999,26762],[999,26843],[999,26918],[999,26990],[999,27068],[999,27137],[999,27217],[999,27292],[999,27368],[999,27436],[999,27515],[999,27586],[999,27661],[999,27742],[999,27811],[999,27886],[999,27968],[999,28036],[999,28111],[999,28186],[999,28268],[999,28336],[999,28416],[999,28486],[999,28560],[999,28635],[999,28710],[999,28791],[999,28865],[999,28935],[999,29010],[999,29085],[999,29165],[999,29235],[999,29310],[999,29385],[999,29466],[999,29535],[999,29610],[999,29691],[999,29760],[999,29835],[999,29910],[999,29990],[999,30060],[999,30135],[999,30216],[999,30285],[999,30366],[999,30440],[999,30516],[999,30591],[999,30666],[999,30740],[999,30809],[999,30892],[999,30967],[999,31041],[999,31115],[999,31191],[999,31265],[999,31342],[999,31417],[999,31491],[999,31566],[999,31634],[999,31715],[999,31784],[999,31859],[999,31941],[999,32015],[999,32090],[999,32159],[999,32234],[999,32314],[999,32384],[999,32459],[999,32534],[999,32609],[999,32684],[999,32759],[999,32834],[999,32913],[999,32989],[999,33058],[999,33138],[999,33208],[999,33283],[999,33358],[999,33433],[999,33508],[999,33583],[999,33658],[999,33733],[999,33808],[999,33889],[999,33958],[999,34033],[999,34108],[999,34183],[999,34261],[999,34333],[999,34408],[999,34489],[999,34558],[999,34633],[999,34708],[999,34788],[999,34858],[999,34932],[999,35007],[999,35082],[999,35157],[999,35232],[999,35315],[999,35388],[999,35463],[999,35538],[999,35607],[999,35688],[999,35764],[999,35838],[999,35913],[999,35989],[999,36063],[999,36138],[999,36213],[50.3,36288],[50,36362],[49,36438],[49,36512],[49.1,36589],[49.6,36663],[49.6,36737],[49.6,36807],[49.6,36884],[50.6,36965],[50.9,37038],[50.9,37107],[50.9,37187],[50.9,37263],[50.9,37337],[50.9,37406],[50.9,37481],[50.9,37557],[50.9,37637],[50.9,37706],[50.6,37788],[50.4,37862],[50.4,37931],[50.1,38012],[50.1,38081],[50.1,38162],[50.1,38238],[50.1,38306],[50.1,38381],[50.1,38460],[50.1,38537],[50.1,38606],[50.1,38686],[50.1,38756],[50.1,38836],[50.1,38906],[49.7,38988],[49,39065],[48.4,39137],[47.5,39215],[46.3,39288],[44.9,39364],[44.6,39436],[44.6,39512],[44.3,39587]]",1,0,1191.5069,1196.4474,48.24304539,3.6394,"[{""rating"":48.243045387994144,""responseTime"":3.6394000000955202}]",space,4.3787,,1196.4476,Half the time,50,1196.4562,,,[],,0,9,9,9,1,audio/Narrative7Situation9.wav,audio/Narrative8Situation9.wav,audio/Narrative5Situation9.wav,audio/Narrative6Situation9.wav,2,3,3,4,,,,,,,,,,,,,,,,,,,,,,,,,,,,,,,,,,,,,,,
,,,,,,656e0dab178ffccdaa47202e,2024-05-13_10h51.49.622,group3.1-3.2-social-tom,2023.2.2,Win32,40,65c5074098b851296ff0b7ed,664252f7dc53bf4b50aa3dab,,,,,,,,,,,,,,,,,,,,,,,,,,,,,1196.4568,2,audio/Narrative6Situation1.wav,1198.4716,,1198.4718,1225.0835,"[[999,1],[999,78],[999,149],[999,224],[999,298],[999,374],[999,448],[999,530],[999,598],[999,674],[999,754],[999,829],[999,905],[999,979],[999,1048],[999,1123],[999,1198],[999,1278],[999,1348],[999,1429],[999,1498],[999,1581],[999,1654],[999,1730],[999,1804],[999,1873],[999,1953],[999,2023],[999,2103],[999,2180],[999,2255],[999,2330],[999,2404],[999,2472],[999,2554],[999,2623],[999,2704],[999,2772],[999,2847],[999,2928],[999,2997],[999,3072],[999,3153],[999,3228],[999,3297],[999,3379],[999,3454],[999,3528],[999,3605],[999,3678],[999,3754],[999,3827],[999,3903],[999,3979],[999,4055],[999,4128],[999,4197],[999,4277],[999,4347],[999,4427],[999,4496],[999,4577],[999,4651],[999,4721],[999,4802],[999,4878],[999,4946],[999,5021],[999,5096],[999,5171],[999,5246],[999,5321],[999,5402],[999,5475],[999,5551],[999,5627],[999,5700],[999,5776],[999,5852],[999,5921],[999,5996],[999,6071],[999,6146],[999,6221],[999,6296],[999,6376],[999,6452],[999,6526],[999,6595],[999,6673],[999,6745],[999,6820],[999,6895],[999,6970],[999,7051],[999,7126],[999,7195],[999,7273],[999,7346],[999,7420],[999,7495],[999,7570],[999,7645],[999,7726],[999,7801],[999,7874],[999,7945],[999,8026],[999,8095],[999,8170],[999,8245],[999,8320],[999,8394],[999,8469],[999,8544],[999,8625],[999,8694],[999,8769],[999,8844],[999,8919],[999,8994],[999,9069],[999,9144],[999,9223],[999,9300],[999,9369],[999,9444],[999,9519],[999,9594],[999,9669],[999,9744],[999,9819],[999,9899],[999,9970],[999,10049],[999,10125],[999,10194],[999,10269],[999,10344],[999,10419],[999,10493],[999,10574],[999,10643],[999,10718],[999,10800],[999,10874],[999,10943],[999,11024],[999,11093],[999,11168],[999,11243],[999,11318],[999,11399],[999,11474],[999,11543],[999,11622],[999,11693],[999,11773],[999,11848],[999,11918],[999,11993],[999,12068],[999,12148],[999,12218],[999,12293],[999,12368],[999,12443],[999,12518],[999,12592],[999,12673],[999,12747],[999,12820],[999,12898],[999,12974],[999,13048],[999,13124],[999,13198],[999,13267],[999,13349],[999,13423],[999,13497],[999,13573],[999,13649],[999,13717],[999,13796],[999,13873],[999,13948],[999,14020],[999,14099],[999,14167],[999,14241],[999,14317],[999,14397],[999,14467],[999,14545],[999,14616],[999,14691],[999,14767],[999,14847],[999,14916],[999,14991],[999,15072],[999,15148],[999,15223],[999,15291],[999,15366],[999,15441],[999,15522],[999,15591],[999,15666],[999,15741],[999,15822],[999,15891],[999,15966],[999,16041],[999,16123],[999,16191],[999,16266],[999,16341],[999,16416],[999,16490],[999,16566],[999,16641],[999,16722],[999,16796],[999,16865],[999,16940],[999,17021],[999,17090],[999,17165],[999,17240],[999,17315],[999,17390],[999,17465],[999,17546],[999,17621],[999,17697],[999,17765],[999,17840],[999,17915],[999,17990],[999,18065],[999,18140],[999,18215],[999,18296],[999,18370],[999,18440],[999,18515],[999,18590],[999,18664],[999,18740],[999,18814],[999,18895],[999,18964],[999,19040],[999,19114],[999,19189],[999,19271],[999,19339],[999,19414],[999,19489],[999,19570],[999,19639],[999,19714],[999,19789],[999,19869],[999,19939],[999,20014],[999,20089],[999,20169],[999,20239],[999,20314],[999,20389],[999,20464],[999,20544],[999,20614],[999,20689],[999,20764],[999,20843],[999,20914],[999,20994],[999,21064],[999,21138],[999,21213],[999,21288],[999,21363],[999,21444],[999,21513],[999,21588],[999,21668],[999,21738],[999,21818],[999,21889],[999,21969],[999,22044],[999,22118],[999,22188],[999,22267],[999,22344],[999,22413],[999,22488],[999,22563],[999,22643],[999,22713],[999,22788],[999,22862],[999,22938],[999,23019],[999,23091],[999,23162],[999,23243],[999,23312],[999,23387],[999,23466],[999,23543],[999,23619],[999,23693],[999,23762],[999,23842],[999,23912],[999,23993],[999,24063],[999,24137],[999,24219],[999,24293],[999,24362],[999,24442],[999,24517],[999,24593],[999,24662],[999,24737],[999,24815],[999,24886],[999,24961],[999,25041],[999,25117],[999,25186],[999,25265],[999,25342],[999,25417],[999,25492],[999,25561],[999,25636],[999,25711],[999,25792],[999,25866],[999,25936],[999,26011],[999,26086],[999,26161],[999,26236],[999,26316],[999,26393],[999,26467],[999,26535],[999,26611]]",1,0,1225.0841,1229.2812,46.92532943,3.1437,"[{""rating"":46.92532942898975,""responseTime"":3.143699999928458}]",space,3.642,,1229.2814,Not at all,0,1229.2902,,,[],,0,10,10,10,1,audio/Narrative8Situation1.wav,audio/Narrative7Situation1.wav,audio/Narrative6Situation1.wav,audio/Narrative5Situation1.wav,5,2,2,5,,,,,,,,,,,,,,,,,,,,,,,,,,,,,,,,,,,,,,,
,,,,,,656e0dab178ffccdaa47202e,2024-05-13_10h51.49.622,group3.1-3.2-social-tom,2023.2.2,Win32,40,65c5074098b851296ff0b7ed,664252f7dc53bf4b50aa3dab,,,,,,,,,,,,,,,,,,,,,,,,,,,,,1229.2907,2,audio/Narrative6Situation2.wav,1232.3047,,1232.305,1260.8408,"[[47.2,7126],[47.2,7195],[47.2,7270],[47.2,7345],[47.2,7420],[47.2,7495],[47.2,7570],[47.2,7645],[47.2,7720],[47.2,7795],[47.2,7870],[47.2,7945],[47.2,8020],[47.2,8095],[47.2,8170],[47.2,8245],[47.2,8320],[47.2,8395],[47.2,8470],[47.2,8545],[47.2,8620],[47.2,8695],[47.2,8769],[47.2,8844],[47.2,8919],[47.2,8994],[47.2,9069]]",1,0,1260.8411,1267.4375,52.48901903,4.7503,"[{""rating"":52.489019033674964,""responseTime"":4.750300000071547}]",space,6.0251,,1267.4377,Half the time,50,1267.4462,,,[],,0,11,11,11,1,audio/Narrative8Situation2.wav,audio/Narrative7Situation2.wav,audio/Narrative6Situation2.wav,audio/Narrative5Situation2.wav,3,3,3,3,,,,,,,,,,,,,,,,,,,,,,,,,,,,,,,,,,,,,,,
