exp_question,consent.started,consent.stopped,consentResponse.keys,consentResponse.rt,consentResponse.duration,participantID,date,expName,psychopyVersion,OS,frameRate,STUDY_ID,SESSION_ID,opening1.started,opening1.stopped,keyEndingOpening1.keys,keyEndingOpening1.rt,keyEndingOpening1.duration,volumeAdjust.started,volumeAdjust.stopped,endingAdjust.keys,endingAdjust.rt,endingAdjust.duration,opening2.started,opening2.stopped,keyEndingOpening.keys,keyEndingOpening.rt,keyEndingOpening.duration,mouse.x,mouse.y,mouse.leftButton,mouse.midButton,mouse.rightButton,mouse.time,instructionLoop.thisRepN,instructionLoop.thisTrialN,instructionLoop.thisN,instructionLoop.thisIndex,instructionLoop.ran,readyForAudio.started,readyForAudio.stopped,fixation.started,run,audio_played,fixation.stopped,endPractice.keys,audioPre.started,audioPre.stopped,continuousResponses_audio,continuousSlider.response,continuousSlider.rt,intRating.started,intRating.stopped,intQuestionSlider.response,intQuestionSlider.rt,intQuestionSlider.history,confirmResponse.keys,confirmResponse.rt,confirmResponse.duration,catchQuestion.started,catch_label,catch_value,catchQuestion.stopped,catchQuestionSlider.response,catchQuestionSlider.rt,catchQuestionSlider.history,confirmResponse_2.keys,confirmResponse_2.rt,confirmResponse_2.duration,audioRunLoop.thisRepN,audioRunLoop.thisTrialN,audioRunLoop.thisN,audioRunLoop.thisIndex,audioRunLoop.ran,conditions1_1,conditions2_1,conditions1_2,conditions2_2,dur1_1,dur2_1,dur1_2,dur2_2,endPractice.rt,endPractice.duration,runIntervalBreak.started,runIntervalBreak.stopped,endingBreakKey.keys,endingBreakKey.rt,endingBreakKey.duration,connection.started,connection.stopped,connectionEnding.keys,connectionEnding.rt,connectionEnding.duration,readyForText.started,readyForText.stopped,textPre.started,run_dup,textPre.stopped,continuousResponses_text,textRunLoop.thisRepN,textRunLoop.thisTrialN,textRunLoop.thisN,textRunLoop.thisIndex,textRunLoop.ran,text1_1,text1_2,text2_1,text2_2,runBreakText.started,runBreakText.stopped,endingBreakKey_2.keys,endingBreakKey_2.rt,endingBreakKey_2.duration,ending.started,ending.stopped,endingEnding.keys,endingEnding.rt,endingEnding.duration
social,0.0004,18.9338,y,18.6077,,65983c420d89145cbdb05468,2024-02-08_13h04.20.592,group3.1-3.2-social-tom,2023.2.2,Win32,59.88023952,65c5074098b851296ff0b7ed,65c5418b69951e672dd1970a,,,,,,,,,,,,,,,,,,,,,,,,,,,,,,,,,,,,,,,,,,,,,,,,,,,,,,,,,,,,,,,,,,,,,,,,,,,,,,,,,,,,,,,,,,,,,,,,,,,,,,,,,,
,,,,,,65983c420d89145cbdb05468,2024-02-08_13h04.20.592,group3.1-3.2-social-tom,2023.2.2,Win32,59.88023952,65c5074098b851296ff0b7ed,65c5418b69951e672dd1970a,18.9339,38.9505,space,19.9813,,,,,,,,,,,,,,,,,,,,,,,,,,,,,,,,,,,,,,,,,,,,,,,,,,,,,,,,,,,,,,,,,,,,,,,,,,,,,,,,,,,,,,,,,,,,,,,,,,,,,,
,,,,,,65983c420d89145cbdb05468,2024-02-08_13h04.20.592,group3.1-3.2-social-tom,2023.2.2,Win32,59.88023952,65c5074098b851296ff0b7ed,65c5418b69951e672dd1970a,,,,,,38.9507,52.9727,space,13.6836,,,,,,,,,,,,,,,,,,,,,,,,,,,,,,,,,,,,,,,,,,,,,,,,,,,,,,,,,,,,,,,,,,,,,,,,,,,,,,,,,,,,,,,,,,,,,,,,,
,,,,,,65983c420d89145cbdb05468,2024-02-08_13h04.20.592,group3.1-3.2-social-tom,2023.2.2,Win32,59.88023952,65c5074098b851296ff0b7ed,65c5418b69951e672dd1970a,,,,,,,,,,,52.9813,62.3894,space,9.3968,,[],[],[],[],[],[],0,0,0,0,1,,,,,,,,,,,,,,,,,,,,,,,,,,,,,,,,,,,,,,,,,,,,,,,,,,,,,,,,,,,,,,,,,,,,,,,,,,,,,,,,
,,,,,,65983c420d89145cbdb05468,2024-02-08_13h04.20.592,group3.1-3.2-social-tom,2023.2.2,Win32,59.88023952,65c5074098b851296ff0b7ed,65c5418b69951e672dd1970a,,,,,,,,,,,62.3954,93.5167,space,31.045,,[],[],[],[],[],[],1,0,1,0,1,,,,,,,,,,,,,,,,,,,,,,,,,,,,,,,,,,,,,,,,,,,,,,,,,,,,,,,,,,,,,,,,,,,,,,,,,,,,,,,,
,,,,,,65983c420d89145cbdb05468,2024-02-08_13h04.20.592,group3.1-3.2-social-tom,2023.2.2,Win32,59.88023952,65c5074098b851296ff0b7ed,65c5418b69951e672dd1970a,,,,,,,,,,,93.5228,112.1998,space,18.6447,,[],[],[],[],[],[],2,0,2,0,1,,,,,,,,,,,,,,,,,,,,,,,,,,,,,,,,,,,,,,,,,,,,,,,,,,,,,,,,,,,,,,,,,,,,,,,,,,,,,,,,
,,,,,,65983c420d89145cbdb05468,2024-02-08_13h04.20.592,group3.1-3.2-social-tom,2023.2.2,Win32,59.88023952,65c5074098b851296ff0b7ed,65c5418b69951e672dd1970a,,,,,,,,,,,112.2057,149.0996,space,36.8749,,[],[],[],[],[],[],3,0,3,0,1,,,,,,,,,,,,,,,,,,,,,,,,,,,,,,,,,,,,,,,,,,,,,,,,,,,,,,,,,,,,,,,,,,,,,,,,,,,,,,,,
,,,,,,65983c420d89145cbdb05468,2024-02-08_13h04.20.592,group3.1-3.2-social-tom,2023.2.2,Win32,59.88023952,65c5074098b851296ff0b7ed,65c5418b69951e672dd1970a,,,,,,,,,,,149.1055,165.1223,space,16.0002,,[],[],[],[],[],[],4,0,4,0,1,,,,,,,,,,,,,,,,,,,,,,,,,,,,,,,,,,,,,,,,,,,,,,,,,,,,,,,,,,,,,,,,,,,,,,,,,,,,,,,,
,,,,,,65983c420d89145cbdb05468,2024-02-08_13h04.20.592,group3.1-3.2-social-tom,2023.2.2,Win32,59.88023952,65c5074098b851296ff0b7ed,65c5418b69951e672dd1970a,,,,,,,,,,,,,,,,,,,,,,,,,,,165.1293,167.6993,167.7142,1,audio/Narrative13Situation2.wav,169.716,,169.7162,199.4664,"[[999,0],[999,99],[999,183],[999,266],[999,349],[999,432],[999,516],[999,599],[999,682],[999,766],[999,849],[999,932],[999,1016],[999,1099],[999,1182],[999,1266],[999,1349],[999,1432],[999,1516],[999,1599],[999,1683],[999,1766],[999,1849],[999,1933],[999,2016],[999,2099],[999,2182],[999,2266],[999,2349],[999,2432],[999,2516],[999,2599],[999,2682],[999,2766],[999,2849],[999,2932],[999,3016],[999,3099],[999,3182],[999,3266],[999,3349],[999,3433],[999,3516],[999,3599],[999,3683],[999,3766],[999,3849],[999,3932],[999,4016],[999,4099],[999,4182],[999,4266],[999,4349],[999,4433],[999,4516],[999,4599],[15.8,4683],[14.4,4766],[14.2,4849],[14.2,4932],[14.2,5016],[14.2,5099],[14.2,5182],[14.2,5266],[14.2,5349],[14.2,5432],[14.2,5516],[14.2,5599],[14.2,5682],[14.2,5766],[14.2,5849],[14.2,5932],[14.2,6016],[14.2,6099],[14.2,6182],[14.2,6266],[14.2,6349],[14.2,6432],[14.2,6516],[14.2,6599],[14.2,6682],[14.2,6766],[14.2,6849],[14.2,6932],[14.2,7016],[14.2,7099],[14.2,7182],[14.2,7266],[14.2,7349],[14.2,7432],[14.2,7516],[14.2,7599],[14.2,7682],[14.2,7766],[14.2,7849],[14.2,7932],[14.2,8016],[14.2,8099],[14.2,8182],[19.5,8266],[23.3,8349],[26.8,8433],[32.2,8516],[40.2,8599],[46,8683],[53.4,8766],[77.9,13683],[78.6,13766],[76.3,13849],[67.3,13933],[76.9,14016],[85.1,14099],[89.1,14182],[89.1,14266],[89.1,14349],[90.4,14433],[100,14516],[100,14599],[100,14682],[100,14766],[100,14849],[100,14932],[100,15016],[100,15099],[100,15182],[100,15266],[100,15349],[100,15432],[100,15516],[100,15599],[100,15682],[100,15766],[100,15849],[100,15932],[100,16016],[100,16099],[100,16182],[100,16266],[100,16349],[100,16432],[100,16516],[100,16599],[100,16682],[100,16766],[100,16849],[100,16932],[100,17016],[100,17099],[100,17182],[100,17266],[100,17349],[100,17432],[100,17516],[100,17599],[100,17682],[100,17766],[100,17849],[100,17932],[100,18016],[100,18099],[100,18182],[100,18266],[100,18349],[100,18432],[100,18516],[100,18599],[100,18682],[100,18766],[100,18849],[100,18932],[100,19016],[100,19099],[100,19182],[100,19266],[100,19349],[100,19432],[100,19516],[100,19599],[100,19682],[100,19766],[100,19849],[100,19932],[100,20016],[100,20099],[100,20182],[100,20266],[100,20349],[100,20432],[100,20516],[100,20599],[100,20682],[100,20766],[100,20849],[100,20932],[100,21016],[100,21099],[100,21182],[100,21266],[100,21349],[100,21432],[100,21516],[100,21599],[100,21682],[100,21766],[100,21849],[100,21932],[100,22016],[100,22099],[100,22182],[100,22266],[100,22349],[100,22432],[100,22515],[100,22599],[100,22682],[100,22766],[100,22849],[100,22932],[100,23016],[100,23099],[100,23182],[100,23266],[100,23349],[100,23432],[100,23516],[100,23599],[100,23682],[100,23766],[100,23849],[100,23932],[100,24016],[100,24099],[100,24182],[100,24266],[100,24349],[100,24432],[100,24516],[100,24599],[100,24682],[100,24766],[100,24849],[100,24932],[100,25016],[100,25099],[100,25182],[100,25266],[100,25349],[100,25432],[100,25516],[100,25599],[100,25682],[100,25766],[100,25849],[100,25932],[100,26016],[100,26099],[100,26182],[100,26266],[100,26349],[100,26432],[100,26515],[100,26599],[100,26682],[100,26766],[100,26849],[100,26932],[100,27016],[100,27099],[100,27182],[100,27266],[100,27349],[100,27432],[100,27516],[100,27599],[100,27682],[100,27766],[100,27849],[100,27932],[100,28016],[100,28099],[100,28182],[100,28266],[100,28349],[100,28432],[100,28515],[100,28599],[100,28682],[100,28766],[100,28849],[100,28932],[100,29015],[100,29099],[100,29182],[100,29266],[100,29349],[100,29432],[100,29516],[100,29599],[100,29682]]",1,0,199.4665,215.4661,75.83333333,13.9423,"[{""rating"":75.83333333333333,""responseTime"":13.942299999952326}]",space,15.4624,,215.4664,Partially,50,225.6825,49.6875,5.8863,"[{""rating"":49.6875,""responseTime"":5.886299999952314}]",space,9.6715,,0,0,0,0,1,audio/Narrative13Situation2.wav,audio/Narrative13Situation2.wav,audio/Narrative13Situation2.wav,audio/Narrative13Situation2.wav,2,2,2,2,,,,,,,,,,,,,,,,,,,,,,,,,,,,,,,,,,,,,
,,,,,,65983c420d89145cbdb05468,2024-02-08_13h04.20.592,group3.1-3.2-social-tom,2023.2.2,Win32,59.88023952,65c5074098b851296ff0b7ed,65c5418b69951e672dd1970a,,,,,,,,,,,,,,,,,,,,,,,,,,,,,225.6888,1,audio/Narrative7Situation1.wav,228.549,space,228.549,284.4485,"[[60.8,2166],[58,2249],[58.8,2333],[68.5,2416],[100,2500],[100,2583],[100,2666],[100,2750],[100,2833],[100,2916],[100,2999],[100,3083],[100,3166],[100,3249],[100,3333],[100,3416],[100,3499],[100,3583],[100,3666],[100,3749],[100,3833],[100,3916],[100,3999],[100,4083],[100,4166],[100,4249],[100,4333],[100,4416],[100,4499],[100,4583],[100,4666],[100,4749],[100,4833],[100,4916],[100,4999],[100,5083],[100,5166],[100,5249],[100,5333],[100,5416],[100,5499],[100,5583],[100,5666],[100,5749],[100,5833],[100,5916],[100,5999],[100,6083],[100,6166],[100,6249],[100,6333],[100,6416],[100,6499],[100,6583],[100,6666],[100,6749],[100,6833],[100,6916],[100,6999],[100,7083],[100,7166],[100,7249],[100,7333],[100,7416],[100,7499],[100,7583],[100,7666],[100,7749],[100,7833],[100,7916],[100,7999],[100,8083],[100,8166],[100,8249],[100,8333],[100,8416],[100,8499],[100,8583],[100,8666],[100,8749],[100,8833],[100,8916],[100,8999],[100,9083],[100,9166],[100,9249],[100,9333],[100,9416],[100,9499],[100,9583],[100,9666],[100,9749],[100,9833],[100,9916],[100,9999],[100,10083],[100,10166],[100,10249],[100,10333],[100,10416],[100,10499],[100,10583],[100,10666],[100,10749],[100,10833],[100,10916],[100,10999],[100,11082],[100,11166],[100,11249],[100,11333],[100,11416],[100,11499],[100,11583],[100,11666],[100,11749],[100,11833],[100,11916],[100,11999],[100,12083],[100,12166],[100,12249],[100,12333],[100,12416],[100,12499],[100,12582],[100,12666],[100,12749],[100,12833],[100,12916],[100,12999],[100,13082],[100,13166],[100,13249],[100,13332],[100,13416],[100,13499],[100,13583],[100,13666],[100,13749],[100,13832],[100,13916],[100,13999],[100,14082],[100,14166],[100,14249],[100,14332],[100,14416],[100,14499],[100,14582],[100,14666],[100,14749],[100,14832],[100,14916],[100,14999],[100,15083],[100,15166],[100,15249],[100,15333],[100,15416],[100,15499],[100,15582],[100,15666],[100,15749],[100,15833],[100,15916],[100,15999],[100,16082],[100,16166],[100,16249],[100,16333],[100,16416],[100,16499],[100,16582],[100,16666],[100,16749],[100,16833],[100,16916],[100,16999],[100,17082],[100,17166],[100,17249],[100,17332],[100,17416],[100,17499],[100,17582],[100,17666],[100,17749],[100,17833],[100,17916],[100,17999],[100,18083],[100,18166],[100,18249],[100,18333],[100,18416],[100,18499],[100,18582],[100,18666],[100,18749],[100,18833],[100,18916],[100,18999],[100,19082],[100,19166],[100,19249],[100,19333],[100,19416],[100,19499],[100,19582],[100,19666],[100,19749],[100,19833],[100,19916],[100,19999],[100,20082],[100,20166],[100,20249],[100,20332],[100,20416],[100,20499],[100,20583],[100,20666],[100,20749],[100,20833],[100,20916],[100,20999],[100,21083],[100,21166],[100,21249],[100,21333],[100,21416],[100,21499],[100,21582],[100,21666],[100,21749],[100,21833],[100,21916],[100,21999],[100,22082],[100,22166],[100,22249],[100,22332],[100,22416],[100,22499],[100,22582],[100,22666],[100,22749],[100,22832],[100,22916],[100,22999],[100,23083],[100,23166],[100,23249],[100,23332],[100,23416],[100,23499],[100,23582],[100,23666],[100,23749],[100,23832],[100,23916],[100,23999],[100,24082],[100,24166],[100,24249],[100,24332],[100,24416],[100,24499],[100,24582],[100,24666],[100,24749],[100,24832],[100,24916],[100,24999],[100,25082],[100,25166],[100,25249],[100,25332],[100,25416],[100,25499],[100,25582],[100,25666],[100,25749],[100,25832],[100,25916],[100,25999],[100,26082],[100,26166],[100,26249],[100,26332],[100,26416],[100,26499],[100,26582],[100,26666],[100,26749],[100,26832],[100,26916],[100,26999],[100,27082],[100,27166],[100,27249],[100,27332],[100,27416],[100,27499],[100,27582],[100,27666],[100,27749],[100,27832],[100,27916],[100,27999],[100,28082],[100,28166],[100,28249],[100,28332],[100,28416],[100,28499],[100,28582],[100,28666],[100,28749],[100,28832],[100,28916],[100,28999],[100,29082],[100,29166],[100,29249],[100,29332],[100,29416],[100,29499],[100,29582],[100,29666],[100,29749],[100,29832],[100,29916],[100,29999],[100,30083],[100,30166],[100,30249],[100,30332],[100,30416],[100,30499],[100,30582],[100,30666],[100,30749],[100,30832],[100,30916],[100,30999],[100,31082],[100,31166],[100,31249],[100,31332],[100,31416],[100,31499],[100,31582],[100,31666],[100,31749],[100,31832],[100,31916],[100,31999],[100,32082],[100,32166],[100,32249],[100,32332],[100,32416],[100,32499],[100,32582],[100,32666],[100,32749],[100,32832],[100,32916],[100,32999],[100,33082],[100,33166],[100,33249],[100,33332],[100,33416],[100,33499],[100,33582],[100,33666],[100,33749],[100,33832],[100,33916],[100,33999],[100,34082],[100,34166],[100,34249],[100,34332],[100,34416],[100,34499],[100,34582],[100,34666],[100,34749],[100,34832],[100,34916],[100,34999],[100,35082],[100,35166],[100,35249],[100,35332],[100,35416],[100,35499],[100,35582],[100,35666],[100,35749],[100,35832],[100,35916],[100,35999],[100,36082],[100,36166],[100,36249],[100,36332],[100,36416],[100,36499],[100,36582],[100,36666],[100,36749],[100,36832],[100,36916],[100,36999],[100,37082],[100,37166],[100,37249],[100,37332],[100,37416],[100,37499],[100,37582],[100,37666],[100,37749],[100,37832],[100,37916],[100,37999],[100,38082],[100,38166],[100,38249],[100,38332],[100,38416],[100,38499],[100,38582],[100,38666],[100,38749],[100,38832],[100,38916],[100,38999],[100,39082],[100,39166],[100,39249],[100,39332],[100,39416],[100,39499],[100,39582],[100,39666],[100,39749],[100,39832],[100,39916],[100,39999],[100,40082],[100,40166],[100,40249],[100,40332],[100,40416],[100,40499],[100,40582],[100,40666],[100,40749],[100,40832],[100,40916],[100,40999],[100,41082],[100,41166],[100,41249],[100,41332],[100,41416],[100,41499],[100,41582],[100,41666],[100,41749],[100,41832],[100,41916],[100,41999],[100,42082],[100,42166],[100,42249],[100,42332],[100,42416],[100,42499],[100,42582],[100,42666],[100,42749],[100,42832],[100,42916],[100,42999],[100,43082],[100,43166],[100,43249],[100,43332],[100,43416],[100,43499],[100,43582],[100,43666],[100,43749],[100,43832],[100,43916],[100,43999],[100,44082],[100,44166],[100,44249],[100,44332],[100,44416],[100,44499],[100,44582],[100,44666],[100,44749],[100,44832],[100,44916],[100,44999],[100,45082],[100,45166],[100,45249],[100,45332],[100,45416],[100,45499],[100,45582],[100,45666],[100,45749],[100,45832],[100,45916],[100,45999],[100,46082],[100,46166],[100,46249],[100,46332],[100,46416],[100,46499],[100,46582],[100,46666],[100,46749],[100,46832],[100,46916],[100,46999],[100,47082],[100,47166],[100,47249],[100,47332],[100,47416],[100,47499],[100,47582],[100,47666],[100,47749],[100,47832],[100,47916],[100,47999],[100,48082],[100,48166],[100,48249],[100,48332],[100,48416],[100,48499],[100,48582],[100,48666],[100,48749],[100,48832],[100,48916],[100,48999],[100,49082],[100,49166],[100,49249],[100,49332],[100,49416],[100,49499],[100,49582],[100,49666],[100,49749],[100,49832],[100,49916],[100,49999],[100,50082],[100,50166],[100,50249],[100,50332],[100,50416],[100,50499],[100,50582],[100,50666],[100,50749],[100,50832],[100,50916],[100,50999],[100,51082],[100,51166],[100,51249],[100,51332],[100,51416],[100,51499],[100,51582],[100,51667],[100,51749],[100,51832],[100,51916],[100,51999],[100,52082],[100,52166],[100,52249],[100,52332],[100,52416],[100,52499],[100,52582],[100,52666],[100,52749],[100,52832],[100,52916],[100,52999],[100,53082],[100,53166],[100,53249],[100,53332],[100,53415],[100,53499],[100,53582],[100,53666],[100,53749],[100,53832],[100,53916],[100,53999],[100,54082],[100,54166],[100,54249],[100,54332],[100,54416],[100,54499],[100,54582],[100,54666],[100,54749],[100,54832],[100,54916],[100,54999],[100,55082],[100,55166],[100,55249],[100,55332],[100,55416],[100,55499],[100,55582],[100,55666],[100,55749],[100,55832]]",1,0,284.4487,291.7483,99.58333333,3.7704,"[{""rating"":99.58333333333333,""responseTime"":3.77039999985692}]",space,6.7586,,291.7484,Partially,50,291.7549,,,[],,,,0,1,1,1,1,audio/Narrative7Situation1.wav,audio/Narrative8Situation1.wav,audio/Narrative5Situation1.wav,audio/Narrative6Situation1.wav,2,5,5,2,2.8386,,,,,,,,,,,,,,,,,,,,,,,,,,,,,,,,,,,,
,,,,,,65983c420d89145cbdb05468,2024-02-08_13h04.20.592,group3.1-3.2-social-tom,2023.2.2,Win32,59.88023952,65c5074098b851296ff0b7ed,65c5418b69951e672dd1970a,,,,,,,,,,,,,,,,,,,,,,,,,,,,,291.755,1,audio/Narrative7Situation2.wav,294.765,,294.7651,302.2488,"[[100,2083],[100,2166],[100,2249],[100,2333],[100,2416],[100,2499],[100,2583],[100,2666],[100,2749],[100,2833],[100,2916],[100,2999],[100,3083],[100,3166],[99.6,3249],[99.6,3333],[99.6,3416],[99.6,3499],[99.6,3583],[99.6,3666],[99.6,3749],[99.6,3833],[99.6,3916],[99.6,3999],[99.6,4082],[99.6,4166],[99.6,4249],[99.6,4333],[99.5,4416],[99.5,4500],[99.5,4583],[99.5,4666],[99.5,4749],[99.5,4833],[99.5,4916],[99.5,4999],[99.5,5083],[99.5,5166],[99.5,5249],[99.5,5333],[99.5,5416],[99.5,5499],[99.5,5583],[99.5,5666],[99.5,5749],[99.5,5833],[99.5,5916],[99.5,5999],[99.5,6083],[99.5,6166],[99.5,6249],[100,6333],[100,6416],[100,6499],[100,6583],[100,6666],[100,6749],[100,6833],[100,6916],[100,6999],[100,7083],[100,7166],[100,7249],[100,7333],[100,7417]]",1,0,302.2489,307.465,99.47916667,4.0721,"[{""rating"":99.47916666666667,""responseTime"":4.072099999904651}]",space,4.6799,,307.4651,Partially,50,307.4662,,,[],,,,0,2,2,2,1,audio/Narrative7Situation2.wav,audio/Narrative8Situation2.wav,audio/Narrative5Situation2.wav,audio/Narrative6Situation2.wav,3,3,3,3,,,,,,,,,,,,,,,,,,,,,,,,,,,,,,,,,,,,,
,,,,,,65983c420d89145cbdb05468,2024-02-08_13h04.20.592,group3.1-3.2-social-tom,2023.2.2,Win32,59.88023952,65c5074098b851296ff0b7ed,65c5418b69951e672dd1970a,,,,,,,,,,,,,,,,,,,,,,,,,,,,,307.4664,1,audio/Narrative7Situation3.wav,315.4815,,315.4815,324.7483,"[[99.3,2333],[97.6,2416],[95.3,2500],[94.1,2583],[58.3,2916],[49.5,3000],[31.4,3083],[16.1,3166],[0.1,4416],[0.1,4499],[0.1,4583],[0.1,4666],[0.1,4749],[0.1,4833],[0.1,4916],[0.1,5000],[0.1,5083],[0.1,5166],[0.1,5249],[0.1,5333],[0.1,5416],[2.2,5500],[34,5583],[59.9,5666],[61.7,5749],[76.8,5833],[78.4,5916],[78.4,5999],[78.4,6083],[94.1,6166],[96.6,6249],[96.6,6333],[96.6,6416],[96.6,6499],[97.8,6583],[97.8,6666],[97.8,6749],[97.8,6833],[97.8,6916],[97.8,7000],[97.8,7083],[97.8,7166],[100,7250],[100,7333],[100,7416],[100,7499],[100,7583],[100,7666],[100,7749],[100,7833],[100,7916],[100,8000],[100,8083],[100,8166],[100,8249],[100,8333],[100,8416],[100,8500],[100,8583],[100,8666],[100,8749],[100,8833],[100,8916],[100,9000],[100,9083],[100,9166],[100,9249]]",1,0,324.7484,329.7484,99.79166667,4.0198,"[{""rating"":99.79166666666667,""responseTime"":4.019800000190742}]",space,4.4509,,329.7484,Definitely yes,100,329.7506,,,[],,,,0,3,3,3,1,audio/Narrative7Situation3.wav,audio/Narrative8Situation3.wav,audio/Narrative5Situation3.wav,audio/Narrative6Situation3.wav,8,4,3,5,,,,,,,,,,,,,,,,,,,,,,,,,,,,,,,,,,,,,
,,,,,,65983c420d89145cbdb05468,2024-02-08_13h04.20.592,group3.1-3.2-social-tom,2023.2.2,Win32,59.88023952,65c5074098b851296ff0b7ed,65c5418b69951e672dd1970a,,,,,,,,,,,,,,,,,,,,,,,,,,,,,329.7507,1,audio/Narrative7Situation4.wav,332.7647,,332.7648,344.4816,"[[999,5],[999,83],[999,166],[999,249],[999,333],[999,416],[999,499],[999,583],[999,666],[999,750],[999,833],[999,916],[999,999],[999,1083],[999,1166],[999,1249],[999,1333],[999,1416],[999,1500],[999,1583],[19.4,1666],[11.9,1750],[5.4,1833],[0.7,2000]]",1,0,344.4817,351.5313,0.625,6.1212,"[{""rating"":0.6249999999999978,""responseTime"":6.121200000047736}]",space,6.511,,351.5313,Definitely yes,100,351.5327,,,[],,,,0,4,4,4,1,audio/Narrative7Situation4.wav,audio/Narrative8Situation4.wav,audio/Narrative5Situation4.wav,audio/Narrative6Situation4.wav,3,3,1,2,,,,,,,,,,,,,,,,,,,,,,,,,,,,,,,,,,,,,
,,,,,,65983c420d89145cbdb05468,2024-02-08_13h04.20.592,group3.1-3.2-social-tom,2023.2.2,Win32,59.88023952,65c5074098b851296ff0b7ed,65c5418b69951e672dd1970a,,,,,,,,,,,,,,,,,,,,,,,,,,,,,351.5328,1,audio/Narrative7Situation5.wav,356.5479,,356.5479,365.0478,"[[999,5],[999,83],[999,166],[999,250],[999,333],[999,416],[999,499],[999,583],[999,666],[999,750],[999,833],[999,916],[999,999],[999,1083],[999,1166],[999,1249],[999,1333],[999,1416],[999,1500],[999,1583],[3,1667],[2.2,1750],[1.9,1833],[1.9,1916],[1.9,1999],[1.9,2083],[1.9,2166],[1.9,2250],[1.7,2333],[1.6,2416],[1.6,2499],[1.6,2583],[1.6,2666],[1.6,2750],[1.6,2833],[1.6,2916],[1.6,2999],[1.6,3083],[1.6,3166],[1.6,3249],[1.6,3333],[1.6,3416],[1.6,3499],[1.6,3583],[1.6,3666],[1.6,3749],[1.6,3833],[1.6,3916],[1.6,3999],[1.6,4083],[1.6,4166],[1.6,4249],[1.6,4333],[1.6,4416],[1.6,4499],[1.6,4583],[1.6,4666],[1.6,4749],[1.6,4833],[1.6,4916],[1.6,4999],[1.6,5083],[1.6,5166],[1.6,5249],[1.6,5333],[1.6,5416],[1.6,5499],[1.6,5583],[1.9,5666],[15.4,5751],[18.9,5833],[18.9,5916],[18.9,5999],[13.2,6083],[10,6167],[7.1,6250],[5,6333],[5,6416],[5,6499],[5,6583],[5,6666],[5,6749],[5,6833],[5,6916],[5,6999],[5,7083],[5,7166],[5,7249],[5,7333],[5,7416],[5,7499],[5,7583],[5.1,7666],[5.1,7749],[5.1,7833],[5.1,7916],[5.1,7999],[5.1,8083],[5.1,8166],[5.1,8249],[5.1,8333],[5.1,8416],[5.1,8499]]",1,0,365.0479,369.2479,0.833333333,3.0802,"[{""rating"":0.8333333333333359,""responseTime"":3.0802000000476824}]",space,3.6543,,369.2479,Definitely yes,100,369.2493,,,[],,,,0,5,5,5,1,audio/Narrative7Situation5.wav,audio/Narrative8Situation5.wav,audio/Narrative5Situation5.wav,audio/Narrative6Situation5.wav,5,2,5,2,,,,,,,,,,,,,,,,,,,,,,,,,,,,,,,,,,,,,
,,,,,,65983c420d89145cbdb05468,2024-02-08_13h04.20.592,group3.1-3.2-social-tom,2023.2.2,Win32,59.88023952,65c5074098b851296ff0b7ed,65c5418b69951e672dd1970a,,,,,,,,,,,,,,,,,,,,,,,,,,,,,369.2494,1,audio/Narrative7Situation6.wav,372.2644,,372.2645,382.2477,"[[999,0],[999,83],[999,166],[999,249],[999,333],[999,416],[999,499],[999,583],[999,666],[999,749],[999,833],[999,916],[999,999],[999,1083],[999,1166],[999,1249],[999,1333],[999,1416],[999,1499],[999,1583],[999,1666],[999,1749],[999,1833],[999,1916],[999,2000],[999,2083],[999,2166],[999,2250],[45.1,2333],[45.7,2416],[52.2,2500],[61.3,2583],[76.8,2666],[86.6,2750],[100,2833],[100,2916],[100,2999],[100,3083],[100,3166],[100,3249],[100,3333],[100,3416],[100,3500],[100,3583],[100,3666],[100,3749],[100,3833],[100,3916],[100,3999],[100,4083],[100,4166],[100,4249],[100,4333],[100,4416],[100,4499],[100,4583],[100,4666],[100,4749],[100,4833],[100,4916],[100,4999],[100,5083],[100,5166],[100,5249],[100,5333],[100,5416],[100,5499],[100,5583],[100,5666],[100,5749],[100,5833],[100,5916],[100,5999],[100,6083],[100,6166],[100,6249],[100,6333],[100,6416],[100,6499],[100,6583],[100,6666],[100,6750],[100,6833],[100,6916],[100,6999],[100,7083],[100,7166],[100,7249],[100,7333],[100,7416],[100,7499],[100,7583],[100,7666],[100,7750],[100,7833],[100,7916],[100,7999],[100,8083],[100,8166],[100,8249],[100,8333],[100,8416],[100,8499],[100,8583],[100,8666],[100,8749],[100,8833],[100,8916],[100,8999],[100,9083],[100,9166],[100,9249],[100,9333],[100,9416],[100,9499],[100,9583],[100,9666],[100,9749],[100,9833],[100,9916]]",1,0,382.2478,385.181,98.95833333,2.5665,"[{""rating"":98.95833333333333,""responseTime"":2.5664999999999623}]",space,2.399,,385.1811,Not at all,0,385.1829,,,[],,,,0,6,6,6,1,audio/Narrative7Situation6.wav,audio/Narrative8Situation6.wav,audio/Narrative5Situation6.wav,audio/Narrative6Situation6.wav,3,2,3,2,,,,,,,,,,,,,,,,,,,,,,,,,,,,,,,,,,,,,
,,,,,,65983c420d89145cbdb05468,2024-02-08_13h04.20.592,group3.1-3.2-social-tom,2023.2.2,Win32,59.88023952,65c5074098b851296ff0b7ed,65c5418b69951e672dd1970a,,,,,,,,,,,,,,,,,,,,,,,,,,,,,385.183,1,audio/Narrative7Situation7.wav,390.1977,,390.1977,407.3642,"[[999,5],[999,83],[999,166],[999,249],[999,333],[999,416],[999,499],[999,583],[999,667],[999,749],[999,833],[999,916],[999,999],[999,1083],[999,1166],[999,1249],[999,1333],[999,1416],[999,1499],[999,1583],[999,1666],[999,1749],[999,1833],[999,1916],[999,1999],[999,2083],[999,2166],[999,2250],[999,2333],[999,2416],[999,2499],[999,2583],[999,2667],[999,2750],[0.4,2916],[0.9,3000],[1.1,3083],[1.1,3166],[1.1,3249],[0.8,3333],[5.2,6500],[25,6583],[38.9,6666],[40.1,6750],[100,6833],[100,6916],[100,6999],[100,7083],[100,7166],[100,7250],[100,7333],[100,7416],[100,7500],[100,7583],[100,7667],[100,7750],[100,7833],[100,7916],[100,7999],[100,8083],[100,8166],[99,8250],[98.5,8333],[98.5,8416],[98.5,8499],[98.5,8583],[98.5,8666],[98.5,8749],[98.3,8833],[98,8916],[98,8999],[98,9083],[98,9166],[98.6,9249],[99.2,9333],[99.4,9416],[99.4,9499],[99.4,9583],[99.4,9666],[99.4,9749],[99.4,9833],[99.4,9917],[99.4,10000],[99.4,10083],[99.4,10166],[99.4,10249],[99.4,10333],[99.4,10416],[99.4,10499],[99.4,10583],[99.4,10666],[99.4,10749],[99.4,10833],[99.4,10916],[99.4,11000],[99.4,11083],[99.4,11166],[99.4,11249],[99.4,11333],[99.4,11416],[99.4,11499],[99.4,11583],[99.4,11666],[99.4,11749],[99.4,11833],[99.4,11916],[99.4,11999],[99.4,12083],[99.4,12166],[99.4,12249],[99.4,12333],[99.4,12416],[99.4,12500],[99.4,12583],[99.4,12666],[99.4,12749],[99.4,12833],[99.4,12916],[99.4,12999],[99.4,13083],[99.4,13166],[99.4,13249],[99.4,13333],[99.4,13416],[99.4,13499],[99.4,13583],[99.4,13666],[99.4,13749],[99.4,13833],[99.4,13916],[99.4,13999],[99.4,14083],[99.4,14166],[99.4,14249],[99.4,14333],[99.4,14416],[99.4,14499],[99.4,14583],[99.4,14666],[99.4,14749],[99.4,14833],[99.4,14916],[99.4,14999],[99.4,15083],[99.4,15166],[99.4,15249],[99.4,15333],[99.4,15416],[99.4,15499],[99.4,15583],[99.4,15666],[99.4,15749],[99.4,15833],[99.4,15916],[99.4,15999],[99.4,16083],[99.4,16166],[99.4,16249],[99.4,16333],[99.4,16416],[99.4,16499],[99.4,16583],[99.4,16666],[99.4,16749],[99.4,16833],[99.4,16916],[99.4,16999],[99.4,17083],[99.4,17166]]",1,0,407.3643,412.3809,99.58333333,4.5188,"[{""rating"":99.58333333333333,""responseTime"":4.518799999952307}]",space,4.4847,,412.3809,Not at all,0,412.3819,,,[],,,,0,7,7,7,1,audio/Narrative7Situation7.wav,audio/Narrative8Situation7.wav,audio/Narrative5Situation7.wav,audio/Narrative6Situation7.wav,5,3,4,5,,,,,,,,,,,,,,,,,,,,,,,,,,,,,,,,,,,,,
,,,,,,65983c420d89145cbdb05468,2024-02-08_13h04.20.592,group3.1-3.2-social-tom,2023.2.2,Win32,59.88023952,65c5074098b851296ff0b7ed,65c5418b69951e672dd1970a,,,,,,,,,,,,,,,,,,,,,,,,,,,,,412.382,1,audio/Narrative7Situation8.wav,414.3974,,414.3975,424.4308,"[[100,2416],[100,2499],[100,2583],[100,2666],[100,2750],[100,2833],[100,2916],[100,3000],[100,3083],[100,3166],[99.8,3250],[99.5,3333],[99.5,3416],[99.5,3499],[99.5,3583],[99.5,3666],[99.5,3749],[99.5,3833],[99.5,3916],[99.5,3999],[99.5,4083],[99.5,4166],[99.5,4249],[100,4333],[100,4416],[100,4499],[100,4583],[100,4666],[100,4749],[100,4833],[100,4916],[100,4999],[100,5083],[100,5166],[100,5249],[100,5333],[100,5416],[100,5499],[100,5583],[100,5666],[100,5749],[100,5833],[100,5916],[100,6000],[100,6083],[100,6166],[100,6249],[100,6333],[100,6416],[100,6499],[100,6583],[100,6666],[100,6749],[100,6833],[100,6916],[100,6999],[100,7083],[100,7166],[100,7249],[100,7333],[100,7416],[100,7499],[100,7583],[100,7666],[100,7749],[100,7833],[100,7916],[100,7999],[100,8083],[100,8166],[100,8249],[100,8333],[100,8416],[100,8499],[100,8583],[100,8666],[100,8749],[100,8833],[100,8916],[100,8999],[100,9083],[100,9166],[100,9249],[100,9333],[100,9416],[100,9499],[100,9583],[100,9666],[100,9749],[100,9833],[100,9916],[100,9999]]",1,0,424.4309,427.7692,99.47916667,2.8444,"[{""rating"":99.47916666666667,""responseTime"":2.8444000000953906}]",space,2.7859,,427.7692,Definitely yes,100,427.7707,,,[],,,,0,8,8,8,1,audio/Narrative7Situation8.wav,audio/Narrative8Situation8.wav,audio/Narrative5Situation8.wav,audio/Narrative6Situation8.wav,2,3,3,5,,,,,,,,,,,,,,,,,,,,,,,,,,,,,,,,,,,,,
,,,,,,65983c420d89145cbdb05468,2024-02-08_13h04.20.592,group3.1-3.2-social-tom,2023.2.2,Win32,59.88023952,65c5074098b851296ff0b7ed,65c5418b69951e672dd1970a,,,,,,,,,,,,,,,,,,,,,,,,,,,,,427.7708,1,audio/Narrative7Situation9.wav,429.7807,,429.7807,438.414,"[[91.6,1755],[100,1838],[100,1916],[100,1999],[100,2088],[97.2,2171],[96.6,2254],[96.6,2333],[96.6,2421],[96.6,2500],[96.6,2583],[96.6,2671],[100,2755],[100,2837],[100,2921],[100,2999],[100,3083],[99,3171],[96.9,3250],[96.9,3338],[96.9,3416],[96.9,3504],[94.9,3588],[94.9,3666],[94.9,3749],[94.9,3838],[94.9,3921],[94.9,4004],[94.9,4083],[94.9,4166],[94.9,4249],[94.9,4333],[94.9,4416],[94.7,4504],[96.4,4589],[96.4,4669],[97,4755],[97,4838],[97,4921],[97.1,5005],[97.2,5083],[97.2,5166],[97.2,5255],[97.2,5333],[97.2,5421],[98,5499],[98,5583],[98,5666],[98,5749],[98,5838],[98,5921],[98,5999],[98,6083],[98,6166],[98,6250],[98,6338],[97.7,6421],[97.7,6504],[97.7,6583],[97.7,6666],[97.7,6754],[97.7,6833],[97.7,6916],[97.7,6999],[97.7,7083],[97.7,7171],[97.7,7254],[97.7,7336],[97.7,7421],[97.7,7499],[97.7,7583],[97.7,7671],[97.7,7754],[97.7,7833],[97.7,7916],[97.7,8000],[97.7,8083],[97.7,8171],[97.7,8254],[97.7,8338],[97.7,8416],[97.7,8504],[97.7,8583]]",1,0,438.4142,441.4025,98.75,2.6261,"[{""rating"":98.75,""responseTime"":2.626099999904625}]",space,2.451,,441.4026,Partially,50,441.404,,,[],,,,0,9,9,9,1,audio/Narrative7Situation9.wav,audio/Narrative8Situation9.wav,audio/Narrative5Situation9.wav,audio/Narrative6Situation9.wav,2,3,3,4,,,,,,,,,,,,,,,,,,,,,,,,,,,,,,,,,,,,,
,,,,,,65983c420d89145cbdb05468,2024-02-08_13h04.20.592,group3.1-3.2-social-tom,2023.2.2,Win32,59.88023952,65c5074098b851296ff0b7ed,65c5418b69951e672dd1970a,,,,,,,,,,,,,,,,,,,,,,,,,,,,,441.4042,1,audio/Narrative8Situation1.wav,446.4139,,446.4139,462.3304,"[[999,5],[999,88],[999,166],[999,254],[999,338],[999,416],[999,504],[999,583],[999,666],[999,754],[999,838],[999,916],[999,999],[999,1083],[999,1166],[999,1254],[999,1338],[999,1421],[999,1502],[999,1583],[999,1666],[999,1749],[999,1833],[999,1916],[999,2000],[999,2083],[999,2166],[999,2254],[999,2338],[999,2416],[999,2500],[999,2589],[999,2666],[999,2755],[999,2839],[999,2916],[999,3006],[999,3089],[999,3166],[999,3249],[999,3333],[999,3423],[999,3506],[999,3589],[999,3666],[999,3750],[999,3839],[999,3923],[999,4006],[999,4089],[999,4173],[1,4256],[1.1,4333],[1.1,4416],[1.1,4506],[1.1,4589],[1.1,4666],[1.1,4749],[1.1,4833],[1.1,4916],[1.1,4999],[1.1,5083],[1.1,5166],[1.1,5249],[1.1,5333],[1.1,5421],[1.1,5499],[1.1,5588],[1.1,5671],[1.1,5749],[1.1,5838],[1.1,5916],[1.1,6005],[1.1,6088],[1.1,6166],[1.1,6249],[1.1,6338],[1.1,6416],[1.1,6499],[1.1,6583],[1.1,6666],[1.1,6749],[1.1,6838],[1.1,6916],[1.1,6999],[1.1,7083],[1.1,7171],[1.1,7255],[1.1,7338],[1.1,7421],[1.1,7499],[1.1,7583],[1.1,7666],[1.1,7755],[1.1,7833],[1.1,7916],[1.1,7999],[1.1,8088],[1.1,8166],[1.1,8253],[1.1,8338],[1.1,8416],[1.1,8499],[1.1,8588],[1.1,8671],[1.1,8749],[1.1,8833],[1.1,8921],[1.1,8999],[1.1,9083],[1.1,9166],[1.1,9249],[1.1,9333],[2.1,9422],[4.3,9505],[10.4,9588],[26.4,9672],[60.6,9755],[64.6,9833],[68.9,9922],[90.2,10005],[90.2,10083],[99.6,10505],[99.4,10583],[99,10666],[97.9,10755],[97.9,10833],[97.9,10916],[98.2,11005],[98.3,11083],[98.5,11171],[98.8,11255],[98.9,11333],[98.9,11421],[99,11499],[99.4,11588],[99.5,11671],[99.5,11755],[99.5,11832],[99.5,11921],[99.5,11999],[99.5,12087],[99.5,12172],[99.5,12249],[99.5,12338],[99.5,12416],[99.5,12499],[99.5,12583],[99.5,12671],[99.5,12749],[99.5,12832],[99.5,12916],[99.5,13004],[99.5,13088],[99.5,13166],[99.5,13255],[99.5,13333],[99.5,13421],[99.5,13499],[99.5,13582],[99.5,13666],[99.5,13749],[99.5,13838],[99.5,13916],[99.5,14004],[99.5,14083],[99.5,14171],[99.5,14254],[99.5,14338],[99.5,14421],[99.5,14505],[99.5,14583],[99.5,14670],[99.5,14749],[99.5,14832],[99.5,14916],[99.5,14999],[99.5,15083],[99.5,15166],[99.5,15249],[99.5,15338],[99.5,15421],[99.5,15499],[99.5,15583],[99.5,15666],[99.5,15749],[99.5,15836],[99.5,15916]]",1,0,462.3305,465.3526,99.89583333,2.6672,"[{""rating"":99.89583333333334,""responseTime"":2.6672000000476714}]",space,2.4849,,465.3526,Not at all,0,465.3541,,,[],,,,0,10,10,10,1,audio/Narrative8Situation1.wav,audio/Narrative7Situation1.wav,audio/Narrative6Situation1.wav,audio/Narrative5Situation1.wav,5,2,2,5,,,,,,,,,,,,,,,,,,,,,,,,,,,,,,,,,,,,,
,,,,,,65983c420d89145cbdb05468,2024-02-08_13h04.20.592,group3.1-3.2-social-tom,2023.2.2,Win32,59.88023952,65c5074098b851296ff0b7ed,65c5418b69951e672dd1970a,,,,,,,,,,,,,,,,,,,,,,,,,,,,,465.3542,1,audio/Narrative8Situation2.wav,468.3637,,468.3638,478.4969,"[[999,0],[999,83],[999,170],[999,249],[999,333],[999,417],[999,504],[999,588],[999,670],[999,749],[999,838],[999,921],[999,1005],[999,1083],[999,1166],[999,1249],[999,1338],[999,1416],[999,1503],[999,1583],[999,1671],[999,1749],[999,1838],[999,1921],[999,2005],[999,2088],[999,2166],[999,2249],[999,2333],[999,2421],[999,2505],[999,2586],[999,2666],[999,2749],[999,2833],[999,2916],[999,2999],[999,3083],[999,3166],[999,3255],[999,3338],[999,3416],[999,3499],[999,3588],[999,3671],[999,3753],[999,3838],[3.6,4333],[3.6,4416],[3.6,4505],[3.6,4583],[3.6,4671],[3.6,4755],[3.6,4833],[3.8,4916],[3.8,4999],[3.8,5083],[3.8,5171],[3.8,5254],[3.6,5338],[2.1,5422]]",1,0,478.4971,480.8136,1.041666667,1.7821,"[{""rating"":1.0416666666666685,""responseTime"":1.782100000143032}]",space,1.7737,,480.8137,Not at all,0,480.815,,,[],,,,0,11,11,11,1,audio/Narrative8Situation2.wav,audio/Narrative7Situation2.wav,audio/Narrative6Situation2.wav,audio/Narrative5Situation2.wav,3,3,3,3,,,,,,,,,,,,,,,,,,,,,,,,,,,,,,,,,,,,,
,,,,,,65983c420d89145cbdb05468,2024-02-08_13h04.20.592,group3.1-3.2-social-tom,2023.2.2,Win32,59.88023952,65c5074098b851296ff0b7ed,65c5418b69951e672dd1970a,,,,,,,,,,,,,,,,,,,,,,,,,,,,,480.8151,1,audio/Narrative8Situation3.wav,484.8181,,484.8181,507.1969,"[[0.1,1417],[0.1,1495],[0.1,1578],[0.1,1667],[0.1,1745],[0.1,1833],[0.1,1917],[0.1,2000],[0.1,2083],[0.1,2162],[0.1,2245],[0.1,2332],[0.1,2412],[0.1,2495],[0.1,2583],[0.1,2662],[0.1,2745],[0.1,2828],[0.1,2916],[0.1,3000],[0.1,3083],[0.1,3162],[0.1,3250],[0.1,3332],[0.1,3417],[0.1,3495],[0.1,3583],[0.1,3667],[0.1,3745],[0.1,3833],[0.1,3912],[0.1,3998],[0.1,4078],[0.1,4166],[0.1,4245],[0.1,4328],[0.1,4412],[0.1,4500],[0.1,4584],[0.1,4662],[0.1,4745],[0.1,4828],[0.1,4912],[0.1,4999],[0.1,5083],[0.1,5162],[0.1,5250],[0.1,5332],[0.1,5412],[0.1,5495],[0.1,5578],[0.1,5662],[0.1,5745],[0.1,5828],[0.1,5916],[0.1,6000],[0.1,6078],[0.1,6166],[0.1,6250],[0.1,6328],[0.1,6412],[0.1,6495],[0.1,6583],[0.1,6662],[0.1,6745],[0.1,6828],[0.1,6916],[0.1,6995],[0.1,7078],[0.1,7162],[0.1,7250],[0.1,7328],[0.1,7416],[0.1,7495],[0.1,7578],[0.1,7667],[0.1,7745],[0.1,7833],[0.1,7916],[2.3,8000],[20.8,8083],[72.5,8167],[82.2,8250],[93.1,8334],[96.9,8417],[100,8500],[100,8582],[100,8662],[100,8750],[100,8833],[100,8917],[100,9000],[100,9083],[100,9162],[100,9250],[100,9328],[100,9412],[100,9495],[100,9578],[100,9666],[100,9745],[100,9828],[100,9916],[100,9995],[100,10083],[100,10162],[100,10245],[100,10333],[100,10412],[100,10500],[100,10583],[100,10666],[100,10745],[100,10828],[100,10917],[100,10995],[100,11078],[100,11162],[100,11245],[100,11333],[100,11416],[100,11500],[100,11578],[100,11662],[100,11750],[100,11828],[100,11911],[100,12000],[100,12078],[100,12162],[100,12245],[100,12331],[100,12412],[100,12495],[100,12583],[100,12662],[100,12745],[100,12833],[100,12916],[100,13000],[100,13078],[100,13162],[100,13245],[100,13328],[100,13417],[100,13500],[100,13583],[100,13667],[100,13750],[100,13833],[100,13917],[100,13995],[100,14083],[100,14166],[100,14245],[100,14328],[100,14417],[100,14495],[100,14578],[100,14666],[100,14745],[100,14828],[100,14916],[100,14995],[100,15078],[100,15167],[100,15245],[100,15328],[100,15412],[100,15500],[75.2,15583],[58.2,15667],[58.2,15750],[54.8,15834],[48.6,15911],[48.6,16000],[48.6,16078],[48.6,16167],[48.6,16250],[48.6,16328],[48.6,16417],[48.6,16495],[48.6,16583],[48.6,16666],[48.6,16750],[48.6,16828],[48.6,16912],[48.6,17000],[48.6,17083],[48.6,17166],[48.6,17245],[48.6,17328],[48.6,17416],[51.8,17500],[57.5,17584],[69,17667],[73.3,17750],[85.8,17834],[86.5,17916],[92.2,18000],[93.2,18078],[95,18167],[96.3,18250],[96.3,18328],[100,18417],[100,18500],[100,18583],[100,18667],[100,18745],[100,18833],[100,18917],[99.7,18995],[99.6,19078],[99.6,19162],[99.6,19250],[99.6,19328],[99.6,19411],[99.6,19495],[99.6,19582],[99.6,19666],[99.6,19745],[99.6,19828],[99.6,19911],[99.6,19995],[99.6,20082],[99.6,20166],[99.6,20245],[99.6,20328],[99.6,20416],[99.6,20495],[99.6,20578],[99.6,20661],[99.6,20750],[99.6,20833],[99.6,20912],[99.6,20995],[99.6,21083],[99.6,21167],[99.6,21245],[99.6,21333],[99.6,21411],[99.6,21495],[99.6,21578],[99.6,21667],[99.6,21750],[99.6,21828],[99.6,21912],[99.6,21995],[99.6,22078],[99.6,22162],[99.6,22248],[99.6,22333]]",1,0,507.1971,509.8854,99.58333333,2.4322,"[{""rating"":99.58333333333333,""responseTime"":2.4322000000477146}]",space,2.1336,,509.8855,Not at all,0,509.8864,,,[],,,,0,12,12,12,1,audio/Narrative8Situation3.wav,audio/Narrative7Situation3.wav,audio/Narrative6Situation3.wav,audio/Narrative5Situation3.wav,4,8,5,3,,,,,,,,,,,,,,,,,,,,,,,,,,,,,,,,,,,,,
,,,,,,65983c420d89145cbdb05468,2024-02-08_13h04.20.592,group3.1-3.2-social-tom,2023.2.2,Win32,59.88023952,65c5074098b851296ff0b7ed,65c5418b69951e672dd1970a,,,,,,,,,,,,,,,,,,,,,,,,,,,,,509.8866,1,audio/Narrative8Situation4.wav,512.9016,,512.9016,527.08,"[[99.7,83],[99.7,161],[99.7,245],[99.7,333],[99.7,411],[99.7,500],[99.7,583],[99.7,666],[99.7,745],[99.2,828],[90.8,916],[52.7,1000],[41.5,1083],[41.4,1161],[41.1,1250],[41.1,1328],[41.9,1416],[42.4,1495],[42.4,1578],[42.4,1661],[42.5,1750],[44.9,1833],[44.9,1911],[44.9,1995],[44.9,2078],[44.9,2166],[44.9,2245],[44.9,2333],[44.9,2411],[54.4,2500],[64,2583],[71.1,2667],[77.9,2750],[92.5,2833],[100,2916],[100,3000],[100,3078],[100,3166],[100,3250],[100,3328],[100,3416],[100,3495],[100,3578],[100,3666],[100,3750],[100,3828],[100,3915],[100,3995],[100,4078],[100,4161],[100,4245],[100,4328],[100,4416],[100,4495],[100,4578],[100,4661],[100,4750],[100,4828],[100,4911],[100,4999],[100,5083],[100,5166],[100,5250],[100,5328],[100,5411],[100,5495],[100,5578],[100,5666],[100,5745],[100,5828],[100,5915],[100,5995],[100,6083],[100,6166],[100,6245],[100,6333],[100,6411],[100,6500],[100,6583],[100,6666],[100,6745],[100,6832],[100,6916],[100,6995],[100,7083],[100,7161],[100,7245],[100,7328],[100,7411],[100,7499],[100,7583],[100,7666],[100,7745],[100,7828],[100,7915],[100,7995],[100,8078],[100,8161],[100,8245],[100,8333],[100,8411],[100,8495],[100,8578],[100,8661],[100,8745],[100,8828],[100,8911],[100,9000],[100,9078],[100,9161],[100,9249],[100,9332],[100,9416],[100,9495],[100,9583],[100,9661],[100,9748],[100,9833],[100,9916],[100,9995],[100,10078],[100,10161],[100,10249],[100,10333],[100,10411],[100,10495],[100,10578],[100,10666],[100,10745],[100,10828],[100,10911],[100,10995],[100,11078],[100,11161],[100,11245],[100,11328],[100,11411],[100,11500],[100,11583],[100,11661],[100,11745],[100,11828],[100,11916],[100,11995],[100,12078],[100,12161],[100,12245],[100,12332],[100,12411],[100,12500],[100,12583],[100,12666],[100,12745],[100,12828],[100,12916],[100,12995],[100,13078],[100,13166],[100,13245],[100,13333],[100,13411],[100,13495],[100,13578],[100,13661],[100,13745],[100,13828],[100,13911],[100,13999],[100,14078],[100,14161]]",1,0,527.0802,529.4349,99.58333333,2.0081,"[{""rating"":99.58333333333333,""responseTime"":2.008100000143031}]",space,1.7996,,529.435,Partially,50,529.4364,,,[],,,,0,13,13,13,1,audio/Narrative8Situation4.wav,audio/Narrative7Situation4.wav,audio/Narrative6Situation4.wav,audio/Narrative5Situation4.wav,3,3,2,1,,,,,,,,,,,,,,,,,,,,,,,,,,,,,,,,,,,,,
,,,,,,65983c420d89145cbdb05468,2024-02-08_13h04.20.592,group3.1-3.2-social-tom,2023.2.2,Win32,59.88023952,65c5074098b851296ff0b7ed,65c5418b69951e672dd1970a,,,,,,,,,,,,,,,,,,,,,,,,,,,,,529.4365,1,audio/Narrative8Situation5.wav,531.4466,,531.4467,539.7182,"[[99.4,2838],[99.3,2921],[99.3,2999],[99.3,3083],[99.3,3171],[99.3,3254],[99.3,3333],[99.3,3421],[99.3,3504],[99.3,3586],[99.3,3671],[99.3,3754],[99.3,3833],[99.3,3916],[99.3,3999],[99.3,4088],[99.3,4166],[99.3,4254],[99.3,4333],[99.3,4421],[99.3,4499],[99.3,4583],[99.3,4671],[99.3,4754],[99.3,4838],[99.3,4921],[99.3,5004],[99.3,5083],[99.3,5171],[99.3,5249],[99.3,5333],[99.3,5416],[99.3,5499],[99.3,5583],[99.3,5666],[99.3,5754],[99.3,5837],[99.3,5916],[99.3,5999],[99.3,6088],[99.3,6171],[99.3,6254],[99.3,6338],[99.3,6416],[99.3,6504],[99.3,6583],[99.3,6666],[99.3,6749],[99.3,6833],[99.3,6916],[99.3,7000],[99.3,7088],[99.3,7171],[99.3,7249],[99.3,7333],[99.3,7416],[99.3,7499],[99.3,7583],[99.3,7666],[99.3,7752],[99.3,7833],[99.3,7920],[99.3,8000],[99.3,8088],[99.3,8171],[99.3,8249]]",1,0,539.7183,541.4687,99.375,1.5006,"[{""rating"":99.375,""responseTime"":1.5005999999045798}]",space,1.2177,,541.4687,Partially,50,541.4697,,,[],,,,0,14,14,14,1,audio/Narrative8Situation5.wav,audio/Narrative7Situation5.wav,audio/Narrative6Situation5.wav,audio/Narrative5Situation5.wav,2,5,2,5,,,,,,,,,,,,,,,,,,,,,,,,,,,,,,,,,,,,,
,,,,,,65983c420d89145cbdb05468,2024-02-08_13h04.20.592,group3.1-3.2-social-tom,2023.2.2,Win32,59.88023952,65c5074098b851296ff0b7ed,65c5418b69951e672dd1970a,,,,,,,,,,,,,,,,,,,,,,,,,,,,,541.4699,1,audio/Narrative8Situation6.wav,543.4852,,543.4852,549.9681,"[[999,0],[999,83],[999,166],[999,244],[999,328],[999,416],[999,494],[999,578],[999,661],[999,744],[999,827],[999,916],[999,999],[999,1082],[999,1164],[999,1248],[999,1332],[999,1411],[999,1499],[999,1578],[999,1661],[999,1749],[999,1828],[999,1911],[999,1994],[999,2083],[999,2161],[999,2247],[999,2332],[999,2411],[999,2494],[999,2582],[999,2661],[999,2744],[999,2828],[999,2911],[999,2994],[999,3078],[999,3161],[999,3250],[999,3333],[999,3416],[999,3499],[70.7,3583],[80.5,3666],[84.8,3749],[84.8,3828],[84.8,3911],[84.3,3999],[84,4078],[84,4161],[82.6,4249],[57.2,4333],[56.8,4415],[56.8,4494],[56.8,4577],[56.8,4661],[55.6,4749],[55.6,4828],[55.5,4911],[55.5,4994],[55.5,5078],[56.4,5166],[64.9,5249],[66.5,5327],[66.5,5411],[66.5,5494],[66.5,5577],[66.5,5661],[66.5,5744],[66.5,5833],[66.5,5911],[66.5,5994],[66.5,6078],[66.5,6161],[78.6,6250],[81.5,6327],[81.5,6411]]",1,0,549.9682,557.7184,99.47916667,7.5363,"[{""rating"":99.47916666666667,""responseTime"":7.536300000190749}]",space,7.2118,,557.7185,Partially,50,557.7194,,,[],,,,0,15,15,15,1,audio/Narrative8Situation6.wav,audio/Narrative7Situation6.wav,audio/Narrative6Situation6.wav,audio/Narrative5Situation6.wav,2,3,2,3,,,,,,,,,,,,,,,,,,,,,,,,,,,,,,,,,,,,,
,,,,,,65983c420d89145cbdb05468,2024-02-08_13h04.20.592,group3.1-3.2-social-tom,2023.2.2,Win32,59.88023952,65c5074098b851296ff0b7ed,65c5418b69951e672dd1970a,,,,,,,,,,,,,,,,,,,,,,,,,,,,,557.7196,1,audio/Narrative8Situation7.wav,560.7298,,560.7298,572.813,"[[999,5],[999,83],[999,171],[999,249],[999,333],[999,421],[999,504],[999,583],[999,666],[999,749],[999,833],[999,916],[999,999],[999,1083],[999,1166],[999,1255],[999,1338],[999,1421],[999,1505],[999,1588],[999,1671],[17.1,1754],[17,1838],[17,1921],[17,1999],[17,2083],[17,2166],[17,2249],[17,2333],[17,2421],[17,2503],[17,2583],[39.3,2671],[64.8,2755],[65.2,2833],[65.2,2921],[65.2,2999],[65.2,3083],[65.2,3170],[65.2,3254],[65.4,3333],[95.5,3421],[95.5,3499],[95.5,3583],[95.5,3666],[95.5,3749],[95.5,3833],[95.5,3921],[95.5,3999],[95.5,4083],[95.5,4171],[95.6,4254],[95.9,4338],[96.7,4420],[96.7,4499],[96.7,4587],[96.9,4671],[96.9,4749],[96.9,4833],[96.9,4916],[96.9,4999],[96.9,5083],[96.9,5166],[96.9,5254],[96.9,5333],[96.9,5416],[96.9,5504],[96.9,5588],[96.9,5666],[96.9,5754],[96.9,5833],[96.9,5916],[96.9,5999],[96.9,6083],[96.9,6166],[96.9,6249],[96.9,6333],[96.9,6420],[96.9,6500],[96.9,6587],[96.9,6671],[96.9,6749],[96.9,6833],[96.9,6916],[96.9,7004],[96.9,7083],[96.9,7171],[96.9,7249],[96.9,7338],[96.9,7416],[96.9,7504],[96.9,7583],[96.9,7666],[96.9,7749],[96.9,7838],[96.9,7916],[96.9,8004],[96.9,8083],[96.9,8170],[96.9,8254],[96.9,8333],[96.9,8416],[96.9,8504],[96.9,8583],[96.9,8671],[96.9,8754],[96.9,8833],[96.9,8916],[96.9,9004],[96.9,9083],[96.9,9171],[96.9,9250],[96.9,9333],[96.9,9416],[96.9,9499],[96.9,9583],[96.9,9666],[96.9,9749],[96.9,9833],[96.9,9922],[96.9,9999],[96.9,10083],[96.9,10166],[96.9,10254],[96.9,10333],[96.9,10416],[96.9,10499],[96.9,10587],[96.9,10670],[96.9,10749],[96.9,10837],[96.9,10921],[96.9,10999],[96.9,11083],[96.9,11166],[96.9,11249],[96.9,11333],[96.9,11416],[96.9,11504],[96.9,11583],[96.9,11666],[96.9,11749],[96.9,11833],[96.9,11916],[96.9,11999],[96.9,12083]]",1,0,572.8132,575.3848,98.125,1.8491,"[{""rating"":98.125,""responseTime"":1.849099999904638}]",space,2.0252,,575.3849,Partially,50,575.3861,,,[],,,,0,16,16,16,1,audio/Narrative8Situation7.wav,audio/Narrative7Situation7.wav,audio/Narrative6Situation7.wav,audio/Narrative5Situation7.wav,3,5,5,4,,,,,,,,,,,,,,,,,,,,,,,,,,,,,,,,,,,,,
,,,,,,65983c420d89145cbdb05468,2024-02-08_13h04.20.592,group3.1-3.2-social-tom,2023.2.2,Win32,59.88023952,65c5074098b851296ff0b7ed,65c5418b69951e672dd1970a,,,,,,,,,,,,,,,,,,,,,,,,,,,,,575.3863,1,audio/Narrative8Situation8.wav,578.4011,,578.4012,591.2514,"[[98.1,2578],[98.1,2666],[98.1,2750],[97.1,2833],[1.3,3250],[2.7,6000],[41,6083],[77.5,6167],[88,6250],[100,6333],[100,6416],[100,6495],[100,6583],[100,6666],[100,6749],[100,6833],[100,6911],[100,6999],[100,7083],[100,7161],[100,7245],[100,7333],[100,7411],[100,7499],[100,7578],[100,7661],[100,7744],[100,7828],[100,7911],[100,7995],[100,8082],[100,8161],[100,8249],[100,8333],[100,8416],[100,8499],[100,8581],[100,8661],[100,8745],[100,8828],[100,8911],[100,8994],[100,9083],[100,9166],[100,9245],[100,9328],[100,9417],[100,9500],[100,9578],[100,9666],[100,9745],[100,9833],[100,9911],[100,9999],[100,10078],[100,10161],[100,10245],[100,10333],[100,10411],[100,10500],[100,10578],[100,10666],[100,10744],[100,10828],[100,10916],[100,10999],[100,11078],[100,11161],[100,11249],[100,11328],[100,11411],[100,11495],[100,11578],[100,11666],[100,11745],[100,11832],[100,11915],[100,11999],[100,12083],[100,12166],[100,12245],[100,12328],[100,12411],[100,12495],[100,12582],[100,12661],[100,12749],[100,12833]]",1,0,591.2515,594.2462,99.375,2.5193,"[{""rating"":99.375,""responseTime"":2.5192999999522954}]",space,2.4401,,594.2462,Not at all,0,594.2484,,,[],,,,0,17,17,17,1,audio/Narrative8Situation8.wav,audio/Narrative7Situation8.wav,audio/Narrative6Situation8.wav,audio/Narrative5Situation8.wav,3,2,5,3,,,,,,,,,,,,,,,,,,,,,,,,,,,,,,,,,,,,,
,,,,,,65983c420d89145cbdb05468,2024-02-08_13h04.20.592,group3.1-3.2-social-tom,2023.2.2,Win32,59.88023952,65c5074098b851296ff0b7ed,65c5418b69951e672dd1970a,,,,,,,,,,,,,,,,,,,,,,,,,,,,,594.2486,1,audio/Narrative8Situation9.wav,597.2497,,597.2497,608.5837,"[[3.6,3335],[2.5,7756],[28.3,7835],[49.2,7918],[74.2,8001],[87.4,8084],[100,8168],[100,8246],[100,8334],[100,8417],[100,8496],[100,8579],[100,8667],[100,8750],[100,8829],[100,8918],[100,8996],[100,9079],[100,9163],[100,9246],[100,9329],[100,9413],[100,9501],[100,9585],[100,9668],[100,9746],[100,9829],[100,9913],[100,9996],[100,10084],[100,10168],[100,10249],[100,10329],[100,10413],[100,10496],[100,10584],[100,10663],[100,10746],[100,10829],[100,10917],[100,10996],[100,11084],[100,11167],[100,11246],[100,11333]]",1,0,608.5837,610.5511,99.27083333,1.3603,"[{""rating"":99.27083333333333,""responseTime"":1.3602999999523036}]",space,1.4269,,610.5512,Definitely yes,100,621.8844,99.89583333,9.6325,"[{""rating"":99.89583333333334,""responseTime"":9.63250000000005}]",space,10.7834,,0,18,18,18,1,audio/Narrative8Situation9.wav,audio/Narrative7Situation9.wav,audio/Narrative6Situation9.wav,audio/Narrative5Situation9.wav,3,2,4,3,,,,,,,,,,,,,,,,,,,,,,,,,,,,,,,,,,,,,
,,,,,,65983c420d89145cbdb05468,2024-02-08_13h04.20.592,group3.1-3.2-social-tom,2023.2.2,Win32,59.88023952,65c5074098b851296ff0b7ed,65c5418b69951e672dd1970a,,,,,,,,,,,,,,,,,,,,,,,,,,,637.6187,640.1961,640.2058,2,audio/Narrative13Situation2.wav,640.2059,,640.2059,669.9519,"[[82.8,1245],[45.9,1328],[30.2,1411],[10,1495],[10.6,8245],[27.5,8328],[44.8,8411],[53.2,8495],[55.3,8573],[59.9,8663],[59.9,8739],[59.9,8823],[59.9,8906],[59.9,8989],[59.9,9073],[59.9,9156],[59.9,9240],[66.5,9328],[70.4,9411],[70.4,9489],[70.4,9573],[70.4,9660],[70.4,9744],[70.4,9823],[70.4,9906],[70.4,9989],[70.4,10073],[70.4,10156],[70.4,10239],[70.4,10323],[70.4,10406],[76.6,10490],[89.5,10578],[89.5,10656],[89.5,10739],[89.5,10823],[89.7,10906],[99.3,10995],[99.5,11073],[99.5,11156],[99.5,11239],[99.5,11323],[99.5,11411],[99.5,11489],[99.5,11573],[99.5,11656],[99.5,11744],[99.5,11823],[99.5,11906],[99.5,11989],[99.5,12073],[99.5,12156],[99.5,12239],[99.5,12323],[99.5,12406],[99.5,12494],[99.5,12573],[99.5,12661],[99.5,12739],[99.5,12823],[99.5,12906],[99.5,12994],[99.5,13073],[99.5,13156],[99.5,13243],[99.5,13323],[99.5,13410],[99.5,13489],[99.5,13573],[99.5,13661],[99.5,13739],[99.5,13823],[99.5,13911],[99.5,13989],[99.5,14073],[99.5,14160],[99.5,14239],[99.5,14327],[99.5,14411],[99.5,14489],[99.5,14573],[99.5,14656],[99.5,14739],[99.5,14823],[99.5,14906],[99.5,14989],[99.5,15078],[99.5,15156],[99.5,15239],[99.5,15323],[99.5,15406],[99.5,15489],[99.5,15573],[99.5,15656],[99.5,15739],[99.5,15827],[99.5,15906],[99.5,15989],[99.5,16073],[99.5,16161],[99.5,16244],[99.5,16323],[99.5,16406],[99.5,16489],[99.5,16573],[99.5,16656],[99.5,16762],[99.5,16851],[82.8,16949],[67.2,17061],[57.5,17143],[56.8,17227],[51.1,17327],[51.1,17410],[51.1,17494],[51.1,17577],[51.1,17660],[51.1,17744],[48.3,17827],[48.1,17910],[48.1,17994],[48.1,18077],[48.1,18160],[48,18244],[48,18327],[48,18410],[48,18494],[48,18577],[48.8,18660],[48.8,18744],[49.2,18827],[49.2,18910],[49.2,18994],[49.2,19077],[49.2,19161],[49.2,19244],[49.2,19327],[49.3,19411],[49.3,19493],[49.3,19577],[49.3,19660],[49.3,19744],[49.3,19827],[49.3,19910],[49.3,19994],[49.3,20077],[49.3,20160],[49.3,20244],[49.3,20327],[49.3,20410],[49.3,20494],[49.3,20577],[49.3,20660],[49.3,20744],[49.3,20827],[49.3,20911],[49.3,20994],[49.3,21077],[49.3,21160],[49.3,21244],[49.3,21327],[49.3,21411],[49.3,21494],[49.3,21577],[49.3,21660],[49.3,21744],[49.3,21827],[49.3,21910],[49.3,21993],[49.3,22077],[49.3,22160],[49.3,22243],[49.3,22327],[49.3,22410],[49.3,22493],[49.3,22577],[49.3,22661],[49.3,22744],[49.3,22827],[49.3,22910],[49.3,22994],[49.3,23077],[49.1,23161],[47.4,23244],[44.7,23327],[41.4,23411],[37.7,23494],[32.9,23577],[26.4,23661],[26.4,23744],[26.4,23827],[26.4,23910],[27.9,23994],[27.9,24077],[27.9,24161],[27.9,24244],[27.9,24327],[27.9,24411],[27.9,24494],[27.9,24577],[29.7,24661],[41.9,24744],[51.9,24827],[60.2,24911],[61.3,24994],[61.3,25077],[61.3,25160],[61.3,25244],[61.3,25329],[63.3,25411],[66.7,25494],[73,25577],[77.6,25660],[77.6,25744],[82.5,25827],[85.3,25910],[85.3,25994],[85.3,26077],[85.3,26160],[85.9,26244],[85.9,26327],[85.9,26410],[85.9,26494],[85.9,26577],[84.6,26661],[77.5,26744],[76.1,26828],[74.6,26911],[70.2,26994],[63.9,27077],[61,27161],[61,27244],[61,27327],[63,27411],[67.1,27494],[67.1,27577],[67.1,27661],[67.1,27744],[67.1,27827],[67.1,27910],[67.1,27994],[67.1,28077],[67.1,28160],[67.2,28244],[67.1,28327],[67.1,28410],[67,28494],[67,28577],[67,28660],[67,28743],[67,28827],[67,28910],[67,28994],[67,29077],[67,29160],[67,29244],[67,29327],[67,29410],[67,29494],[67,29577],[67,29661],[67,29745]]",1,0,669.9519,669.9531,,,[],,,,669.9531,Definitely yes,100,669.9537,,,[],,,,0,0,0,0,1,audio/Narrative13Situation2.wav,audio/Narrative13Situation2.wav,audio/Narrative13Situation2.wav,audio/Narrative13Situation2.wav,2,2,2,2,,,621.885,637.6132,space,15.2007,,,,,,,,,,,,,,,,,,,,,,,,,,,,,,,
,,,,,,65983c420d89145cbdb05468,2024-02-08_13h04.20.592,group3.1-3.2-social-tom,2023.2.2,Win32,59.88023952,65c5074098b851296ff0b7ed,65c5418b69951e672dd1970a,,,,,,,,,,,,,,,,,,,,,,,,,,,,,669.9538,2,audio/Narrative5Situation1.wav,674.9623,,674.9623,688.2508,"[[999,5],[999,88],[999,166],[999,249],[999,337],[999,419],[999,500],[999,583],[999,671],[999,750],[999,833],[999,916],[999,1000],[999,1083],[999,1166],[999,1253],[999,1333],[999,1416],[999,1500],[999,1583],[999,1666],[999,1754],[999,1838],[999,1916],[999,2004],[999,2086],[999,2166],[999,2250],[999,2337],[999,2416],[999,2499],[999,2583],[999,2671],[999,2755],[999,2838],[999,2916],[999,3005],[999,3088],[999,3171],[999,3254],[1.5,3671],[1,3755],[1,3838],[1,3921],[1,3999],[1,4083],[1,4166],[1,4254],[1,4333],[1,4421],[1,4500],[1,4583],[1,4666],[1,4750],[1,4833],[1,4916],[1,5004],[1,5083],[1,5171],[1,5254],[1,5333],[1,5416],[1,5500],[1,5588],[1,5666],[1,5750],[1.9,5838],[6.4,5921],[13.6,6005],[20,6088],[23.1,6171],[26.3,6255],[47.7,6338],[47.9,6421],[47.9,6499],[47.6,6583],[39.9,6671],[38.1,6755],[37,6838],[36.5,6921],[32.2,7005],[24.9,7088],[24.6,7169],[19.4,7255],[18.8,7333],[18.6,7416],[18.6,7499],[18.6,7583],[18.6,7666],[18.6,7750],[18.6,7833],[16.3,7921],[16.3,8000],[16.1,8083],[16.1,8166],[16.1,8249],[16.1,8333],[16.1,8421],[16.1,8504],[16.1,8583],[16.1,8666],[16.1,8750],[16.1,8833],[16.1,8916],[16.1,9004],[16.1,9083],[16.1,9171],[16.1,9249],[16.1,9333],[16.1,9421],[16.1,9504],[16.1,9583],[16.1,9666],[18.3,9755],[18.3,9837],[18.6,9921],[20.4,10005],[20.8,10088],[25.6,10171],[36.4,10254],[36.4,10333],[36.4,10416],[36.4,10499],[36.4,10588],[40.3,10671],[47.9,10754],[47.9,10833],[47.9,10916],[50.1,11005],[50.1,11083],[50.1,11166],[50.1,11249],[50.1,11338],[50.1,11416],[50.1,11500],[50.1,11583],[48.2,11671],[42.3,11755],[33.9,11838],[33.8,11916],[33.8,11999],[33.8,12083],[33.8,12166],[33.8,12254],[33.8,12333],[33.8,12416],[33.8,12499],[33.8,12588],[33.8,12666],[33.8,12749],[33.8,12838],[33.8,12920],[33.8,12999],[33.8,13083],[33.8,13166],[34.1,13255]]",1,0,688.2509,693.1008,50,4.533,"[{""rating"":50,""responseTime"":4.5330000000000155}]",space,4.3001,,693.1009,Not at all,0,693.1022,,,[],,,,0,1,1,1,1,audio/Narrative7Situation1.wav,audio/Narrative8Situation1.wav,audio/Narrative5Situation1.wav,audio/Narrative6Situation1.wav,2,5,5,2,,,,,,,,,,,,,,,,,,,,,,,,,,,,,,,,,,,,,
,,,,,,65983c420d89145cbdb05468,2024-02-08_13h04.20.592,group3.1-3.2-social-tom,2023.2.2,Win32,59.88023952,65c5074098b851296ff0b7ed,65c5418b69951e672dd1970a,,,,,,,,,,,,,,,,,,,,,,,,,,,,,693.1024,2,audio/Narrative5Situation2.wav,696.1122,,696.1122,725.5672,"[[45.8,838],[32.4,1505],[32.4,1583],[32.4,1671],[32.4,1750],[31.6,1838],[20.7,1921],[10.7,2005],[7.4,2083],[7.4,2166],[7.4,2249],[7.4,2333],[7.4,2421],[7.4,2499],[7.4,2587],[7.4,2671],[7.4,2749],[7.4,2833],[7.4,2921],[7.4,2999],[7.4,3083],[7.4,3171],[7.4,3250],[7.4,3337],[7.4,3421],[7.4,3500],[7.4,3583],[7.4,3670],[7.4,3754],[7.4,3838],[7.4,3916],[7.4,4005],[7.4,4087],[7.4,4171],[7.4,4249],[7.4,4333],[7.4,4420],[7.4,4499],[7.4,4588],[7.4,4671],[7.4,4754],[7.4,4838],[7.4,4916],[7.4,5004],[7.4,5083],[7.4,5172],[7.4,5249],[7.4,5337],[7.4,5421],[7.4,5499],[7.4,5588],[7.4,5666],[7.4,5749],[7.4,5837],[7.4,5921],[7.4,6004],[7.4,6088],[7.4,6171],[7.4,6249],[7.4,6333],[7.4,6421],[7.4,6504],[7.4,6587],[7.4,6669],[7.4,6754],[7.4,6833],[7.4,6921],[7.4,7003],[7.4,7087],[7.4,7171],[7.4,7254],[7.4,7333],[7.4,7416],[7.4,7504],[7.4,7588],[7.4,7666],[7.4,7754],[7.4,7833],[7.4,7916],[7.5,8004],[7.5,8087],[7.5,8166],[7.5,8254],[7.5,8333],[7.5,8421],[7.5,8499],[7.5,8588],[7.5,8671],[7.5,8754],[7.5,8833],[7.5,8921],[7.5,9004],[7.5,9083],[7.5,9166],[7.5,9254],[7.5,9333],[7.5,9416],[7.5,9504],[7.5,9588],[7.5,9666],[7.5,9749],[7.5,9838],[7.5,9921],[7.5,10004],[7.5,10083],[7.5,10171],[7.5,10249],[7.5,10337],[7.5,10421],[7.5,10504],[7.5,10588],[7.5,10666],[7.5,10749],[7.5,10833],[7.5,10916],[7.5,11004],[7.5,11083],[7.5,11170],[7.5,11249],[7.5,11338],[7.5,11416],[7.5,11504],[7.5,11583],[7.5,11666],[7.5,11749],[7.5,11833],[7.5,11921],[7.5,12004],[7.5,12087],[7.5,12166],[7.5,12249],[7.5,12333],[7.5,12420],[7.5,12499],[7.5,12583],[7.5,12671],[7.5,12749],[7.5,12833],[7.5,12916],[7.5,12999],[7.5,13087],[7.5,13171],[7.5,13249],[7.5,13337],[7.5,13416],[7.5,13499],[7.5,13583],[7.5,13666],[7.5,13754],[7.5,13837],[7.5,13921],[7.5,14004],[7.5,14083],[7.5,14166],[9.2,14254],[24.1,14338],[24.1,14419],[24.1,14499],[25.3,14588],[33.3,14671],[33.3,14754],[33.3,14838],[33.3,14921],[33.3,14999],[33.3,15083],[33.3,15166],[35.2,15255],[42.9,15338],[42.9,15421],[42.9,15504],[42.9,15583],[42.9,15671],[42.9,15749],[42.9,15833],[42.9,15916],[42.9,15999],[42.9,16083],[42.9,16170],[42.9,16254],[42.9,16333],[42.9,16416],[42.9,16499],[42.9,16588],[42.9,16666],[42.9,16754],[42.9,16837],[42.9,16921],[42.9,17003],[42.9,17088],[42.9,17166],[42.9,17249],[41.6,17338],[38.5,17416],[38.3,17499],[35.8,17588],[35.8,17671],[35.8,17754],[35.8,17833],[35.7,17916],[35.7,17999],[35.7,18083],[35.7,18171],[35.7,18254],[35.7,18333],[35.7,18416],[35.7,18504],[35.7,18583],[35.7,18670],[35.7,18749],[35.7,18837],[35.7,18916],[35.7,18999],[35.7,19087],[35.7,19171],[35.7,19249],[35.7,19337],[35.7,19421],[35.7,19506],[35.7,19587],[35.7,19671],[35.7,19754],[35.7,19840],[35.7,19920],[35.7,19999],[35.7,20088],[35.7,20166],[35.7,20254],[35.7,20337],[35.7,20416],[35.7,20504],[36.3,20593],[36.3,20671],[36.3,20754],[36.3,20838],[36.3,20916],[37.3,21004],[44.8,21088],[55.3,21171],[61.7,21254],[62.8,21336],[62.8,21416],[62.8,21504],[62.8,21583],[62.8,21671],[62.8,21754],[62.8,21833],[62.8,21921],[62.8,22004],[62.8,22083],[62.3,22171],[62.2,22254],[58.8,22338],[57.8,22420],[57.7,22504],[61.8,22588],[65.7,22671],[73.5,22754],[81.6,22838],[83.5,22921],[85.7,23005],[100,23083],[100,23171],[100,23249],[100,23333],[100,23421],[100,23499],[100,23587],[100,23672],[99.8,23754],[99.8,23837],[99.8,23921],[99.8,24004],[99.8,24087],[99.8,24166],[99.8,24254],[99.8,24332],[99.8,24416],[99.8,24499],[99.8,24583],[99.8,24666],[99.8,24754],[99.8,24838],[99.8,24916],[99.8,25004],[99.8,25083],[99.8,25166],[99.8,25254],[99.8,25333],[99.8,25416],[99.8,25504],[99.8,25583],[99.8,25672],[99.8,25754],[99.8,25833],[99.8,25916],[99.8,25999],[99.8,26083],[99.8,26171],[99.8,26254],[99.8,26333],[99.8,26416],[99.8,26504],[99.8,26583],[99.8,26671],[99.8,26754],[99.8,26837],[99.8,26921],[99.8,27003],[99.8,27083],[99.8,27171],[99.8,27254],[99.8,27338],[99.8,27416],[99.8,27499],[99.8,27588],[99.8,27666],[99.8,27754],[99.8,27837],[99.8,27921],[99.8,27999],[98.8,28088],[98.8,28166],[96.6,28250],[87.5,28338],[86.5,28421],[85.6,28504],[82.2,28583],[82.2,28666],[82.2,28754],[82.2,28836],[82.2,28921],[82.2,28999],[64.5,29088],[64.5,29169],[64.5,29249],[71.9,29338],[74.9,29416]]",1,0,725.5673,729.3842,83.33333333,3.4995,"[{""rating"":83.33333333333333,""responseTime"":3.499500000000012}]",space,3.2843,,729.3843,Not at all,0,734.5786,0,4.7984,"[{""rating"":0,""responseTime"":4.798400000095285}]",space,4.6437,,0,2,2,2,1,audio/Narrative7Situation2.wav,audio/Narrative8Situation2.wav,audio/Narrative5Situation2.wav,audio/Narrative6Situation2.wav,3,3,3,3,,,,,,,,,,,,,,,,,,,,,,,,,,,,,,,,,,,,,
,,,,,,65983c420d89145cbdb05468,2024-02-08_13h04.20.592,group3.1-3.2-social-tom,2023.2.2,Win32,59.88023952,65c5074098b851296ff0b7ed,65c5418b69951e672dd1970a,,,,,,,,,,,,,,,,,,,,,,,,,,,,,734.579,2,audio/Narrative5Situation3.wav,737.5952,,737.5952,751.4999,"[[999,0],[999,88],[999,171],[999,250],[999,333],[999,421],[999,500],[999,583],[999,671],[999,750],[999,833],[999,921],[999,1005],[999,1088],[49.7,1172],[48.9,1250],[48.9,1333],[48.1,1421],[48.1,1500],[48.1,1589],[46.3,1672],[21.1,1755],[15.5,1838],[15,1921],[8.1,2005],[8,2086],[8,2171],[8,2254],[8,2333],[8,2421],[8,2504],[8,2588],[8,2671],[8,2754],[8,2833],[8,2916],[8,3004],[12.9,3088],[14.7,3171],[22.6,3255],[24.6,3338],[24.6,3421],[32.7,3505],[63.3,3588],[63.5,3666],[63.5,3750],[63.4,3838],[61.1,3921],[60.1,4000],[60,4088],[60,4166],[60,4249],[60,4333],[60,4421],[57,4505],[56.3,4583],[56.3,4671],[56.3,4749],[56.3,4833],[56.3,4921],[56.3,5004],[56.3,5088],[56.3,5166],[63.9,5255],[73.8,5338],[82.2,5421],[89.7,5505],[98.8,5589],[99.8,5666],[99.8,5750],[99.8,5833],[99.8,5916],[99.8,6000],[99.8,6083],[99.8,6171],[99.8,6254],[99.8,6338],[99.8,6421],[99.8,6503],[99.8,6588],[99.8,6671],[99.8,6754],[99.8,6838],[99.8,6916],[99.8,7000],[99.8,7088],[99.8,7166],[99.8,7249],[99.8,7333],[99.8,7420],[99.8,7503],[99.8,7588],[99.8,7671],[99.8,7750],[99.8,7838],[99.8,7921],[99.8,7999],[99.8,8088],[99.8,8166],[99.8,8249],[99.8,8333],[99.8,8421],[99.8,8500],[99.8,8583],[99.8,8670],[99.8,8754],[99.8,8833],[99.8,8916],[99.8,9000],[99.8,9083],[99.8,9171],[99.8,9254],[99.8,9333],[99.8,9416],[99.8,9504],[99.8,9588],[99.8,9671],[99.8,9749],[99.8,9833],[99.8,9916],[99.8,9999],[99.8,10088],[99.8,10166],[99.8,10249],[99.8,10333],[99.8,10420],[99.8,10499],[99.8,10583],[99.8,10666],[99.8,10749],[99.8,10837],[99.8,10921],[99.8,11000],[99.8,11083],[99.8,11166],[99.8,11255],[99.8,11337],[99.8,11421],[99.8,11499],[99.8,11588],[99.8,11670],[99.8,11750],[99.8,11833],[99.8,11916],[99.8,12003],[99.8,12088],[99.8,12166],[99.8,12249],[99.8,12333],[99.8,12421],[99.8,12499],[99.8,12588],[99.8,12670],[99.8,12754],[99.8,12838],[99.8,12921],[99.8,13000],[99.8,13083],[99.8,13171],[99.8,13249],[99.8,13333],[99.8,13421],[99.8,13504],[99.8,13586],[99.8,13671],[99.8,13749],[99.8,13837]]",1,0,751.5,755.7668,94.79166667,3.5113,"[{""rating"":94.79166666666667,""responseTime"":3.511299999952257}]",space,3.7197,,755.7669,Definitely yes,100,755.7683,,,[],,,,0,3,3,3,1,audio/Narrative7Situation3.wav,audio/Narrative8Situation3.wav,audio/Narrative5Situation3.wav,audio/Narrative6Situation3.wav,8,4,3,5,,,,,,,,,,,,,,,,,,,,,,,,,,,,,,,,,,,,,
,,,,,,65983c420d89145cbdb05468,2024-02-08_13h04.20.592,group3.1-3.2-social-tom,2023.2.2,Win32,59.88023952,65c5074098b851296ff0b7ed,65c5418b69951e672dd1970a,,,,,,,,,,,,,,,,,,,,,,,,,,,,,755.7685,2,audio/Narrative5Situation4.wav,756.7834,,756.7835,777.1831,"[[56.1,82],[56.1,161],[56.1,249],[56.1,328],[56.1,411],[56.1,499],[56.1,582],[56.1,666],[56.1,745],[55.9,828],[55.9,911],[55.9,998],[55.9,1083],[55.9,1166],[55.9,1249],[52.2,1333],[51.1,1417],[51,1499],[51,1578],[51,1666],[51,1749],[51,1832],[46.6,1916],[36.4,2000],[20.4,2083],[20.4,2166],[20.4,2249],[18.9,2333],[12.9,2411],[12.8,2499],[12.8,2578],[12.8,2665],[12.8,2745],[12.8,2828],[12.8,2911],[12.8,2999],[12.8,3082],[12.8,3161],[12.8,3250],[12.8,3328],[12.8,3416],[12.8,3499],[12.8,3583],[12.8,3666],[12.8,3749],[12.8,3832],[12.8,3911],[12.8,3999],[12.8,4078],[12.8,4161],[12.8,4244],[12.8,4332],[12.4,4411],[3.5,4500],[3.5,4582],[3.4,4661],[3.4,4744],[3.4,4832],[3.4,4911],[3.4,4999],[3.4,5078],[3.4,5161],[9.2,5250],[15,5333],[15,5416],[15,5499],[15,5578],[15,5666],[15,5744],[15,5828],[15,5916],[15,5999],[15,6082],[15,6161],[11.1,6250],[11,6332],[10.7,6416],[10.4,6494],[9.8,6578],[9.6,6666],[9.6,6744],[9.6,6832],[9.6,6911],[9.6,6994],[9.6,7081],[9.6,7166],[9.6,7244],[9.6,7332],[9.6,7411],[9.6,7499],[9.6,7582],[9.6,7661],[9.6,7744],[9.6,7828],[9.6,7911],[9.6,7994],[9.6,8083],[9.6,8161],[9.6,8249],[9.6,8328],[9.6,8411],[9.6,8499],[9.6,8578],[9.6,8666],[9.6,8744],[9.6,8832],[9.6,8916],[9.6,8999],[9.6,9078],[9.6,9161],[9.6,9244],[9.6,9332],[9.6,9416],[9.6,9494],[9.6,9582],[10.9,9666],[19.1,9750],[31.8,9833],[37.7,9916],[46.3,10000],[56.6,10083],[66.3,10166],[66.3,10249],[66.3,10332],[66.4,10411],[66.4,10494],[66.4,10582],[66.4,10661],[66.4,10744],[66.4,10832],[66.4,10911],[66.4,10999],[66.4,11082],[66.4,11161],[66.4,11249],[66.4,11333],[66.4,11416],[66.4,11499],[66.4,11578],[66.4,11661],[66.4,11749],[66.4,11828],[66.4,11911],[66.4,11994],[66.4,12078],[66.4,12165],[66,12250],[66,12328],[66,12411],[66,12494],[66,12583],[66,12661],[66.7,12750],[68.1,12833],[69.9,12916],[70.6,13000],[71.5,13082],[71.5,13166],[71.5,13244],[71.5,13332],[71.5,13411],[71.5,13494],[71.5,13582],[71.5,13661],[71.5,13744],[71.5,13832],[71.5,13911],[71.5,13999],[71.5,14078],[71.5,14161],[71.5,14249],[71.5,14327],[71.5,14411],[71.5,14499],[71.5,14578],[71.5,14661],[71.5,14749],[71.5,14828],[71.5,14916],[71.5,14999],[71.5,15078],[71.5,15166],[71.5,15244],[70.6,15333],[70.2,15416],[70.2,15494],[70.2,15581],[69.2,15666],[68.3,15750],[68.3,15832],[68.2,15916],[68.2,15999],[68.2,16083],[68.2,16166],[68.2,16244],[68,16328],[68,16416],[71.3,16499],[75.8,16583],[80.8,16668],[91.4,16749],[91.4,16832],[91.4,16916],[91.4,16994],[91.4,17082],[91.4,17166],[91.4,17244],[91.4,17332],[91.4,17416],[91.4,17499],[91.4,17582],[91.4,17661],[91.4,17749],[91.4,17831],[91.4,17911],[91.4,17994],[91.4,18083],[91.5,18161],[92.8,18249],[92.8,18327],[92.8,18411],[97.7,18499],[99.3,18583],[99.6,18666],[99.6,18749],[99.6,18827],[99.6,18916],[99.6,18999],[99.6,19082],[99.6,19166],[99.6,19244],[99.6,19332],[99.6,19416],[99.6,19494],[99.6,19582],[99.6,19661],[99.6,19749],[99.6,19832],[99.5,19916],[99.5,20000],[99.5,20083],[99.5,20161],[99.5,20249],[100,20333]]",1,0,777.1832,780.8666,99.58333333,3.3863,"[{""rating"":99.58333333333333,""responseTime"":3.386300000190772}]",space,3.133,,780.8666,Not at all,0,780.8685,,,[],,,,0,4,4,4,1,audio/Narrative7Situation4.wav,audio/Narrative8Situation4.wav,audio/Narrative5Situation4.wav,audio/Narrative6Situation4.wav,3,3,1,2,,,,,,,,,,,,,,,,,,,,,,,,,,,,,,,,,,,,,
,,,,,,65983c420d89145cbdb05468,2024-02-08_13h04.20.592,group3.1-3.2-social-tom,2023.2.2,Win32,59.88023952,65c5074098b851296ff0b7ed,65c5418b69951e672dd1970a,,,,,,,,,,,,,,,,,,,,,,,,,,,,,780.8687,2,audio/Narrative5Situation5.wav,785.8782,,785.8783,801.3163,"[[98,921],[82.5,1000],[33.6,1088],[21.6,1171],[20.5,1254],[17.9,1338],[17.9,1421],[17.9,1504],[17.9,1588],[17.9,1671],[17.9,1754],[17.9,1833],[15.2,1922],[11.9,2004],[11.8,2083],[11.8,2166],[11.8,2249],[11.8,2333],[11.8,2421],[11.8,2499],[11.8,2583],[11.8,2666],[11.8,2754],[11.8,2838],[11.8,2916],[11.8,2999],[11.8,3087],[11.8,3166],[11.8,3249],[11.8,3337],[11.8,3421],[11.8,3499],[11.8,3583],[11.8,3666],[12.4,3755],[14.9,3838],[23.5,3921],[33.5,4004],[35.7,4088],[35.7,4171],[35.7,4254],[35.7,4337],[35.7,4416],[35.7,4503],[35.7,4588],[35.7,4666],[35.7,4754],[35.7,4833],[35.7,4920],[35.7,5005],[35.1,5087],[30.5,5171],[22.5,5254],[14.1,5338],[13.2,5416],[13.1,5504],[13,5583],[13,5671],[13,5749],[13,5837],[13,5921],[13,5999],[13,6087],[13,6171],[13,6249],[13,6337],[13,6416],[13,6503],[10.4,6588],[9.9,6666],[9.8,6750]]",1,0,801.3164,802.9331,0.208333333,1.2863,"[{""rating"":0.2083333333333326,""responseTime"":1.2862999999522344}]",space,1.0844,,802.9331,Partially,50,802.9345,,,[],,,,0,5,5,5,1,audio/Narrative7Situation5.wav,audio/Narrative8Situation5.wav,audio/Narrative5Situation5.wav,audio/Narrative6Situation5.wav,5,2,5,2,,,,,,,,,,,,,,,,,,,,,,,,,,,,,,,,,,,,,
,,,,,,65983c420d89145cbdb05468,2024-02-08_13h04.20.592,group3.1-3.2-social-tom,2023.2.2,Win32,59.88023952,65c5074098b851296ff0b7ed,65c5418b69951e672dd1970a,,,,,,,,,,,,,,,,,,,,,,,,,,,,,802.9347,2,audio/Narrative5Situation6.wav,805.9448,,805.9449,811.6497,"[[2,1004],[2.6,1083],[2.6,1166],[2.6,1249],[2.6,1332],[2.6,1416],[2.6,1504],[2.6,1588],[2.6,1666],[2.6,1754],[2.6,1837],[2.6,1916],[5.8,2004],[22,2088],[37.4,2171],[57.2,2254],[77,2338],[77,2416],[77,2499],[77,2582],[77,2671],[77,2754],[77,2833],[77,2916],[77,3004],[77,3083],[77,3166],[77,3254],[77,3337],[77,3416],[77,3499],[77,3588],[77,3666],[77,3749],[77,3838],[77,3916],[77,3999],[77,4088],[77,4166],[77,4254],[77,4333],[77,4416],[77,4504],[77.3,4587],[77.3,4671],[77.3,4754],[77.3,4838],[77.3,4921],[77.3,5004],[77.3,5087],[77.3,5170],[77.3,5254],[77.3,5337],[77.3,5421],[77.3,5499],[77.3,5587],[77.3,5666]]",1,0,811.6498,815.533,99.375,2.6496,"[{""rating"":99.375,""responseTime"":2.649600000142982}]",space,3.3509,,815.5331,Partially,50,815.5342,,,[],,,,0,6,6,6,1,audio/Narrative7Situation6.wav,audio/Narrative8Situation6.wav,audio/Narrative5Situation6.wav,audio/Narrative6Situation6.wav,3,2,3,2,,,,,,,,,,,,,,,,,,,,,,,,,,,,,,,,,,,,,
,,,,,,65983c420d89145cbdb05468,2024-02-08_13h04.20.592,group3.1-3.2-social-tom,2023.2.2,Win32,59.88023952,65c5074098b851296ff0b7ed,65c5418b69951e672dd1970a,,,,,,,,,,,,,,,,,,,,,,,,,,,,,815.5343,2,audio/Narrative5Situation7.wav,819.5446,,819.5447,840.5946,"[[999,5],[999,83],[999,166],[999,249],[999,333],[999,416],[999,504],[999,583],[999,666],[999,754],[999,838],[999,916],[999,999],[999,1083],[999,1166],[999,1255],[999,1333],[49.5,1421],[46,1505],[38.5,1588],[27.2,1671],[26.4,1755],[25.4,1833],[24.5,1921],[24.5,1999],[24.5,2083],[24.5,2171],[24.5,2254],[24.4,2333],[24.4,2421],[24.4,2504],[24.4,2588],[24.4,2666],[24.4,2749],[24.4,2838],[24.4,2916],[24.4,3004],[24.4,3083],[24.4,3166],[24.4,3249],[24.4,3333],[24.4,3416],[24.4,3499],[24.4,3588],[24.4,3671],[24.4,3753],[24.4,3838],[24.4,3916],[24.4,4004],[24.4,4087],[24.4,4166],[24.4,4249],[24.4,4333],[24.4,4416],[24.4,4499],[24.4,4587],[24.4,4671],[24.4,4754],[24.4,4837],[24.4,4916],[24.4,5002],[24.4,5083],[24.4,5166],[24.4,5254],[24.4,5337],[24.4,5416],[24.4,5504],[24.4,5587],[24.4,5666],[24.4,5754],[24.4,5833],[24.4,5921],[24.4,6004],[24.4,6083],[24.4,6166],[24.4,6254],[24.4,6336],[24.4,6421],[24.4,6504],[24.4,6587],[24.4,6671],[24.4,6754],[24.4,6833],[24.4,6916],[24.4,6999],[24.4,7082],[24.4,7171],[24.4,7249],[24.4,7333],[24.4,7421],[24.4,7499],[24.4,7583],[24.4,7666],[28.4,7755],[31.3,7838],[42.3,7921],[44,7999],[44.2,8088],[44.7,8171],[46.1,8254],[46.1,8333],[46.1,8416],[46.3,8504],[44.3,8587],[37.6,8671],[33,8754],[30.3,8837],[30.3,8921],[30.3,9003],[30.3,9083],[30.3,9171],[30.3,9249],[34,9338],[37.5,9416],[37.6,9504],[42.7,9588],[43.9,9666],[43.9,9754],[44,9838],[44,9921],[44,9999],[44,10083],[44,10166],[44,10253],[44,10338],[44,10416],[44,10503],[44,10583],[44,10670],[44,10749],[44,10837],[44,10920],[44,10999],[44,11083],[44,11166],[44,11249],[44,11337],[44,11421],[44,11499],[44,11583],[44,11666],[44,11749],[44,11833],[44,11921],[44,12004],[44,12083],[44,12166],[44,12254],[44,12333],[44,12416],[44,12499],[44,12583],[44,12666],[44,12754],[44,12833],[44,12916],[44,12999],[44,13083],[44,13166],[44,13254],[44,13333],[44,13416],[44,13499],[44,13587],[44,13666],[44,13749],[44,13833],[44,13921],[44,13999],[44,14087],[44,14166],[44,14249],[44,14337],[44,14416],[44,14504],[44,14582],[44,14671],[44,14749],[44,14837],[44,14916],[44,14999],[44,15087],[44,15166],[44,15254],[44,15337],[44,15421],[44,15504],[44,15583],[44,15666],[44,15749],[44,15833],[44,15920],[44,16003],[44,16082],[44,16166],[44,16254],[44,16332],[44,16416],[44,16504],[44.1,16587],[40.3,16672],[40,16750],[36.4,16838],[36,16920],[35.8,17005],[35.5,17088],[34.9,17169],[34.3,17249],[33.3,17338],[32.3,17421],[32.1,17500],[18.5,17588],[18.5,17671],[18.5,17753],[18.5,17837],[18.5,17921],[18.5,17999],[18.5,18082],[18.5,18171],[18.5,18249],[18.5,18337],[18.5,18416],[18.5,18499],[18.5,18588],[18.5,18666],[18.5,18754],[18.5,18833],[18.5,18916],[18.5,19004],[18.5,19087],[18.5,19166],[18.5,19255],[18.5,19333],[18.5,19416],[18.5,19499],[18.5,19587],[18.5,19671],[18.5,19749],[18.5,19833],[18.5,19916],[18.5,20004],[18.5,20083],[18.5,20171],[18.5,20252],[18.5,20337],[18.5,20416],[18.5,20499],[17.7,20588],[12.2,20671],[7.9,20754],[7.9,20833],[7.9,20921],[7.9,20999]]",1,0,840.5947,842.9498,9.375,1.3703,"[{""rating"":9.375,""responseTime"":1.3702999999524081}]",space,1.8004,,842.9498,Not at all,0,842.9516,,,[],,,,0,7,7,7,1,audio/Narrative7Situation7.wav,audio/Narrative8Situation7.wav,audio/Narrative5Situation7.wav,audio/Narrative6Situation7.wav,5,3,4,5,,,,,,,,,,,,,,,,,,,,,,,,,,,,,,,,,,,,,
,,,,,,65983c420d89145cbdb05468,2024-02-08_13h04.20.592,group3.1-3.2-social-tom,2023.2.2,Win32,59.88023952,65c5074098b851296ff0b7ed,65c5418b69951e672dd1970a,,,,,,,,,,,,,,,,,,,,,,,,,,,,,842.9516,2,audio/Narrative5Situation8.wav,845.9643,,845.9643,854.7829,"[[10,2580],[10,2668],[10,2746],[10,2830],[10,2913],[10,2996],[10,3080],[10,3163],[10,3246],[10,3330],[10,3413],[10,3496],[10,3584],[10,3663],[10,3751],[10,3834],[10,3918],[10,4001],[10,4085],[10,4163],[10,4251],[10,4330],[10,4413],[10,4501],[10,4584],[10,4668],[10,4751],[10,4830],[10,4918],[10,4996],[10,5080],[10,5163],[10,5246],[10,5330],[10,5413],[10,5496],[10,5584],[10,5663],[10,5746],[10,5835],[10,5918],[10,6001],[10,6084],[10,6163],[10,6246],[10,6335],[10,6417],[10,6496],[10,6580],[10,6668],[10,6746],[10,6830],[10,6913],[10,7001],[10,7080],[10,7163],[10,7246],[10,7330],[10,7418],[10,7496],[10,7584],[10,7668],[10,7746],[10,7835],[10,7918],[10,7996],[10,8080],[10,8163],[10,8246],[10,8330],[10,8413],[10,8501],[10,8580],[10,8668],[10,8751]]",1,0,854.783,856.911,1.666666667,1.0773,"[{""rating"":1.6666666666666663,""responseTime"":1.0772999999524018}]",space,1.5884,,856.9111,Not at all,0,856.9121,,,[],,,,0,8,8,8,1,audio/Narrative7Situation8.wav,audio/Narrative8Situation8.wav,audio/Narrative5Situation8.wav,audio/Narrative6Situation8.wav,2,3,3,5,,,,,,,,,,,,,,,,,,,,,,,,,,,,,,,,,,,,,
,,,,,,65983c420d89145cbdb05468,2024-02-08_13h04.20.592,group3.1-3.2-social-tom,2023.2.2,Win32,59.88023952,65c5074098b851296ff0b7ed,65c5418b69951e672dd1970a,,,,,,,,,,,,,,,,,,,,,,,,,,,,,856.9123,2,audio/Narrative5Situation9.wav,859.9277,,859.9278,899.4774,"[[1,833],[0.9,917],[0.9,1000],[0.9,1088],[0.9,1166],[0.9,1250],[3.3,1338],[12.1,1421],[33.9,1505],[38.1,1588],[38.1,1666],[38.1,1755],[38.1,1838],[38.1,1916],[35.7,2005],[35.1,2083],[35.1,2171],[35.1,2250],[35.1,2333],[35.1,2416],[13.8,2505],[10,3005],[14.7,3088],[14.7,3166],[14.7,3249],[14.7,3333],[14.7,3416],[14.7,3499],[14.7,3583],[14.7,3666],[14.7,3750],[14.7,3833],[14.7,3916],[14.7,4000],[14.7,4083],[14.7,4170],[15.4,4255],[42.1,4338],[84.5,4421],[92.6,4499],[92.6,4583],[92.6,4671],[76.9,4755],[70.2,4838],[64.1,4921],[62.1,5005],[61.3,5088],[61.3,5166],[61.3,5249],[57.1,5338],[55.9,5420],[55.9,5499],[55.8,5583],[55.8,5666],[55.8,5749],[55.8,5833],[55.8,5916],[55.8,6000],[55.8,6083],[55.8,6169],[55.8,6254],[55.8,6333],[55.8,6416],[49.7,6505],[49,6583],[49,6666],[49,6754],[49,6833],[48.9,6916],[48.9,6999],[48.9,7083],[48.9,7166],[48.9,7254],[48.9,7333],[48.9,7421],[48.9,7500],[48.9,7588],[48.9,7671],[75.4,7755],[78.3,7838],[85.2,7921],[85.2,8004],[85.2,8083],[85.2,8166],[85.2,8249],[85.2,8338],[85.2,8416],[85.2,8504],[85.2,8583],[85.2,8666],[85.2,8749],[85.2,8838],[85.2,8916],[85.2,9004],[85.2,9083],[85.2,9170],[86.1,9255],[97.5,9338],[98.2,9416],[98.9,9502],[98.9,9583],[98.9,9671],[98.9,9754],[98.9,9833],[98.9,9919],[98.9,9999],[98.9,10088],[98.9,10166],[98.9,10249],[98.9,10333],[98.9,10416],[98.9,10505],[98.9,10583],[98.9,10671],[98.9,10750],[98.9,10837],[100,10921],[100,10999],[100,11083],[100,11170],[100,11249],[100,11338],[100,11421],[100,11499],[100,11583],[100,11671],[100,11754],[100,11837],[100,11921],[97,11999],[97,12083],[97,12171],[97,12249],[97,12338],[97,12416],[96.5,12500],[96.5,12587],[96.5,12666],[96.7,12750],[97.8,12838],[99.7,12916],[99.7,12999],[99.7,13088],[99.7,13166],[99.7,13249],[99.7,13333],[99.7,13421],[99.7,13504],[99.7,13583],[99.7,13666],[99.7,13749],[99.7,13833],[99.7,13916],[99.7,14004],[99.7,14088],[99.7,14166],[99.7,14249],[99.7,14333],[99.7,14416],[99.7,14499],[99.7,14583],[99.7,14666],[99.7,14749],[99.7,14833],[99.7,14916],[99.7,14999],[99.7,15087],[99.7,15166],[99.7,15254],[99.7,15338],[99.7,15421],[99.7,15499],[99.7,15583],[99.7,15666],[99.7,15754],[99.7,15833],[99.7,15916],[99.7,15999],[99.7,16088],[99.7,16166],[99.7,16254],[99.7,16333],[99.7,16421],[99.7,16499],[99.7,16583],[99.7,16666],[99.7,16749],[99.7,16838],[99.8,16916],[99.8,17004],[99.8,17087],[99.8,17166],[99.8,17249],[99.8,17338],[99.8,17421],[99.8,17499],[99.8,17587],[99.8,17666],[99.8,17754],[99.8,17837],[99.8,17920],[99.8,17999],[99.8,18083],[99.8,18171],[99.8,18254],[99.8,18338],[99.8,18421],[99.8,18504],[99.8,18583],[99.8,18666],[99.8,18749],[99.8,18833],[99.8,18921],[99.8,19005],[99.8,19088],[99.8,19166],[99.8,19249],[99.8,19333],[99.8,19420],[99.8,19504],[99.8,19583],[99.8,19666],[99.8,19749],[99.8,19833],[99.8,19916],[99.8,19999],[99.8,20083],[99.8,20171],[99.8,20250],[99.8,20337],[99.8,20416],[99.8,20499],[99.8,20583],[99.8,20666],[99.8,20749],[99.8,20837],[99.8,20916],[99.8,21004],[99.8,21088],[99.8,21171],[99.8,21254],[99.8,21333],[99.8,21416],[99.8,21499],[99.8,21588],[99.8,21666],[99.8,21749],[99.8,21833],[99.8,21916],[99.8,21999],[99.8,22083],[99.8,22171],[99.8,22249],[99.8,22333],[99.8,22421],[99.8,22499],[99.8,22583],[99.8,22666],[99.8,22749],[99.4,22838],[96.9,22921],[96.6,22999],[96.6,23083],[96.6,23166],[99.3,23254],[99.3,23337],[99.3,23421],[99.3,23499],[99.3,23583],[99.3,23671],[99.3,23753],[99.3,23833],[99.3,23916],[99.3,23999],[99.3,24087],[99.3,24166],[99.7,24255],[100,24338],[100,24421],[100,24499],[100,24583],[100,24666],[100,24749],[100,24833],[100,24916],[100,25004],[100,25088],[100,25166],[100,25249],[100,25333],[100,25416],[100,25504],[100,25583],[100,25666],[95.9,25754],[95.9,25837],[95.9,25916],[95.9,25999],[98.3,26088],[100,26171],[100,26249],[100,26338],[100,26416],[100,26502],[100,26583],[100,26666],[100,26749],[100,26838],[100,26916],[100,27004],[100,27083],[100,27166],[100,27249],[100,27333],[100,27416],[100,27499],[100,27583],[100,27671],[100,27749],[100,27838],[100,27916],[100,28004],[100,28088],[100,28166],[100,28249],[100,28333],[100,28416],[100,28499],[100,28583],[100,28666],[100,28749],[100,28837],[100,28921],[100,28999],[100,29083],[100,29166],[100,29254],[100,29333],[100,29416],[100,29499],[100,29583],[100,29671],[100,29749],[100,29833],[100,29921],[100,29999],[100,30083],[100,30166],[100,30254],[100,30333],[100,30416],[100,30499],[100,30583],[100,30666],[100,30752],[100,30833],[100,30916],[100,30999],[100,31083],[100,31166],[100,31249],[100,31333],[100,31421],[100,31499],[100,31583],[100,31666],[100,31749],[100,31836],[100,31916],[100,31999],[100,32083],[100,32166],[100,32254],[100,32337],[100,32416],[100,32503],[100,32583],[100,32666],[100,32754],[100,32838],[100,32916],[100,33004],[100,33083],[100,33166],[100,33253],[100,33333],[100,33421],[100,33499],[100,33583],[100,33671],[100,33749],[100,33833],[100,33916],[100,33999],[100,34087],[100,34166],[100,34249],[100,34333],[100,34416],[100,34504],[100,34587],[100,34671],[100,34754],[98.9,34843],[98.8,34921],[98.8,35003],[98.8,35088],[100,35171],[100,35254],[100,35333],[100,35420],[100,35504],[100,35583],[100,35671],[100,35754],[100,35838],[100,35916],[100,35999],[100,36083],[100,36171],[99.5,36249],[99.5,36333],[99.4,36416],[100,36499],[100,36583],[100,36666],[100,36754],[99.9,36838],[95.7,36921],[95.7,36999],[95.7,37087],[99.2,37172],[100,37249],[100,37338],[100,37416],[100,37504],[100,37587],[100,37666],[100,37749],[100,37837],[100,37921],[100,38004],[100,38083],[100,38171],[100,38249],[100,38332],[100,38421],[100,38499],[100,38583],[100,38671],[100,38754],[100,38835],[100,38916],[100,38999],[100,39083],[100,39171],[100,39249],[100,39333],[100,39416],[100,39499]]",1,0,899.4775,903.2441,98.4375,3.1174,"[{""rating"":98.4375,""responseTime"":3.1174000000953583}]",space,3.2255,,903.2441,Partially,50,903.2457,,,[],,,,0,9,9,9,1,audio/Narrative7Situation9.wav,audio/Narrative8Situation9.wav,audio/Narrative5Situation9.wav,audio/Narrative6Situation9.wav,2,3,3,4,,,,,,,,,,,,,,,,,,,,,,,,,,,,,,,,,,,,,
,,,,,,65983c420d89145cbdb05468,2024-02-08_13h04.20.592,group3.1-3.2-social-tom,2023.2.2,Win32,59.88023952,65c5074098b851296ff0b7ed,65c5418b69951e672dd1970a,,,,,,,,,,,,,,,,,,,,,,,,,,,,,903.2458,2,audio/Narrative6Situation1.wav,905.2489,,905.2489,931.8442,"[[97.4,166],[97.5,245],[97.5,328],[97.5,411],[97.5,500],[97.5,578],[97.5,662],[98.3,750],[53.1,2000],[47,2083],[42.1,2166],[33.4,2245],[10.5,2328],[10.4,2411],[10.4,2495],[10.4,2578],[10.4,2661],[10.4,2745],[10.4,2828],[10.4,2911],[10.4,2995],[10.4,3078],[10.4,3162],[10.4,3245],[10.4,3328],[10.4,3411],[10.4,3495],[10.4,3578],[10.4,3661],[10.4,3745],[10.4,3828],[10.4,3912],[10.4,3995],[10.4,4078],[10.4,4161],[10.4,4245],[10.4,4328],[10.4,4411],[10.4,4495],[10.4,4578],[10.4,4661],[10.4,4745],[10.4,4828],[10.4,4912],[10.4,4995],[10.4,5078],[11.5,5162],[35.8,5245],[52.2,5328],[53.2,5411],[58.6,5495],[92.3,5578],[92.3,5661],[92.3,5746],[92.3,5828],[92.3,5911],[92.3,5995],[92.3,6078],[92.3,6162],[92.3,6245],[92.5,6336],[92.5,6411],[92.6,6495],[96.1,6578],[96.7,6662],[96.7,6745],[96.7,6828],[96.7,6912],[96.7,6995],[96.7,7078],[96.7,7161],[96.7,7245],[96.7,7328],[96.7,7411],[96.7,7495],[96.7,7578],[96.7,7661],[96.7,7745],[96.7,7828],[96.7,7912],[96.7,7995],[96.7,8078],[96.7,8162],[96.7,8245],[96.7,8328],[96.7,8412],[96.7,8495],[96.7,8578],[96.7,8661],[96.7,8745],[96.7,8828],[96.7,8911],[96.7,8995],[96.7,9078],[96.7,9161],[96.7,9245],[96.6,9328],[95.8,9412],[95.1,9495],[94.6,9578],[94.6,9661],[94.6,9745],[94.6,9828],[94.6,9912],[94.6,9995],[94.6,10078],[91.1,10162],[85.1,10245],[85.1,10328],[85.1,10411],[83.2,10495],[73,10578],[73,10661],[72.3,10745],[59.8,10828],[55.1,10911],[55.1,10995],[55.1,11078],[55,11162],[49.2,11245],[48.5,11328],[43,11412],[40.7,11494],[40.7,11578],[40.7,11661],[40.7,11745],[40.7,11828],[40.7,11911],[40.7,11995],[40.7,12078],[40.7,12161],[40.7,12245],[40.7,12328],[40.7,12412],[40.7,12495],[40.7,12578],[40.7,12662],[40.7,12745],[40.7,12828],[40.7,12912],[50.1,12995],[52.1,13078],[52.1,13161],[52.1,13245],[52.1,13328],[43.3,13412],[41.1,13495],[41.1,13578],[41.1,13661],[41.1,13744],[41.1,13828],[41,13912],[38,13995],[38,14078],[30.3,14162],[28.1,14245],[28.1,14328],[28.1,14411],[28.1,14495],[28.1,14578],[28.1,14662],[28.1,14745],[28.1,14828],[28.1,14911],[28.1,14995],[28.1,15078],[28.1,15162],[28.1,15245],[28.1,15328],[24.7,15411],[21.9,15495],[21.9,15578],[21.9,15661],[21.9,15744],[21.9,15828],[21.9,15911],[21.8,15995],[21.8,16078],[21.8,16161],[21.8,16245],[21.8,16328],[21.8,16411],[21.8,16495],[21.8,16578],[23,16661],[23.9,16744],[23.9,16828],[23.9,16911],[23.9,16995],[23.9,17078],[23.9,17161],[23.9,17245],[23.9,17328],[23.9,17411],[23.9,17495],[23.9,17578],[23.9,17661],[23.9,17744],[24,17828],[24,17911],[24,17995],[24,18078],[24,18161],[24,18245],[24,18328],[24,18411],[24,18495],[29.6,18578],[29.6,18661],[29.6,18745],[29.6,18828],[29.6,18911],[29.6,18995],[29.6,19078],[29.6,19161],[29.6,19244],[29.6,19328],[29.6,19412],[29.6,19495],[29.6,19578],[29.6,19661],[29.6,19745],[29.6,19828],[29.6,19911],[29.6,19995],[29.6,20078],[29.6,20161],[29.6,20245],[29.6,20328],[29.6,20411],[29.6,20495],[29.6,20578],[29.6,20661],[29.6,20745],[29.6,20828],[29.6,20911],[29.6,20995],[35.5,21078],[45.3,21161],[45.7,21245],[50.1,21328],[50.1,21411],[50.1,21495],[50.1,21578],[50.1,21661],[50.1,21745],[50.1,21828],[50.1,21911],[50.1,21995],[50.1,22078],[50.1,22162],[50.1,22245],[50.1,22328],[50.1,22411],[50.1,22495],[50.1,22578],[50.1,22661],[50.1,22745],[50.1,22828],[50.1,22911],[50.1,22995],[50.1,23078],[50.1,23162],[50.1,23245],[50.1,23328],[50.1,23412],[50.1,23495],[50.1,23578],[50.1,23661],[50.1,23745],[50.1,23828],[50.1,23911],[50.1,23995],[50.1,24078],[55.3,24162]]",1,0,931.8443,934.1605,63.75,1.2703,"[{""rating"":63.74999999999999,""responseTime"":1.2702999999523854}]",space,1.7709,,934.1606,Definitely yes,100,934.1619,,,[],,,,0,10,10,10,1,audio/Narrative8Situation1.wav,audio/Narrative7Situation1.wav,audio/Narrative6Situation1.wav,audio/Narrative5Situation1.wav,5,2,2,5,,,,,,,,,,,,,,,,,,,,,,,,,,,,,,,,,,,,,
,,,,,,65983c420d89145cbdb05468,2024-02-08_13h04.20.592,group3.1-3.2-social-tom,2023.2.2,Win32,59.88023952,65c5074098b851296ff0b7ed,65c5418b69951e672dd1970a,,,,,,,,,,,,,,,,,,,,,,,,,,,,,934.1621,2,audio/Narrative6Situation2.wav,937.1771,,937.1772,965.6774,"[[62.9,916],[60.5,1000],[53.6,1083],[50.7,1166],[50.6,1250],[50.6,1333],[50.6,1416],[50.6,1500],[50.6,1583],[50.6,1666],[50.6,1749],[50.6,1833],[50.6,1916],[50.6,1999],[50.6,2083],[50.6,2166],[50.6,2249],[50.6,2333],[50.6,2417],[50.6,2500],[50.6,2583],[50.6,2666],[50.6,2749],[50.6,2833],[50.6,2916],[50.6,2999],[50.6,3083],[50.6,3166],[50.6,3250],[50.6,3333],[50.6,3416],[50.6,3500],[50.6,3583],[50.6,3666],[50.6,3750],[50.6,3833],[50.6,3916],[50.6,3999],[50.6,4083],[50.6,4166],[50.6,4250],[50.6,4333],[50.6,4416],[50.6,4499],[50.6,4583],[50.6,4666],[50.6,4750],[50.6,4833],[50.6,4916],[50.6,5000],[50.6,5083],[50.6,5166],[50.6,5250],[50.6,5333],[50.6,5416],[50.6,5500],[50.6,5583],[50.6,5666],[50.6,5750],[50.6,5833],[50.6,5916],[50.6,5999],[50.6,6083],[56.1,6167],[62.4,6249],[62.4,6333],[62.4,6416],[62.4,6500],[62.4,6583],[62.4,6666],[62.4,6750],[62.4,6833],[62.4,6916],[62.4,6999],[62.4,7083],[62.4,7166],[62.4,7249],[62.4,7333],[62.4,7416],[62.4,7499],[62.4,7583],[62.4,7666],[62.4,7750],[62.4,7833],[62.4,7916],[62.4,7999],[62.4,8083],[62.4,8166],[62.4,8250],[62.4,8333],[62.4,8416],[62.4,8500],[62.4,8583],[62.4,8666],[62.4,8750],[62.4,8833],[62.4,8916],[62.4,9000],[62.4,9083],[62.4,9166],[62.4,9249],[62.4,9333],[62.4,9416],[62.4,9500],[62.4,9583],[62.4,9666],[62.4,9749],[62.4,9833],[62.4,9916],[62.4,9999],[62.4,10083],[62.4,10166],[62.4,10250],[62.4,10333],[62.4,10416],[62.4,10500],[62.4,10583],[62.4,10666],[62.4,10750],[62.4,10833],[62.4,10916],[62.4,10999],[62.4,11083],[62.4,11166],[62.4,11249],[62.4,11333],[62.4,11416],[62.4,11500],[62.4,11583],[62.4,11666],[62.4,11750],[62.4,11833],[62.4,11916],[68.5,12000],[86.9,12083],[89.1,12166],[89.1,12249],[89.1,12333],[89.1,12416],[89.1,12499],[89.1,12583],[89.1,12666],[89.1,12750],[89.1,12833],[89.1,12916],[89.1,12999],[89.1,13083],[89.1,13166],[89.1,13249],[89.1,13333],[89.1,13416],[89.1,13500],[89.1,13583],[89.1,13666],[89.1,13750],[89.1,13833],[89.1,13916],[89.1,13999],[89.1,14083],[89.1,14166],[89.1,14249],[89.1,14333],[89.1,14416],[89.1,14499],[89.1,14583],[89.1,14666],[89.1,14749],[89.1,14833],[88.9,14916],[88.8,15000],[88.8,15083],[88.8,15166],[88.6,15249],[88.4,15333],[88.4,15416],[88.4,15500],[88.4,15583],[88.4,15666],[88.4,15750],[88.4,15833],[88.4,15917],[88.4,15999],[88.4,16083],[88.4,16166],[88.4,16250],[88.4,16333],[88.4,16416],[88.4,16499],[88.4,16583],[88.4,16666],[88.4,16750],[88.4,16833],[88.4,16916],[88.4,16999],[88.4,17083],[88.4,17166],[88.4,17250],[88.4,17333],[88.3,17416],[88.3,17499],[88.3,17583],[87.7,17666],[87.6,17750],[87.5,17833],[87.5,17916],[87.5,18000],[87.5,18083],[87.5,18166],[87.5,18250],[87.5,18333],[87.5,18416],[87.5,18499],[87.5,18583],[87.5,18666],[87.5,18749],[87.5,18833],[87.5,18916],[87.5,19000],[87.5,19083],[87.5,19166],[87.5,19250],[87.4,19333],[87,19416],[85.9,19500],[85.8,19583],[85.8,19666],[85.3,19750],[84.6,19833],[84.6,19916],[84.6,20000],[84.6,20083],[84.6,20166],[84.6,20249],[84.6,20333],[84.6,20416],[84.6,20500],[84.6,20583],[84.6,20666],[84.6,20750],[84.6,20833],[84.6,20916],[84.6,20999],[84.6,21083],[84.6,21166],[84.6,21249],[84.6,21333],[84.6,21416],[84.6,21499],[84.6,21583],[84.6,21666],[84.6,21749],[84.6,21833],[84.6,21916],[84.6,21999],[84.6,22083],[84.6,22166],[84.6,22249],[84.6,22333],[84.6,22416],[84.6,22499],[84.6,22583],[84.5,22666],[84.5,22750],[84.5,22833],[84.5,22916],[84.5,22999],[84.5,23083],[84.5,23166],[84.5,23250],[84.5,23333],[84.5,23416],[84.5,23499],[84.5,23583],[84.5,23666],[84.5,23750],[84.5,23833],[84.5,23916],[84.5,23999],[84.5,24083],[84.6,24166],[84.6,24250],[84.6,24333],[84.6,24416],[84.6,24499],[84.6,24583],[84.6,24666],[84.6,24750],[84.6,24833],[84.6,24916],[84.6,24999],[84.5,25083],[84.5,25166],[84.4,25249],[79.4,25333],[73.1,25416],[73,25500],[47.4,25583],[39.3,25666],[39.3,25749],[39.3,25833],[45.9,25916],[64.5,25999],[64.5,26083],[65.6,26167],[80.5,26250],[81.1,26333],[81.1,26416],[81.1,26499],[81.1,26583],[81.1,26666],[81.1,26749],[81.1,26833],[81.1,26916],[81.1,26999],[81.1,27083],[81.1,27166],[81.1,27249],[81.1,27333],[81.1,27416],[81.1,27499],[81.1,27583],[81.1,27666],[81.1,27749],[81.1,27833],[81.1,27916],[81.1,28000],[81.1,28083],[81.1,28166],[81.1,28250],[81.1,28333],[81.1,28416],[81.1,28499]]",1,0,965.6774,967.6936,99.79166667,1.1306,"[{""rating"":99.79166666666667,""responseTime"":1.130599999904689}]",space,1.4898,,967.6936,Partially,50,967.6949,,,[],,,,0,11,11,11,1,audio/Narrative8Situation2.wav,audio/Narrative7Situation2.wav,audio/Narrative6Situation2.wav,audio/Narrative5Situation2.wav,3,3,3,3,,,,,,,,,,,,,,,,,,,,,,,,,,,,,,,,,,,,,
,,,,,,65983c420d89145cbdb05468,2024-02-08_13h04.20.592,group3.1-3.2-social-tom,2023.2.2,Win32,59.88023952,65c5074098b851296ff0b7ed,65c5418b69951e672dd1970a,,,,,,,,,,,,,,,,,,,,,,,,,,,,,967.695,2,audio/Narrative6Situation3.wav,972.7104,,972.7104,985.3105,"[[999,6],[999,83],[999,166],[999,249],[999,333],[999,416],[999,499],[999,583],[999,667],[999,750],[999,833],[69.7,916],[69.7,999],[69.7,1083],[69.7,1166],[69.7,1250],[62.8,1333],[55.7,1416],[55.7,1499],[55.7,1583],[55.7,1667],[52.3,1750],[41.7,1833],[41.4,1916],[20.8,2000],[7.3,2082],[7.3,2166],[7.3,2249],[7.3,2333],[7.3,2416],[7.3,2500],[7.3,2583],[7.3,2666],[7.3,2749],[7.3,2833],[7.3,2916],[7.3,3000],[7.3,3083],[7.3,3166],[7.3,3249],[7.3,3333],[7.3,3416],[7.3,3499],[7.3,3583],[7.3,3666],[7.3,3749],[7.3,3833],[7.3,3916],[7.3,3999],[7.3,4083],[7.3,4166],[7.3,4249],[7.3,4333],[7.3,4416],[7.3,4499],[7.3,4583],[7.3,4666],[7.3,4749],[7.3,4832],[7.3,4916],[7.3,4999],[7.3,5083],[7.3,5166],[7.3,5249],[7.3,5333],[7.3,5416],[7.3,5499],[7.3,5583],[7.3,5666],[7.3,5749],[7.3,5833],[7.3,5916],[7.3,5999],[7.3,6083],[7.3,6166],[7.3,6250],[7.3,6333],[9.9,6416],[16.8,6499],[17.9,6583],[17.9,6666],[17.9,6749],[17.9,6833],[17.9,6916],[17.9,6999],[17.9,7083],[17.9,7166],[17.9,7249],[17.9,7332],[17.9,7416],[17.9,7499],[17.9,7582],[17.9,7666],[17.9,7749],[17.9,7833],[17.9,7916],[17.9,7999],[17.9,8083],[17.9,8166],[17.9,8250],[17.9,8333],[17.9,8416],[17.9,8500],[17.9,8583],[17.9,8666],[17.9,8749],[17.9,8833],[17.9,8916],[17.9,8999],[17.9,9083],[17.9,9166],[17.9,9249],[17.9,9332],[17.9,9416],[17.9,9500],[17.9,9583],[17.9,9666],[17.9,9749],[17.9,9833],[17.9,9916],[17.9,9999],[17.9,10083],[17.9,10166],[17.9,10249],[17.9,10333],[17.9,10416],[18,10500],[18,10583],[27.5,10667],[46.3,10750],[46.5,10833],[46.5,10916],[46.5,11000],[46.5,11083],[46.5,11167],[46.5,11250],[46.5,11333],[46.5,11416],[46.5,11500],[46.5,11583],[46.5,11666],[46.5,11749],[46.5,11832],[46.5,11916],[78.4,12000],[90.5,12083],[90.5,12166],[90.5,12249],[90.5,12333],[81,12417],[79.6,12500],[79.6,12583]]",1,0,985.3106,988.2104,86.875,1.8815,"[{""rating"":86.875,""responseTime"":1.88149999999996}]",space,2.3679,,988.2105,Not at all,0,988.212,,,[],,,,0,12,12,12,1,audio/Narrative8Situation3.wav,audio/Narrative7Situation3.wav,audio/Narrative6Situation3.wav,audio/Narrative5Situation3.wav,4,8,5,3,,,,,,,,,,,,,,,,,,,,,,,,,,,,,,,,,,,,,
,,,,,,65983c420d89145cbdb05468,2024-02-08_13h04.20.592,group3.1-3.2-social-tom,2023.2.2,Win32,59.88023952,65c5074098b851296ff0b7ed,65c5418b69951e672dd1970a,,,,,,,,,,,,,,,,,,,,,,,,,,,,,988.2121,2,audio/Narrative6Situation4.wav,990.2271,,990.2271,1002.8438,"[[999,0],[999,82],[999,166],[999,249],[999,333],[999,416],[999,499],[999,583],[999,666],[999,749],[999,833],[999,916],[999,999],[999,1083],[999,1166],[999,1249],[999,1333],[999,1416],[999,1499],[999,1582],[999,1666],[999,1749],[999,1832],[999,1916],[999,1999],[999,2084],[999,2166],[999,2249],[999,2333],[999,2416],[999,2500],[999,2583],[999,2666],[999,2749],[999,2833],[999,2916],[999,2999],[999,3084],[999,3166],[999,3249],[999,3333],[999,3416],[999,3499],[999,3583],[999,3666],[999,3749],[999,3833],[999,3916],[999,4000],[999,4083],[999,4166],[999,4249],[999,4332],[999,4416],[999,4500],[999,4583],[999,4666],[999,4749],[999,4833],[999,4916],[999,4999],[999,5083],[999,5166],[999,5250],[999,5333],[999,5416],[999,5499],[49.6,5583],[46.6,5833],[46.7,5916],[46.5,6000],[40.1,6083],[40,6166],[40,6249],[40,6333],[39.8,6416],[31.3,6500],[28.4,6582],[28.4,6666],[28.4,6749],[28.4,6832],[28.4,6916],[28.4,6999],[28.4,7083],[28.4,7166],[28.4,7249],[28.4,7332],[28.4,7416],[28.4,7499],[28.4,7582],[28.4,7666],[28.4,7749],[28.4,7832],[28.4,7916],[28.4,7999],[28.4,8083],[28.4,8166],[28.4,8249],[28.4,8332],[28.4,8416],[28.4,8499],[28.4,8582],[28.4,8666],[28.4,8749],[28.4,8832],[28.4,8916],[28.4,8999],[28.4,9082],[28.4,9166],[28.4,9249],[28.4,9332],[28.4,9416],[28.4,9499],[28.4,9582],[28.4,9666],[28.4,9749],[28.4,9832],[28.4,9916],[28.4,9999],[28.4,10083],[28.4,10166],[28.4,10249],[28.4,10332],[28.4,10416],[28.4,10499],[28.4,10583],[28.4,10666],[28.4,10749],[28.4,10833],[28.4,10916],[28.4,10999],[28.4,11082],[28.4,11166],[28.4,11249],[28.4,11332],[28.4,11416],[28.4,11499],[28.4,11583],[28.4,11666],[28.4,11749],[28.4,11833],[28.4,11916],[28.4,11999],[28.4,12082],[28.4,12166],[28.4,12249],[28.4,12332],[28.4,12416],[28.4,12499],[28.4,12582]]",1,0,1002.8438,1006.96,51.25,3.6814,"[{""rating"":51.24999999999999,""responseTime"":3.681400000095323}]",space,3.5873,,1006.96,Not at all,0,1006.9609,,,[],,,,0,13,13,13,1,audio/Narrative8Situation4.wav,audio/Narrative7Situation4.wav,audio/Narrative6Situation4.wav,audio/Narrative5Situation4.wav,3,3,2,1,,,,,,,,,,,,,,,,,,,,,,,,,,,,,,,,,,,,,
,,,,,,65983c420d89145cbdb05468,2024-02-08_13h04.20.592,group3.1-3.2-social-tom,2023.2.2,Win32,59.88023952,65c5074098b851296ff0b7ed,65c5418b69951e672dd1970a,,,,,,,,,,,,,,,,,,,,,,,,,,,,,1006.961,2,audio/Narrative6Situation5.wav,1008.9767,,1008.9769,1016.9434,"[[999,0],[999,82],[999,166],[999,249],[999,333],[999,416],[999,499],[999,583],[999,666],[999,750],[999,833],[999,916],[999,999],[999,1082],[999,1166],[999,1249],[999,1332],[999,1416],[999,1499],[999,1583],[999,1666],[999,1749],[999,1832],[999,1916],[999,1999],[999,2083],[999,2166],[999,2249],[999,2333],[999,2416],[999,2499],[999,2582],[999,2666],[999,2749],[999,2833],[999,2916],[999,2999],[999,3083],[999,3166],[999,3249],[999,3332],[999,3416],[999,3499],[999,3583],[999,3666],[999,3749],[999,3832],[999,3916],[999,3999],[999,4082],[999,4166],[999,4249],[999,4332],[999,4416],[999,4499],[999,4583],[999,4666],[999,4749],[999,4833],[999,4916],[54,4999],[51.8,5082],[51.5,5166],[51.5,5249],[78.4,5333],[92.6,5416],[92.6,5499],[91.4,5583],[90.9,5666],[90.9,5749],[90.9,5832],[90.9,5916],[90.9,5999],[90.9,6083],[90.9,6166],[90.9,6249],[90.9,6332],[90.9,6416],[90.9,6499],[90.9,6582],[90.9,6666],[90.9,6749],[90.9,6833],[90.9,6916],[90.9,6999],[90.9,7083],[90.9,7166],[90.9,7249],[90.9,7332],[90.9,7416],[90.9,7499],[90.9,7583],[90.9,7666],[90.9,7749],[90.9,7832],[90.9,7916]]",1,0,1016.9435,1020.9601,90.10416667,3.6246,"[{""rating"":90.10416666666667,""responseTime"":3.6245999999046035}]",space,3.4713,,1020.9601,Definitely yes,100,1020.9614,,,[],,,,0,14,14,14,1,audio/Narrative8Situation5.wav,audio/Narrative7Situation5.wav,audio/Narrative6Situation5.wav,audio/Narrative5Situation5.wav,2,5,2,5,,,,,,,,,,,,,,,,,,,,,,,,,,,,,,,,,,,,,
,,,,,,65983c420d89145cbdb05468,2024-02-08_13h04.20.592,group3.1-3.2-social-tom,2023.2.2,Win32,59.88023952,65c5074098b851296ff0b7ed,65c5418b69951e672dd1970a,,,,,,,,,,,,,,,,,,,,,,,,,,,,,1020.9616,2,audio/Narrative6Situation6.wav,1022.9767,,1022.9767,1034.06,"[[84,1166],[57.1,2083],[56.9,2166],[56.9,2249],[56.9,2333],[56.9,2416],[54.9,2499],[54.6,2582],[54.6,2666],[54.6,2750],[54.6,2833],[54.6,2916],[54.6,2999],[54.6,3083],[54.6,3166],[54.6,3249],[54.6,3333],[54.6,3416],[54.6,3499],[54.5,3583],[54.5,3666],[54.5,3749],[58.9,3833],[69.1,3916],[69.7,3999],[69.8,4083],[77.8,4166],[80.3,4249],[80.3,4333],[80.3,4416],[80.3,4499],[80.3,4583],[80.3,4666],[80.3,4749],[80.3,4833],[80.3,4916],[80.3,4999],[80.3,5083],[80.3,5166],[80.3,5249],[80.3,5333],[80.3,5416],[80.3,5499],[80.3,5582],[80.3,5666],[80.3,5749],[80.3,5832],[80.3,5916],[80.3,5999],[80.3,6083],[80.3,6166],[80.3,6250],[80.3,6333],[80.3,6416],[80.3,6500],[80.7,6583],[83,6666],[83,6749],[83,6832],[84.4,6916],[91.8,6999],[91.8,7083],[91.8,7166],[91.8,7249],[91.8,7333],[91.8,7416],[91.9,7499],[92.2,7583],[93,7666],[93.8,7750],[96,7833],[96,7916],[96,7999],[96,8083],[96,8166],[96,8250],[96,8333],[96,8416],[96,8499],[96,8583],[96,8666],[96,8749],[96,8833],[96,8916],[96,8999],[96,9083],[96,9166],[96,9249],[96,9333],[96,9416],[96,9500],[96,9583],[96,9667],[96,9750],[96,9833],[96,9916],[96,10000],[96,10083],[96,10166],[96,10250],[96,10333],[96,10417],[96,10499],[96,10583],[96,10666],[96,10750],[96,10833],[96,10916],[96,11000],[96,11083]]",1,0,1034.0601,1035.9431,98.95833333,1.1903,"[{""rating"":98.95833333333333,""responseTime"":1.1902999999522308}]",space,1.3335,,1035.9432,Not at all,0,1035.9444,,,[],,,,0,15,15,15,1,audio/Narrative8Situation6.wav,audio/Narrative7Situation6.wav,audio/Narrative6Situation6.wav,audio/Narrative5Situation6.wav,2,3,2,3,,,,,,,,,,,,,,,,,,,,,,,,,,,,,,,,,,,,,
