exp_question,consent.started,consent.stopped,consentResponse.keys,consentResponse.rt,consentResponse.duration,participantID,date,expName,psychopyVersion,OS,frameRate,STUDY_ID,SESSION_ID,opening1.started,opening1.stopped,keyEndingOpening1.keys,keyEndingOpening1.rt,keyEndingOpening1.duration,volumeAdjust.started,volumeAdjust.stopped,endingAdjust.keys,endingAdjust.rt,endingAdjust.duration,opening2.started,opening2.stopped,keyEndingOpening.keys,keyEndingOpening.rt,keyEndingOpening.duration,mouse.x,mouse.y,mouse.leftButton,mouse.midButton,mouse.rightButton,mouse.time,instructionLoop.thisRepN,instructionLoop.thisTrialN,instructionLoop.thisN,instructionLoop.thisIndex,instructionLoop.ran,readyForAudio.started,readyForAudio.stopped,fixation.started,run,audio_played,fixation.stopped,endPractice.keys,audioPre.started,audioPre.stopped,continuousResponses_audio,continuousSlider.response,continuousSlider.rt,intRating.started,intRating.stopped,intQuestionSlider.response,intQuestionSlider.rt,intQuestionSlider.history,confirmResponse.keys,confirmResponse.rt,confirmResponse.duration,catchQuestion.started,catch_label,catch_value,catchQuestion.stopped,catchQuestionSlider.response,catchQuestionSlider.rt,catchQuestionSlider.history,confirmResponse_2.keys,audioRunLoop.thisRepN,audioRunLoop.thisTrialN,audioRunLoop.thisN,audioRunLoop.thisIndex,audioRunLoop.ran,conditions1_1,conditions2_1,conditions1_2,conditions2_2,dur1_1,dur2_1,dur1_2,dur2_2,endPractice.rt,endPractice.duration,confirmResponse_2.rt,confirmResponse_2.duration,runIntervalBreak.started,runIntervalBreak.stopped,endingBreakKey.keys,endingBreakKey.rt,endingBreakKey.duration,connection.started,connection.stopped,connectionEnding.keys,connectionEnding.rt,connectionEnding.duration,readyForText.started,readyForText.stopped,textPre.started,run_dup,textPre.stopped,continuousResponses_text,textRunLoop.thisRepN,textRunLoop.thisTrialN,textRunLoop.thisN,textRunLoop.thisIndex,textRunLoop.ran,text1_1,text1_2,text2_1,text2_2,runBreakText.started,runBreakText.stopped,endingBreakKey_2.keys,endingBreakKey_2.rt,endingBreakKey_2.duration,ending.started,ending.stopped,endingEnding.keys,endingEnding.rt,endingEnding.duration
social,0,12.215,y,11.894,,65a3f00d93a00fa46c03f402,2024-02-08_12h33.51.983,group3.1-3.2-social-tom,2023.2.2,MacIntel,62.5,65c5074098b851296ff0b7ed,65c5106734a2d1565b94e2d4,,,,,,,,,,,,,,,,,,,,,,,,,,,,,,,,,,,,,,,,,,,,,,,,,,,,,,,,,,,,,,,,,,,,,,,,,,,,,,,,,,,,,,,,,,,,,,,,,,,,,,,,,,
,,,,,,65a3f00d93a00fa46c03f402,2024-02-08_12h33.51.983,group3.1-3.2-social-tom,2023.2.2,MacIntel,62.5,65c5074098b851296ff0b7ed,65c5106734a2d1565b94e2d4,12.216,16.29,space,4.038,,,,,,,,,,,,,,,,,,,,,,,,,,,,,,,,,,,,,,,,,,,,,,,,,,,,,,,,,,,,,,,,,,,,,,,,,,,,,,,,,,,,,,,,,,,,,,,,,,,,,,
,,,,,,65a3f00d93a00fa46c03f402,2024-02-08_12h33.51.983,group3.1-3.2-social-tom,2023.2.2,MacIntel,62.5,65c5074098b851296ff0b7ed,65c5106734a2d1565b94e2d4,,,,,,16.29,21.255,space,4.645,,,,,,,,,,,,,,,,,,,,,,,,,,,,,,,,,,,,,,,,,,,,,,,,,,,,,,,,,,,,,,,,,,,,,,,,,,,,,,,,,,,,,,,,,,,,,,,,,
,,,,,,65a3f00d93a00fa46c03f402,2024-02-08_12h33.51.983,group3.1-3.2-social-tom,2023.2.2,MacIntel,62.5,65c5074098b851296ff0b7ed,65c5106734a2d1565b94e2d4,,,,,,,,,,,21.263,26.478,space,5.181,,[],[],[],[],[],[],0,0,0,0,1,,,,,,,,,,,,,,,,,,,,,,,,,,,,,,,,,,,,,,,,,,,,,,,,,,,,,,,,,,,,,,,,,,,,,,,,,,,,,,,,
,,,,,,65a3f00d93a00fa46c03f402,2024-02-08_12h33.51.983,group3.1-3.2-social-tom,2023.2.2,MacIntel,62.5,65c5074098b851296ff0b7ed,65c5106734a2d1565b94e2d4,,,,,,,,,,,26.478,58.716,space,32.147,,[],[],[],[],[],[],1,0,1,0,1,,,,,,,,,,,,,,,,,,,,,,,,,,,,,,,,,,,,,,,,,,,,,,,,,,,,,,,,,,,,,,,,,,,,,,,,,,,,,,,,
,,,,,,65a3f00d93a00fa46c03f402,2024-02-08_12h33.51.983,group3.1-3.2-social-tom,2023.2.2,MacIntel,62.5,65c5074098b851296ff0b7ed,65c5106734a2d1565b94e2d4,,,,,,,,,,,58.717,67.523,space,8.746,,[],[],[],[],[],[],2,0,2,0,1,,,,,,,,,,,,,,,,,,,,,,,,,,,,,,,,,,,,,,,,,,,,,,,,,,,,,,,,,,,,,,,,,,,,,,,,,,,,,,,,
,,,,,,65a3f00d93a00fa46c03f402,2024-02-08_12h33.51.983,group3.1-3.2-social-tom,2023.2.2,MacIntel,62.5,65c5074098b851296ff0b7ed,65c5106734a2d1565b94e2d4,,,,,,,,,,,67.524,79.878,space,12.306,,[],[],[],[],[],[],3,0,3,0,1,,,,,,,,,,,,,,,,,,,,,,,,,,,,,,,,,,,,,,,,,,,,,,,,,,,,,,,,,,,,,,,,,,,,,,,,,,,,,,,,
,,,,,,65a3f00d93a00fa46c03f402,2024-02-08_12h33.51.983,group3.1-3.2-social-tom,2023.2.2,MacIntel,62.5,65c5074098b851296ff0b7ed,65c5106734a2d1565b94e2d4,,,,,,,,,,,79.879,83.324,space,3.407,,[],[],[],[],[],[],4,0,4,0,1,,,,,,,,,,,,,,,,,,,,,,,,,,,,,,,,,,,,,,,,,,,,,,,,,,,,,,,,,,,,,,,,,,,,,,,,,,,,,,,,
,,,,,,65a3f00d93a00fa46c03f402,2024-02-08_12h33.51.983,group3.1-3.2-social-tom,2023.2.2,MacIntel,62.5,65c5074098b851296ff0b7ed,65c5106734a2d1565b94e2d4,,,,,,,,,,,,,,,,,,,,,,,,,,,83.331,85.903,85.927,1,audio/Narrative13Situation2.wav,87.939,,87.94,117.691,"[[999,1],[999,94],[999,174],[999,245],[999,310],[999,382],[999,450],[999,527],[999,611],[999,694],[999,775],[999,850],[999,929],[999,1004],[999,1081],[999,1159],[999,1230],[999,1304],[999,1378],[999,1453],[999,1527],[999,1609],[999,1691],[999,1759],[999,1835],[999,1902],[999,1978],[999,2054],[999,2132],[999,2220],[999,2304],[999,2376],[999,2453],[999,2528],[999,2602],[999,2674],[999,2748],[999,2829],[999,2905],[999,2981],[999,3057],[999,3129],[999,3206],[999,3287],[999,3362],[999,3438],[999,3513],[999,3587],[999,3667],[999,3751],[999,3837],[999,3911],[999,3986],[999,4061],[999,4134],[999,4212],[999,4284],[999,4370],[999,4453],[999,4528],[999,4605],[999,4674],[999,4754],[999,4828],[999,4911],[999,4992],[999,5072],[999,5147],[999,5230],[999,5316],[999,5391],[999,5474],[999,5560],[51.1,5644],[51.2,5725],[51.2,5802],[51.1,5888],[50.9,5966],[50.4,6045],[50.4,6123],[50.4,6192],[50.4,6278],[50.4,6352],[50.4,6435],[50.4,6528],[50.4,6620],[50.4,6707],[50.4,6783],[50.4,6859],[50.4,6941],[50.4,7024],[50.4,7099],[50.4,7171],[50.4,7248],[50.4,7322],[50.4,7391],[50.4,7468],[50.4,7545],[50.4,7616],[50.4,7692],[50.4,7769],[50.4,7844],[50.4,7924],[50.4,8000],[50.4,8069],[50.4,8143],[50.5,8220],[50.7,8290],[50.7,8376],[50.8,8441],[50.8,8513],[50.9,8598],[51.1,8673],[51.2,8753],[51.3,8831],[51.5,8911],[51.5,8991],[51.6,9069],[51.6,9149],[51.7,9222],[51.9,9301],[51.9,9373],[51.9,9444],[52,9519],[52.1,9605],[52.2,9679],[52.4,9759],[52.5,9831],[52.6,9906],[52.6,9976],[52.6,10057],[52.6,10132],[52.6,10204],[52.6,10287],[52.6,10361],[52.6,10433],[52.6,10512],[52.6,10585],[52.6,10661],[52.6,10733],[52.6,10804],[52.6,10882],[52.6,10957],[52.6,11033],[52.6,11111],[52.6,11179],[52.6,11259],[52.6,11331],[52.6,11408],[52.6,11486],[52.6,11566],[52.6,11641],[52.6,11712],[52.6,11787],[52.6,11872],[52.6,11959],[52.6,12031],[52.6,12113],[52.6,12192],[52.6,12275],[52.6,12352],[52.6,12432],[52.6,12500],[52.6,12585],[52.6,12662],[52.6,12729],[52.6,12804],[52.6,12876],[52.6,12948],[52.6,13028],[52.6,13108],[52.6,13188],[52.6,13269],[52.6,13345],[52.6,13418],[52.6,13491],[52.6,13563],[52.6,13637],[52.6,13719],[52.6,13795],[52.6,13875],[52.6,13950],[52.6,14033],[52.6,14108],[52.6,14197],[52.6,14275],[52.6,14343],[52.6,14421],[52.6,14494],[52.6,14567],[52.6,14641],[52.6,14718],[52.6,14796],[52.6,14867],[52.6,14948],[52.6,15027],[52.6,15102],[52.6,15180],[52.6,15251],[52.6,15331],[52.6,15408],[52.6,15480],[52.6,15552],[52.6,15634],[52.6,15706],[52.6,15789],[52.6,15864],[52.6,15941],[52.6,16019],[52.6,16098],[52.6,16173],[52.6,16254],[52.6,16331],[52.6,16403],[52.6,16482],[52.6,16552],[52.6,16629],[52.6,16702],[52.6,16778],[52.6,16852],[52.6,16923],[52.6,17007],[52.6,17080],[52.6,17153],[52.6,17233],[52.6,17304],[52.6,17376],[52.6,17456],[52.6,17531],[52.6,17605],[52.6,17686],[52.6,17760],[52.6,17845],[52.6,17920],[52.6,17995],[52.6,18069],[52.6,18146],[52.6,18218],[52.6,18295],[52.6,18385],[52.6,18453],[52.6,18545],[52.6,18614],[52.6,18688],[52.6,18757],[52.6,18837],[52.6,18917],[52.6,18989],[52.6,19061],[52.6,19135],[52.6,19205],[52.6,19278],[52.6,19361],[52.6,19435],[52.6,19515],[52.6,19604],[52.6,19673],[52.6,19757],[52.6,19831],[52.6,19908],[52.6,19983],[52.6,20057],[53.6,20138],[54.4,20215],[54.8,20290],[55.4,20369],[55.8,20448],[55.8,20524],[55.8,20598],[55.8,20674],[55.8,20750],[56,20831],[56.1,20905],[56.1,20974],[56.2,21061],[56.2,21134],[56.2,21209],[56.2,21281],[56.2,21357],[56.2,21441],[56.2,21519],[56.2,21593],[56.2,21667],[56.2,21745],[56.2,21822],[56.2,21899],[56.2,21970],[56.2,22043],[56.2,22116],[56.2,22186],[56.2,22265],[56.2,22346],[56.2,22423],[56.2,22497],[56.2,22578],[56.2,22649],[56.2,22721],[56.2,22793],[56.2,22873],[56.2,22953],[56.2,23024],[56.2,23102],[56.2,23173],[56.2,23248],[56.2,23319],[56.2,23391],[56.2,23464],[56.2,23540],[56.2,23614],[56.2,23689],[56.2,23763],[56.2,23837],[56.2,23918],[56.2,24004],[56.2,24070],[56.2,24141],[56.2,24217],[56.2,24289],[56.2,24363],[56.2,24435],[56.2,24509],[56.2,24586],[56.2,24664],[56.2,24745],[56.2,24830],[56.2,24908],[56.2,24988],[56.2,25063],[56.2,25144],[56.2,25227],[56.2,25298],[56.2,25372],[56.2,25448],[56.2,25522],[56.2,25604],[56.2,25676],[56.2,25748],[56.2,25831],[56.2,25903],[56.2,25982],[56.2,26055],[56.2,26132],[56.2,26212],[56.2,26285],[56.2,26356],[56.2,26430],[56.2,26504],[56.2,26582],[56.2,26662],[56.2,26741],[56.2,26814],[56.2,26892],[56.2,26964],[56.2,27036],[56.2,27106],[56.2,27180],[56.2,27253],[56.2,27333],[56.2,27406],[56.2,27485],[56.2,27580],[56.2,27654],[56.2,27737],[56.2,27819],[56.2,27903],[56.2,27986],[56.2,28069],[56.2,28154],[56.2,28235],[56.2,28309],[56.2,28384],[56.2,28458],[56.2,28534],[56.2,28606],[56.2,28682],[56.2,28760],[56.2,28833],[56.2,28914],[56.2,28997],[56.2,29075],[56.2,29158],[56.2,29230],[56.2,29302],[56.2,29373],[56.2,29447],[56.2,29525],[56.2,29606],[56.2,29668],[56.2,29749]]",1,0,117.692,125.826,54.4973545,5.543,"[{""rating"":49.60317460317461,""responseTime"":4.711999999999989},{""rating"":54.4973544973545,""responseTime"":5.543000000000006}]",space,7.612,,125.827,Definitely yes,100,125.848,,,[],,0,0,0,0,1,audio/Narrative13Situation2.wav,audio/Narrative13Situation2.wav,audio/Narrative13Situation2.wav,audio/Narrative13Situation2.wav,2,2,2,2,,,,,,,,,,,,,,,,,,,,,,,,,,,,,,,,,,,,,,,
,,,,,,65a3f00d93a00fa46c03f402,2024-02-08_12h33.51.983,group3.1-3.2-social-tom,2023.2.2,MacIntel,62.5,65c5074098b851296ff0b7ed,65c5106734a2d1565b94e2d4,,,,,,,,,,,,,,,,,,,,,,,,,,,,,125.848,1,audio/Narrative7Situation1.wav,128.306,space,128.306,184.178,"[[999,2],[999,80],[999,157],[999,234],[999,305],[999,372],[999,447],[999,521],[999,597],[999,677],[999,763],[999,846],[51.3,930],[50.8,1013],[50.7,1093],[50.5,1169],[50.4,1247],[50.3,1330],[50.3,1413],[50.3,1493],[50.3,1570],[50.3,1640],[50.3,1717],[50.3,1799],[50.3,1876],[50.3,1950],[50.3,2022],[50.1,2098],[50,2176],[49.6,2258],[49.2,2334],[48.8,2409],[48.5,2491],[48.4,2566],[48.1,2640],[47.8,2716],[47.5,2790],[47.1,2869],[46.7,2944],[46.2,3026],[45.9,3099],[45.5,3176],[45.1,3269],[45,3343],[44.7,3417],[44.6,3495],[44.4,3574],[44.3,3653],[43.9,3727],[43.5,3805],[42.9,3884],[41.9,3963],[40.7,4043],[39.3,4126],[38.4,4210],[37.7,4288],[37.2,4369],[36.8,4449],[36.4,4526],[36.1,4604],[36,4681],[35.8,4750],[35.7,4822],[35.7,4903],[35.7,4978],[35.7,5049],[35.7,5123],[35.7,5205],[35.7,5275],[35.7,5352],[35.7,5443],[35.7,5522],[35.7,5591],[35.7,5671],[35.7,5758],[35.7,5835],[35.7,5909],[35.7,5984],[35.7,6054],[35.7,6128],[35.7,6212],[35.7,6284],[35.7,6355],[35.7,6429],[35.7,6507],[35.7,6586],[35.7,6659],[35.7,6739],[35.7,6816],[35.7,6889],[35.7,6971],[35.7,7050],[35.7,7127],[35.7,7209],[35.7,7282],[35.7,7363],[35.7,7442],[35.7,7516],[35.7,7599],[35.7,7667],[35.7,7747],[35.7,7820],[35.7,7901],[35.7,7979],[35.7,8055],[35.7,8127],[35.7,8205],[35.7,8274],[35.7,8346],[35.7,8419],[35.7,8506],[35.7,8587],[35.7,8669],[35.7,8753],[35.7,8824],[35.7,8901],[35.7,8982],[35.7,9058],[35.7,9132],[35.7,9212],[35.7,9286],[35.7,9366],[35.7,9449],[35.7,9527],[35.7,9613],[35.7,9687],[35.7,9769],[35.7,9849],[35.7,9926],[35.7,10003],[35.7,10085],[35.7,10173],[35.7,10260],[35.7,10335],[35.7,10409],[35.7,10488],[35.7,10556],[35.7,10634],[35.7,10717],[35.7,10799],[35.7,10882],[35.7,10963],[35.7,11046],[35.7,11131],[35.7,11206],[35.7,11278],[35.7,11354],[35.7,11431],[35.7,11513],[35.7,11586],[35.7,11664],[35.7,11742],[35.7,11820],[35.7,11893],[35.7,11974],[35.7,12051],[35.7,12131],[35.7,12209],[35.7,12286],[35.7,12364],[35.7,12449],[35.7,12528],[35.7,12604],[35.7,12682],[35.7,12763],[35.7,12836],[35.7,12920],[35.7,12997],[35.7,13080],[35.7,13157],[35.7,13240],[35.7,13317],[35.7,13393],[35.7,13468],[35.7,13538],[35.7,13621],[35.7,13693],[35.7,13770],[35.7,13844],[35.7,13919],[35.7,14000],[35.7,14073],[35.7,14145],[35.7,14228],[35.7,14299],[35.7,14372],[35.7,14449],[35.7,14527],[35.7,14616],[35.7,14698],[35.7,14776],[35.7,14854],[35.7,14932],[35.7,15016],[35.7,15093],[35.7,15176],[35.7,15262],[35.7,15344],[35.7,15427],[35.7,15512],[35.7,15594],[35.7,15677],[35.7,15762],[35.7,15844],[35.7,15929],[35.7,16012],[35.7,16094],[35.7,16179],[35.7,16262],[35.7,16344],[35.7,16429],[35.7,16512],[35.7,16595],[36,16679],[37.6,16763],[38.9,16846],[40.2,16932],[41.4,17016],[43,17096],[45,17179],[46.6,17263],[47.6,17349],[48.5,17431],[49.1,17512],[49.6,17591],[49.9,17667],[50.1,17750],[50.5,17827],[50.8,17903],[50.9,17980],[51.2,18055],[51.3,18127],[51.6,18209],[51.7,18281],[51.7,18351],[51.9,18430],[51.9,18509],[51.9,18589],[51.6,18674],[51.6,18752],[51.6,18830],[51.6,18897],[51.6,18974],[51.6,19061],[51.6,19133],[51.6,19200],[52,19277],[53,19359],[53.6,19438],[54.1,19514],[54.4,19589],[54.5,19674],[54.5,19741],[54.5,19819],[54.5,19893],[54.5,19976],[54.5,20058],[54.5,20133],[54.5,20211],[54.5,20282],[54.5,20366],[54.5,20437],[54.5,20510],[54.5,20592],[54.5,20665],[54.5,20736],[54.5,20816],[54.5,20895],[54.5,20971],[54.5,21043],[54.5,21115],[54.5,21192],[54.5,21276],[54.5,21357],[54.5,21429],[54.5,21508],[54.5,21581],[54.5,21663],[54.5,21736],[54.5,21810],[54.5,21895],[54.5,21974],[54.5,22051],[54.5,22128],[54.5,22208],[54.5,22286],[54.5,22365],[54.5,22444],[54.5,22519],[54.5,22595],[54.5,22667],[54.5,22742],[54.5,22812],[54.5,22893],[54.5,22967],[54.5,23044],[54.5,23122],[54.5,23199],[54.5,23276],[54.5,23349],[54.5,23427],[54.5,23500],[54.5,23585],[54.5,23659],[54.5,23741],[54.5,23812],[54.5,23891],[54.5,23965],[54.5,24042],[54.5,24119],[54.5,24194],[54.5,24274],[54.5,24345],[54.5,24417],[54.5,24501],[54.5,24579],[54.5,24657],[54.5,24734],[54.5,24807],[54.5,24881],[54.5,24954],[54.5,25033],[54.5,25107],[54.5,25182],[54.5,25258],[54.5,25334],[54.5,25412],[54.5,25488],[54.5,25561],[54.5,25637],[54.5,25715],[54.5,25787],[54.5,25866],[54.5,25941],[54.5,26022],[54.5,26096],[54.5,26174],[54.5,26251],[54.5,26330],[54.5,26402],[54.5,26476],[54.5,26556],[54.5,26633],[54.5,26712],[54.5,26788],[54.5,26866],[54.5,26945],[54.5,27024],[54.5,27110],[54.5,27192],[54.5,27270],[54.5,27357],[54.5,27429],[54.5,27508],[54.5,27578],[54.5,27665],[54.5,27741],[54.5,27825],[54.5,27900],[54.5,27973],[54.5,28056],[54.5,28129],[54.5,28199],[54.5,28277],[54.5,28355],[54.5,28435],[54.5,28507],[54.5,28590],[54.5,28661],[54.5,28732],[54.5,28807],[54.5,28881],[54.5,28967],[54.5,29038],[54.5,29117],[54.5,29195],[54.5,29276],[54.9,29352],[55.7,29433],[56.5,29518],[57.5,29601],[58.3,29681],[58.9,29759],[59.3,29847],[59.4,29918],[59.7,29998],[60.2,30084],[60.6,30162],[60.7,30234],[60.7,30312],[60.7,30384],[63.4,31199],[63,31283],[63,31357],[62.8,31430],[62.8,31520],[62.8,31603],[62.8,31677],[62.8,31752],[62.8,31827],[62.8,31906],[62.8,31984],[62.8,32056],[62.8,32139],[62.7,32211],[62.7,32287],[62.7,32360],[62.7,32436],[62.7,32510],[62.7,32584],[62.7,32656],[62.7,32741],[62.7,32817],[62.7,32889],[62.7,32966],[62.7,33043],[62.7,33116],[62.7,33193],[62.7,33266],[62.7,33343],[62.7,33418],[62.7,33490],[62.7,33569],[62.7,33649],[62.7,33726],[62.7,33809],[62.7,33884],[62.7,33967],[62.7,34055],[62.7,34126],[62.7,34209],[62.7,34281],[62.7,34361],[62.7,34443],[62.7,34531],[62.7,34604],[62.7,34686],[62.7,34758],[62.7,34835],[62.7,34914],[62.7,34985],[62.7,35068],[62.7,35139],[62.7,35218],[62.7,35294],[62.7,35371],[62.7,35455],[62.7,35537],[62.7,35617],[62.7,35687],[62.7,35758],[62.7,35835],[62.7,35919],[62.7,36001],[62.7,36069],[62.7,36149],[62.7,36227],[62.7,36299],[62.7,36377],[62.7,36450],[62.7,36530],[62.7,36602],[62.7,36680],[62.7,36764],[62.7,36834],[62.7,36906],[62.7,36989],[62.7,37068],[62.7,37150],[62.7,37229],[62.7,37303],[62.7,37371],[62.7,37455],[62.7,37533],[62.7,37609],[62.7,37687],[62.7,37766],[62.7,37840],[62.7,37913],[62.7,38000],[62.7,38084],[62.7,38163],[62.7,38240],[62.7,38321],[62.7,38396],[62.7,38478],[62.7,38554],[62.7,38628],[62.7,38712],[62.7,38781],[62.7,38860],[62.7,38929],[62.7,39015],[62.7,39092],[62.7,39172],[62.7,39252],[62.7,39329],[62.7,39407],[62.7,39496],[62.7,39575],[62.7,39652],[62.7,39724],[62.7,39797],[62.7,39867],[62.7,39938],[62.7,40020],[62.7,40092],[62.7,40166],[62.7,40229],[62.7,40312],[62.7,40388],[62.7,40474],[62.7,40551],[62.7,40634],[62.7,40714],[62.7,40783],[62.7,40869],[62.7,40943],[62.7,41026],[62.7,41108],[62.7,41187],[62.7,41259],[62.7,41339],[62.7,41418],[62.7,41492],[62.7,41569],[62.7,41651],[62.7,41738],[62.7,41819],[62.7,41901],[62.7,41988],[62.7,42056],[62.7,42139],[62.7,42221],[62.7,42293],[62.7,42375],[62.7,42458],[62.7,42541],[62.7,42616],[62.7,42693],[62.7,42768],[62.7,42849],[62.7,42942],[62.7,43009],[62.7,43092],[62.7,43173],[62.7,43256],[62.7,43339],[62.7,43423],[62.7,43506],[62.7,43589],[62.7,43672],[62.7,43756],[62.7,43839],[62.7,43922],[62.7,44009],[62.7,44077],[62.7,44156],[62.7,44233],[62.7,44309],[62.7,44382],[62.7,44458],[62.7,44549],[62.7,44631],[62.7,44709],[62.7,44782],[62.7,44857],[62.7,44937],[62.7,45013],[62.7,45099],[62.7,45176],[62.7,45250],[62.7,45325],[62.7,45406],[62.7,45483],[62.7,45563],[62.7,45639],[62.7,45711],[62.7,45788],[62.7,45877],[62.7,45949],[62.7,46032],[62.7,46114],[62.7,46193],[62.7,46260],[62.7,46337],[62.7,46424],[62.7,46504],[62.7,46578],[62.7,46655],[62.7,46733],[62.7,46810],[62.7,46890],[62.7,46974],[62.7,47055],[62.7,47134],[62.7,47202],[62.7,47276],[62.7,47348],[62.7,47423],[62.7,47502],[62.7,47579],[62.7,47640],[62.7,47728],[62.7,47812],[62.7,47895],[62.7,47967],[62.7,48048],[62.7,48120],[62.7,48193],[62.7,48272],[62.7,48353],[62.7,48429],[62.7,48503],[62.7,48584],[62.7,48657],[62.7,48733],[62.7,48812],[62.7,48890],[62.7,48966],[62.7,49041],[62.7,49115],[62.7,49197],[62.7,49271],[62.7,49351],[62.7,49429],[62.7,49498],[62.7,49574],[62.7,49646],[62.7,49726],[62.7,49804],[62.7,49878],[62.7,49954],[62.7,50026],[62.7,50103],[58.1,50191],[55.3,50274],[54.8,50354],[53.4,50442],[52.5,50521],[52,50598],[51.2,50681],[50.5,50766],[50.3,50842],[50.1,50929],[49.9,51006],[49.7,51080],[49.5,51154],[49.2,51230],[49.2,51312],[49.2,51394],[49.2,51476],[49.2,51559],[49.1,51641],[49.1,51730],[49.1,51812],[49.1,51891],[49.1,51970],[49.1,52043],[49.1,52115],[49.1,52179],[49.1,52257],[49.1,52329],[49.1,52418],[49.1,52503],[49.1,52578],[49.1,52657],[49.1,52733],[49.1,52827],[49.1,52913],[49.1,53003],[49.1,53086],[49.1,53163],[49.1,53233],[49.1,53307],[49.1,53384],[49.1,53462],[49.1,53536],[49.1,53609],[49.1,53681],[49.1,53765],[49.1,53840],[49.1,53913],[49.1,53986],[49.1,54074],[49.1,54155],[49.1,54229],[49.1,54305],[49.1,54390],[49.1,54467],[49.1,54543],[49.1,54623],[49.1,54698],[49.1,54775],[49.1,54863],[49.1,54942],[49.1,55025],[49.1,55098],[49.1,55178],[49.1,55259],[49.1,55339],[49.1,55413],[49.1,55491],[49.1,55559],[49.1,55639],[48.1,55717],[47.8,55779],[47.6,55854]]",1,0,184.179,188.625,47.35449735,3.436,"[{""rating"":47.354497354497354,""responseTime"":3.436000000000007}]",space,3.914,,188.625,Partially,50,188.645,,,[],,0,1,1,1,1,audio/Narrative7Situation1.wav,audio/Narrative8Situation1.wav,audio/Narrative5Situation1.wav,audio/Narrative6Situation1.wav,2,5,5,2,2.435,,,,,,,,,,,,,,,,,,,,,,,,,,,,,,,,,,,,,,
,,,,,,65a3f00d93a00fa46c03f402,2024-02-08_12h33.51.983,group3.1-3.2-social-tom,2023.2.2,MacIntel,62.5,65c5074098b851296ff0b7ed,65c5106734a2d1565b94e2d4,,,,,,,,,,,,,,,,,,,,,,,,,,,,,188.646,1,audio/Narrative7Situation2.wav,191.661,,191.661,199.135,"[[999,1],[999,86],[999,167],[999,235],[999,314],[999,368],[999,449],[999,527],[999,600],[999,676],[999,754],[999,831],[999,913],[999,996],[999,1079],[999,1155],[999,1237],[999,1320],[999,1405],[51.6,1486],[51.6,1561],[51.3,1640],[51.1,1728],[51.1,1808],[51.1,1886],[50.9,1957],[50.9,2036],[50.9,2116],[50.9,2205],[50.9,2278],[50.9,2356],[52.4,2437],[61.9,2519],[67.1,2602],[72.9,2685],[74.9,2769],[74.9,2850],[74.9,2925],[74.9,3000],[74.9,3080],[75.5,3154],[76.1,3236],[76.6,3324],[76.6,3397],[76.6,3481],[76.6,3558],[76.6,3631],[76.6,3707],[76.6,3786],[76.6,3865],[76.6,3939],[76.6,4021],[76.6,4106],[76.6,4181],[76.6,4253],[76.6,4326],[76.6,4403],[76.6,4483],[76.6,4554],[76.6,4642],[76.6,4715],[76.6,4793],[76.6,4870],[76.6,4941],[76.6,5014],[76.6,5099],[76.6,5175],[76.6,5247],[76.6,5323],[76.6,5407],[76.6,5488],[76.6,5563],[76.6,5635],[76.6,5707],[76.6,5784],[76.6,5856],[76.6,5932],[76.6,6007],[76.6,6088],[76.6,6172],[76.6,6256],[76.6,6338],[76.6,6422],[76.6,6506],[76.6,6588],[76.6,6673],[76.6,6756],[76.6,6838],[76.6,6923],[76.6,7006],[76.6,7088],[76.6,7173],[76.6,7255],[76.6,7338],[76.6,7407]]",1,0,199.136,203.769,77.51322751,3.612,"[{""rating"":77.5132275132275,""responseTime"":3.6119999999999948}]",space,4.106,,203.769,Partially,50,203.786,,,[],,0,2,2,2,1,audio/Narrative7Situation2.wav,audio/Narrative8Situation2.wav,audio/Narrative5Situation2.wav,audio/Narrative6Situation2.wav,3,3,3,3,,,,,,,,,,,,,,,,,,,,,,,,,,,,,,,,,,,,,,,
,,,,,,65a3f00d93a00fa46c03f402,2024-02-08_12h33.51.983,group3.1-3.2-social-tom,2023.2.2,MacIntel,62.5,65c5074098b851296ff0b7ed,65c5106734a2d1565b94e2d4,,,,,,,,,,,,,,,,,,,,,,,,,,,,,203.786,1,audio/Narrative7Situation3.wav,211.786,,211.786,221.041,"[[999,1],[999,84],[999,167],[999,246],[999,316],[999,395],[999,474],[999,545],[999,627],[999,703],[999,786],[999,860],[999,936],[999,1013],[999,1092],[999,1172],[999,1250],[999,1332],[999,1412],[999,1484],[999,1556],[999,1637],[999,1709],[999,1788],[999,1862],[999,1943],[999,2024],[999,2099],[999,2175],[999,2257],[999,2340],[999,2416],[999,2484],[999,2564],[999,2638],[999,2712],[999,2786],[999,2858],[999,2931],[999,3007],[999,3080],[999,3151],[999,3236],[999,3314],[999,3390],[999,3462],[999,3536],[999,3612],[999,3686],[999,3774],[999,3864],[999,3951],[999,4025],[999,4098],[999,4178],[999,4261],[999,4344],[999,4418],[999,4499],[999,4573],[999,4647],[999,4725],[999,4814],[999,4893],[999,4975],[999,5051],[999,5122],[999,5200],[999,5270],[999,5349],[999,5433],[999,5516],[999,5600],[999,5683],[53.2,5766],[52,5850],[51.7,5931],[51.3,6008],[49.9,6087],[48.3,6170],[47.4,6254],[46.3,6332],[45.6,6413],[45.1,6504],[45,6591],[45,6668],[45,6745],[45,6826],[45,6897],[45,6971],[45,7049],[45,7123],[45,7194],[45,7274],[45,7350],[45,7434],[45,7513],[44.4,7588],[43.4,7669],[43,7748],[42.9,7824],[42.7,7901],[42.6,7978],[42.5,8061],[42.5,8132],[42.3,8206],[41.9,8280],[41.4,8359],[40.9,8443],[40.3,8517],[39.9,8593],[39.7,8676],[39.6,8750],[39.3,8826],[39.2,8907],[38.9,8982],[38.9,9055],[38.8,9132],[38.8,9188]]",1,0,221.041,237.186,45.8994709,15.179,"[{""rating"":52.38095238095239,""responseTime"":14.101999999999975},{""rating"":45.8994708994709,""responseTime"":15.179000000000002}]",space,15.616,,237.187,Definitely yes,100,237.204,,,[],,0,3,3,3,1,audio/Narrative7Situation3.wav,audio/Narrative8Situation3.wav,audio/Narrative5Situation3.wav,audio/Narrative6Situation3.wav,8,4,3,5,,,,,,,,,,,,,,,,,,,,,,,,,,,,,,,,,,,,,,,
,,,,,,65a3f00d93a00fa46c03f402,2024-02-08_12h33.51.983,group3.1-3.2-social-tom,2023.2.2,MacIntel,62.5,65c5074098b851296ff0b7ed,65c5106734a2d1565b94e2d4,,,,,,,,,,,,,,,,,,,,,,,,,,,,,237.204,1,audio/Narrative7Situation4.wav,240.214,,240.214,251.942,"[[999,0],[999,73],[999,151],[999,229],[999,309],[999,379],[999,446],[999,524],[999,593],[999,678],[999,758],[999,832],[999,906],[999,994],[999,1077],[50.3,1161],[50.7,1241],[51.3,1319],[52.9,1403],[53.6,1482],[55.3,1557],[56,1637],[57.1,1719],[60.2,1802],[61.9,1887],[63.9,1969],[65.1,2052],[65.2,2137],[65.3,2216],[68.1,2300],[70.6,2382],[71,2466],[71,2550],[71,2632],[71,2716],[71,2798],[71,2882],[71,2966],[71,3050],[71,3132],[71,3216],[71,3300],[71,3382],[71,3466],[71,3550],[71,3632],[71,3716],[71,3800],[71,3882],[71,3966],[71,4050],[71,4128],[71,4209],[71,4290],[71,4366],[71,4435],[71,4506],[71,4588],[71,4666],[71,4738],[71,4812],[71,4890],[71,4964],[71,5036],[71,5110],[71,5191],[71,5266],[71,5339],[71,5411],[71,5485],[71,5566],[71,5643],[71,5716],[71,5798],[71,5870],[71,5951],[71,6026],[71,6099],[71,6173],[71,6245],[71,6320],[71,6394],[71,6473],[71,6550],[71,6623],[71,6700],[71,6781],[71,6861],[71,6942],[71,7021],[71,7104],[71,7178],[71,7268],[71,7342],[71,7422],[71,7505],[71,7583],[71,7659],[71,7737],[71,7813],[71,7885],[71,7963],[71,8047],[71,8120],[71,8196],[71,8266],[71,8342],[71,8429],[71,8505],[71,8580],[71,8649],[71,8724],[71,8803],[71,8878],[71,8950],[71,9027],[71,9105],[71,9177],[71,9255],[71,9337],[71,9409],[71,9486],[71,9571],[71,9649],[71,9732],[71,9806],[71,9886],[71,9960],[71,10036],[71,10118],[71,10195],[71,10278],[71,10354],[71,10432],[71,10503],[71,10577],[71,10653],[71,10735],[71,10805],[71,10881],[71,10953],[71,11025],[71,11102],[71,11179],[71,11262],[71,11338],[71,11420],[71,11490],[71,11566],[71,11621],[71,11696]]",1,0,251.942,253.98,71.03174603,1.35,"[{""rating"":71.03174603174604,""responseTime"":1.3500000000000227}]",space,1.493,,253.98,Not at all,0,254.001,,,[],,0,4,4,4,1,audio/Narrative7Situation4.wav,audio/Narrative8Situation4.wav,audio/Narrative5Situation4.wav,audio/Narrative6Situation4.wav,3,3,1,2,,,,,,,,,,,,,,,,,,,,,,,,,,,,,,,,,,,,,,,
,,,,,,65a3f00d93a00fa46c03f402,2024-02-08_12h33.51.983,group3.1-3.2-social-tom,2023.2.2,MacIntel,62.5,65c5074098b851296ff0b7ed,65c5106734a2d1565b94e2d4,,,,,,,,,,,,,,,,,,,,,,,,,,,,,254.001,1,audio/Narrative7Situation5.wav,259.001,,259.001,267.477,"[[60.2,81],[52.8,632],[52.1,715],[51.3,799],[51.2,874],[51.1,949],[50.7,1033],[49.5,1112],[47.5,1194],[47.1,1275],[47.1,1341],[47.1,1417],[47.1,1496],[47.1,1567],[47.1,1646],[47.1,1720],[47.1,1802],[47.1,1887],[47.1,1966],[47.1,2050],[47.1,2125],[47.1,2204],[47.1,2283],[47.1,2360],[47.1,2439],[47.1,2516],[47.1,2595],[47.1,2667],[47.1,2740],[47.1,2817],[47.1,2891],[47.1,2968],[47.1,3042],[47.1,3122],[47.1,3204],[47.1,3288],[47.1,3362],[47.1,3434],[47.1,3507],[47.1,3593],[47.1,3670],[47.1,3745],[47.1,3824],[47.1,3899],[47.1,3972],[47.1,4050],[47.1,4129],[47.1,4209],[47.1,4283],[47.1,4358],[47.1,4441],[47.1,4513],[47.1,4593],[47.1,4682],[47.1,4769],[47.1,4843],[47.1,4922],[47.1,5000],[47.1,5072],[47.1,5146],[47.1,5221],[47.1,5304],[47.1,5384],[47.1,5460],[47.1,5545],[47.1,5627],[47.1,5697],[47.1,5773],[47.1,5850],[47.1,5925],[47.1,5996],[47.1,6085],[47.1,6175],[47.1,6259],[47.1,6341],[47.1,6422],[47.1,6504],[47.1,6588],[47.1,6672],[47.1,6756],[47.1,6833],[47.1,6905],[47.1,6976],[47.1,7052],[47.1,7129],[47.1,7204],[47.1,7274],[47.1,7348],[47.1,7420],[47.1,7504],[47.1,7593],[47.1,7675],[44.8,7751],[43.7,7834],[43.7,7915],[43.4,7992],[42.5,8074],[41.5,8162],[41,8244],[40.7,8316],[40.3,8379],[40.2,8460]]",1,0,267.478,269.847,43.51851852,1.829,"[{""rating"":38.35978835978836,""responseTime"":1.0860000000000127},{""rating"":40.87301587301587,""responseTime"":1.5580000000000496},{""rating"":43.51851851851852,""responseTime"":1.8290000000000077}]",space,1.829,,269.847,Not at all,0,285.46,0,13.288,"[{""rating"":0.13227513227513366,""responseTime"":6.600000000000023},{""rating"":0,""responseTime"":12.307000000000016},{""rating"":0,""responseTime"":12.728999999999985},{""rating"":0,""responseTime"":13.288000000000011}]",space,0,5,5,5,1,audio/Narrative7Situation5.wav,audio/Narrative8Situation5.wav,audio/Narrative5Situation5.wav,audio/Narrative6Situation5.wav,5,2,5,2,,,15.079,,,,,,,,,,,,,,,,,,,,,,,,,,,,,,,,,,,,
,,,,,,65a3f00d93a00fa46c03f402,2024-02-08_12h33.51.983,group3.1-3.2-social-tom,2023.2.2,MacIntel,62.5,65c5074098b851296ff0b7ed,65c5106734a2d1565b94e2d4,,,,,,,,,,,,,,,,,,,,,,,,,,,,,285.46,1,audio/Narrative7Situation6.wav,288.465,,288.465,298.439,"[[2,995],[3.6,1076],[7,1158],[13.2,1242],[20.1,1326],[22.1,1410],[22.1,1492],[22.1,1574],[22.1,1651],[24.5,1740],[27.1,1824],[28.6,1907],[29.5,1990],[30.4,2064],[31.7,2144],[32.5,2228],[33.2,2307],[33.7,2386],[35.1,2468],[36.2,2552],[36.6,2629],[37.3,2706],[37.7,2788],[37.7,2867],[37.7,2939],[37.7,3016],[37.7,3098],[37.7,3174],[37.7,3252],[37.7,3331],[37.7,3407],[37.7,3482],[37.7,3554],[37.7,3627],[37.7,3706],[37.7,3785],[37.7,3871],[37.7,3949],[37.7,4028],[37.7,4103],[37.7,4182],[37.7,4258],[37.7,4336],[37.7,4417],[37.7,4492],[37.7,4574],[37.7,4662],[37.7,4742],[37.7,4824],[37.7,4903],[37.7,4975],[37.7,5048],[37.7,5120],[37.7,5206],[37.7,5297],[37.7,5370],[37.7,5442],[37.7,5516],[37.7,5591],[37.7,5668],[37.7,5740],[37.7,5819],[37.7,5894],[37.7,5973],[37.7,6042],[37.7,6119],[37.8,6187],[38.1,6270],[38.5,6348],[39.8,6425],[41.8,6509],[44.2,6591],[47.1,6675],[49.9,6759],[52,6843],[54,6925],[56,7009],[57.9,7093],[59.5,7175],[60.7,7259],[62.2,7347],[63.2,7429],[64.2,7512],[64.4,7591],[64.6,7665],[64.6,7740],[64.6,7812],[64.6,7896],[64.6,7973],[64.6,8050],[64.6,8137],[64.6,8208],[64.6,8285],[64.6,8360],[64.6,8432],[64.6,8509],[64.6,8590],[64.6,8665],[64.6,8740],[64.6,8823],[64.6,8891],[64.6,8968],[64.6,9042],[64.6,9122],[64.6,9196],[64.6,9269],[64.6,9350],[64.6,9423],[64.6,9496],[64.6,9569],[64.6,9641],[64.6,9713],[64.6,9785],[64.6,9863],[64.6,9925]]",1,0,298.44,301.369,49.86772487,1.864,"[{""rating"":49.86772486772487,""responseTime"":1.863999999999976}]",space,2.388,,301.369,Partially,50,301.389,,,[],,0,6,6,6,1,audio/Narrative7Situation6.wav,audio/Narrative8Situation6.wav,audio/Narrative5Situation6.wav,audio/Narrative6Situation6.wav,3,2,3,2,,,,,,,,,,,,,,,,,,,,,,,,,,,,,,,,,,,,,,,
,,,,,,65a3f00d93a00fa46c03f402,2024-02-08_12h33.51.983,group3.1-3.2-social-tom,2023.2.2,MacIntel,62.5,65c5074098b851296ff0b7ed,65c5106734a2d1565b94e2d4,,,,,,,,,,,,,,,,,,,,,,,,,,,,,301.389,1,audio/Narrative7Situation7.wav,306.394,,306.395,323.565,"[[48,1081],[50.1,1804],[50.3,1881],[50.4,1963],[50.4,2050],[50.5,2127],[50.7,2201],[50.8,2278],[51.2,2355],[51.5,2439],[51.7,2519],[52,2600],[52.2,2673],[52.5,2752],[52.8,2831],[52.9,2913],[53,3006],[53,3081],[53,3161],[53.2,3237],[53.3,3319],[53.3,3406],[53.3,3487],[53.4,3564],[53.4,3641],[53.4,3721],[53.4,3800],[53.4,3882],[53.4,3957],[53.4,4038],[53.4,4117],[53.4,4189],[53.6,4266],[53.7,4353],[53.7,4442],[53.8,4519],[54,4608],[54.1,4682],[54.2,4759],[54.4,4838],[54.4,4918],[54.5,4990],[54.5,5067],[54.5,5148],[54.5,5223],[54.5,5295],[54.5,5377],[54.6,5457],[54.6,5540],[54.8,5619],[54.8,5699],[54.8,5771],[54.8,5843],[54.9,5922],[54.9,6004],[54.9,6084],[54.9,6158],[54.9,6238],[54.9,6314],[55,6389],[55,6468],[55,6550],[55,6622],[55,6701],[55.2,6773],[55.2,6848],[55.2,6927],[55.3,7012],[55.3,7098],[55.4,7172],[55.4,7254],[55.6,7328],[55.6,7399],[55.6,7477],[55.6,7555],[55.6,7637],[55.6,7713],[55.6,7786],[55.6,7864],[55.6,7939],[55.7,8011],[57,8088],[57.8,8170],[58.1,8249],[58.2,8326],[58.3,8406],[58.5,8488],[58.7,9146],[58.3,9235],[58.1,9317],[57.9,9393],[57.4,9473],[56.6,9555],[55.7,9631],[55,9713],[54.5,9790],[52.8,9870],[50.8,9956],[49.2,10038],[48.3,10117],[47.8,10197],[47.5,10276],[47.1,10360],[46.7,10441],[45.9,10521],[45.4,10598],[44.8,10673],[44.2,10752],[43.8,10836],[43.4,10925],[42.7,11002],[42.2,11086],[41.8,11167],[41.5,11245],[41.3,11322],[40.9,11415],[40.7,11483],[40.6,11562],[40.5,11641],[40.5,11718],[40.5,11795],[40.3,11874],[40.3,11951],[40.3,12030],[40.3,12102],[40.3,12173],[40.3,12249],[40.3,12326],[40.3,12415],[40.3,12492],[40.3,12564],[40.3,12632],[40.3,12721],[40.3,12793],[40.3,12872],[40.3,12949],[40.3,13028],[40.3,13110],[40.3,13185],[40.3,13259],[40.3,13344],[40.3,13423],[40.3,13507],[40.3,13581],[40.3,13661],[40.3,13749],[40.3,13819],[40.3,13894],[40.3,13983],[40.3,14055],[40.3,14134],[40.3,14218],[40.3,14290],[40.3,14365],[40.3,14439],[40.3,14521],[40.3,14593],[40.3,14668],[40.3,14749],[40.3,14831],[40.3,14905],[40.3,14982],[40.3,15055],[40.3,15131],[40.3,15204],[40.3,15281],[40.3,15355],[40.3,15439],[40.3,15518],[40.3,15598],[40.3,15673],[40.3,15747],[40.3,15826],[40.3,15906],[40.3,15982],[40.3,16060],[40.3,16134],[40.3,16206],[40.3,16288],[40.3,16358],[40.3,16432],[40.3,16512],[40.3,16582],[40.3,16665],[40.3,16742],[40.3,16810],[40.3,16896],[40.3,16971],[40.3,17043],[40.3,17103]]",1,0,323.565,325.394,51.71957672,1.127,"[{""rating"":51.71957671957672,""responseTime"":1.1270000000000095}]",space,1.293,,325.394,Definitely yes,100,325.41,,,[],,0,7,7,7,1,audio/Narrative7Situation7.wav,audio/Narrative8Situation7.wav,audio/Narrative5Situation7.wav,audio/Narrative6Situation7.wav,5,3,4,5,,,,,,,,,,,,,,,,,,,,,,,,,,,,,,,,,,,,,,,
,,,,,,65a3f00d93a00fa46c03f402,2024-02-08_12h33.51.983,group3.1-3.2-social-tom,2023.2.2,MacIntel,62.5,65c5074098b851296ff0b7ed,65c5106734a2d1565b94e2d4,,,,,,,,,,,,,,,,,,,,,,,,,,,,,325.411,1,audio/Narrative7Situation8.wav,327.416,,327.417,337.439,"[[999,1],[999,76],[999,149],[999,227],[999,300],[999,360],[999,439],[999,513],[999,590],[999,665],[999,751],[999,826],[999,898],[999,973],[999,1048],[999,1125],[999,1203],[999,1288],[999,1371],[49.9,1454],[49.3,1535],[49.3,1610],[49.3,1684],[49.3,1758],[49.5,1833],[49.6,1911],[49.9,1996],[50,2072],[50.3,2151],[50.4,2225],[50.9,2312],[51.3,2391],[57.1,2475],[98.1,2968],[95.6,3050],[95.6,3129],[96.4,3213],[97.6,3293],[99.3,3376],[100,3456],[100,3531],[100,3609],[100,3693],[100,3764],[100,3852],[100,3934],[100,4009],[100,4080],[100,4155],[100,4230],[100,4310],[100,4400],[100,4478],[100,4557],[100,4638],[100,4715],[100,4785],[100,4866],[100,4951],[100,5021],[100,5093],[100,5170],[100,5242],[100,5314],[100,5382],[100,5456],[100,5533],[100,5607],[100,5687],[100,5768],[100,5848],[100,5922],[100,5996],[100,6068],[100,6146],[100,6220],[100,6304],[100,6379],[100,6449],[100,6524],[100,6600],[100,6679],[100,6754],[100,6831],[100,6906],[100,6984],[100,7060],[100,7143],[100,7221],[100,7305],[100,7379],[100,7446],[100,7528],[100,7605],[100,7691],[100,7768],[100,7857],[100,7932],[100,8016],[100,8097],[100,8165],[100,8244],[100,8334],[100,8422],[100,8496],[100,8568],[100,8648],[100,8728],[100,8810],[100,8881],[100,8963],[100,9035],[100,9110],[100,9185],[100,9257],[100,9338],[100,9420],[100,9492],[100,9566],[100,9646],[100,9722],[100,9802],[100,9884],[100,9955]]",1,0,337.439,339.687,99.07407407,1.714,"[{""rating"":99.07407407407408,""responseTime"":1.7139999999999986}]",space,1.714,,339.687,Definitely yes,100,339.706,,,[],,0,8,8,8,1,audio/Narrative7Situation8.wav,audio/Narrative8Situation8.wav,audio/Narrative5Situation8.wav,audio/Narrative6Situation8.wav,2,3,3,5,,,,,,,,,,,,,,,,,,,,,,,,,,,,,,,,,,,,,,,
,,,,,,65a3f00d93a00fa46c03f402,2024-02-08_12h33.51.983,group3.1-3.2-social-tom,2023.2.2,MacIntel,62.5,65c5074098b851296ff0b7ed,65c5106734a2d1565b94e2d4,,,,,,,,,,,,,,,,,,,,,,,,,,,,,339.706,1,audio/Narrative7Situation9.wav,341.71,,341.71,350.33,"[[98.4,528],[95.1,608],[91.5,692],[76.7,939],[61.1,1021],[61.1,1103],[61.1,1182],[61.1,1256],[61.1,1334],[61.1,1411],[61.1,1480],[61.1,1554],[61.1,1634],[61.1,1723],[61.1,1814],[61.1,1889],[61.1,1963],[61.1,2049],[61.1,2131],[61.1,2218],[61.1,2293],[61.1,2370],[61.1,2449],[61.1,2519],[61.1,2596],[61.1,2667],[61.1,2742],[61.1,2814],[61.1,2898],[61.1,2980],[61.1,3050],[61.1,3125],[61.1,3206],[61.1,3288],[61.1,3358],[61.1,3432],[61.1,3509],[61.1,3596],[61.1,3675],[61.1,3749],[61.1,3821],[61.1,3901],[61.1,3982],[61.1,4049],[61.1,4127],[61.1,4208],[61.1,4279],[61.1,4360],[61.1,4439],[61.1,4521],[61.1,4603],[61.1,4675],[61.1,4749],[61.1,4822],[61.1,4894],[61.1,4975],[61.1,5052],[61.1,5142],[61.1,5225],[61.1,5300],[61.1,5382],[61.1,5466],[61.1,5538],[61.1,5620],[61.1,5696],[61.1,5774],[61.1,5846],[61.1,5929],[61.1,6001],[61.1,6085],[61.1,6165],[61.1,6247],[61.1,6323],[61.1,6400],[61.1,6473],[61.1,6549],[61.1,6624],[61.1,6699],[61.1,6783],[61.1,6850],[61.1,6924],[61.1,6992],[60.3,7064],[59.3,7151],[58.5,7228],[57.7,7312],[56.9,7392],[55.7,7468],[54.5,7545],[53.8,7632],[53.8,7704],[53.8,7776],[53.8,7857],[53.8,7927],[53.8,8012],[53.8,8086],[53.8,8168],[53.8,8245],[53.8,8328],[53.8,8408],[53.8,8488],[53.8,8540],[53.8,8619]]",1,0,350.33,352.669,52.51322751,1.755,"[{""rating"":52.51322751322751,""responseTime"":1.7549999999999955}]",space,1.812,,352.669,Definitely yes,100,352.685,,,[],,0,9,9,9,1,audio/Narrative7Situation9.wav,audio/Narrative8Situation9.wav,audio/Narrative5Situation9.wav,audio/Narrative6Situation9.wav,2,3,3,4,,,,,,,,,,,,,,,,,,,,,,,,,,,,,,,,,,,,,,,
,,,,,,65a3f00d93a00fa46c03f402,2024-02-08_12h33.51.983,group3.1-3.2-social-tom,2023.2.2,MacIntel,62.5,65c5074098b851296ff0b7ed,65c5106734a2d1565b94e2d4,,,,,,,,,,,,,,,,,,,,,,,,,,,,,352.686,1,audio/Narrative8Situation1.wav,357.694,,357.694,373.621,"[[52.1,619],[48.3,703],[42.9,786],[38.1,870],[36,952],[34.1,1037],[33.6,1118],[33.6,1199],[33.6,1272],[33.6,1352],[33.6,1422],[33.6,1507],[33.6,1581],[33.6,1653],[33.6,1724],[33.6,1799],[33.6,1873],[33.6,1953],[33.6,2027],[33.6,2109],[33.6,2183],[33.6,2266],[33.6,2339],[33.6,2422],[33.6,2503],[33.6,2596],[33.6,2661],[33.6,2749],[33.6,2833],[33.6,2915],[33.6,2987],[33.6,3074],[33.6,3147],[33.6,3225],[33.6,3302],[33.6,3373],[33.6,3451],[33.6,3530],[33.6,3621],[33.6,3703],[33.6,3787],[33.6,3862],[33.6,3938],[33.6,4008],[33.6,4084],[33.6,4166],[33.6,4245],[33.6,4320],[33.6,4400],[33.6,4484],[33.6,4564],[33.6,4642],[33.6,4710],[33.6,4785],[33.6,4862],[33.6,4934],[33.6,5010],[33.6,5083],[33.6,5167],[33.6,5243],[33.6,5316],[33.6,5391],[33.6,5469],[33.6,5553],[33.6,5626],[33.6,5713],[33.6,5792],[33.6,5868],[33.6,5940],[33.6,6016],[33.6,6085],[33.6,6166],[33.6,6242],[33.6,6320],[33.6,6397],[33.6,6476],[33.6,6549],[33.6,6632],[33.6,6726],[33.6,6793],[33.6,6875],[33.6,6955],[33.6,7033],[33.6,7110],[33.6,7187],[33.6,7269],[33.6,7346],[33.6,7415],[33.6,7490],[33.6,7562],[33.6,7646],[33.6,7722],[33.6,7794],[33.6,7870],[33.6,7942],[33.6,8020],[33.6,8087],[33.6,8165],[33.6,8238],[33.6,8309],[33.6,8386],[33.6,8457],[33.6,8533],[33.6,8607],[33.6,8678],[33.6,8750],[33.6,8825],[33.6,8903],[33.6,8977],[33.6,9054],[33.6,9129],[33.6,9208],[33.6,9277],[33.6,9353],[33.6,9435],[33.6,9533],[33.6,9604],[33.6,9686],[33.6,9769],[33.6,9842],[33.6,9924],[33.6,10000],[33.6,10080],[33.2,10154],[32.4,10234],[31.7,10319],[31.1,10403],[30.4,10481],[29.8,10570],[29.2,10648],[29,10721],[28.8,10801],[28.7,10881],[28.4,10958],[28.3,11033],[28.2,11112],[28.2,11185],[28,11265],[28,11341],[28,11419],[28,11493],[28,11580],[28,11654],[28,11730],[28,11812],[28,11887],[28,11974],[28,12048],[28,12123],[28,12203],[28,12286],[28,12360],[28,12438],[28,12520],[28,12605],[28,12687],[28,12770],[28,12848],[28,12920],[28,12999],[28,13075],[28,13147],[28,13219],[28,13288],[28,13366],[28,13437],[28,13510],[28,13586],[28,13667],[28,13759],[28,13840],[28,13917],[28,13995],[28,14074],[28,14147],[28,14229],[28,14305],[28,14383],[28,14454],[28,14538],[28,14620],[28,14712],[28,14793],[28,14867],[28,14938],[28,15025],[28,15109],[28,15192],[28,15275],[28,15358],[28,15442],[28,15525],[28,15607],[28,15694],[28,15775],[28,15841],[28,15927]]",1,0,373.622,375.949,29.89417989,1.667,"[{""rating"":29.894179894179896,""responseTime"":1.6669999999999732}]",space,1.789,,375.949,Partially,50,375.969,,,[],,0,10,10,10,1,audio/Narrative8Situation1.wav,audio/Narrative7Situation1.wav,audio/Narrative6Situation1.wav,audio/Narrative5Situation1.wav,5,2,2,5,,,,,,,,,,,,,,,,,,,,,,,,,,,,,,,,,,,,,,,
,,,,,,65a3f00d93a00fa46c03f402,2024-02-08_12h33.51.983,group3.1-3.2-social-tom,2023.2.2,MacIntel,62.5,65c5074098b851296ff0b7ed,65c5106734a2d1565b94e2d4,,,,,,,,,,,,,,,,,,,,,,,,,,,,,375.969,1,audio/Narrative8Situation2.wav,378.97,,378.97,389.085,"[[999,1],[999,80],[999,153],[999,235],[999,314],[999,381],[46.4,463],[49.6,547],[50.4,631],[50.9,713],[51.3,789],[51.7,862],[52,935],[52,1004],[52,1081],[52.1,1157],[52.4,1230],[52.6,1312],[52.6,1389],[52.6,1456],[52.6,1537],[52.6,1610],[52.6,1682],[52.6,1761],[52.6,1835],[52.6,1910],[52.6,1991],[52.6,2069],[52.6,2144],[52.6,2234],[52.6,2314],[52.6,2384],[52.6,2459],[52.6,2532],[52.6,2607],[52.6,2687],[52.6,2765],[52.6,2840],[52.6,2915],[52.6,2992],[52.6,3063],[52.6,3138],[52.6,3209],[52.6,3287],[52.6,3364],[52.6,3438],[52.6,3511],[52.6,3580],[52.6,3655],[52.6,3735],[52.6,3816],[52.6,3887],[52.6,3971],[52.6,4048],[52.6,4126],[52.6,4213],[52.6,4294],[52.6,4377],[52.6,4461],[52.6,4544],[52.6,4622],[52.6,4697],[52.6,4777],[52.6,4860],[52.6,4950],[52.6,5025],[52.6,5102],[52.6,5185],[52.6,5268],[52.6,5348],[52.6,5420],[52.6,5500],[52.6,5573],[52.6,5656],[52.6,5739],[53,5813],[53.4,5891],[54,5968],[54.2,6043],[54.5,6110],[55,6189],[55.4,6269],[55.7,6352],[56,6435],[56.2,6518],[56.5,6598],[56.6,6670],[56.7,6754],[56.7,6823],[56.9,6899],[57,6980],[57,7056],[57.1,7128],[57.1,7198],[57.3,7273],[57.3,7350],[57.3,7418],[57.3,7502],[57.4,7580],[57.4,7652],[57.5,7728],[57.5,7807],[57.7,7884],[57.8,7959],[57.8,8043],[57.9,8115],[58.1,8198],[58.1,8280],[58.1,8358],[58.2,8430],[58.2,8509],[58.2,8588],[58.2,8668],[58.2,8756],[58.2,8823],[58.2,8900],[58.2,8973],[58.2,9057],[58.2,9139],[58.2,9210],[58.2,9290],[58.2,9364],[58.2,9438],[58.2,9518],[58.2,9588],[58.2,9661],[58.2,9740],[58.2,9818],[58.2,9893],[58.2,9967],[58.2,10033],[58.2,10115]]",1,0,389.086,391.14,62.96296296,1.442,"[{""rating"":62.96296296296296,""responseTime"":1.4419999999999504}]",space,1.526,,391.14,Not at all,0,391.159,,,[],,0,11,11,11,1,audio/Narrative8Situation2.wav,audio/Narrative7Situation2.wav,audio/Narrative6Situation2.wav,audio/Narrative5Situation2.wav,3,3,3,3,,,,,,,,,,,,,,,,,,,,,,,,,,,,,,,,,,,,,,,
,,,,,,65a3f00d93a00fa46c03f402,2024-02-08_12h33.51.983,group3.1-3.2-social-tom,2023.2.2,MacIntel,62.5,65c5074098b851296ff0b7ed,65c5106734a2d1565b94e2d4,,,,,,,,,,,,,,,,,,,,,,,,,,,,,391.159,1,audio/Narrative8Situation3.wav,395.172,,395.172,417.553,"[[18.1,163],[18.8,247],[18.8,316],[18.8,384],[18.8,463],[18.8,539],[18.8,617],[18.8,688],[18.8,768],[18.8,838],[18.8,917],[18.8,987],[18.8,1064],[18.8,1138],[18.8,1208],[18.8,1287],[18.8,1367],[18.8,1438],[18.8,1513],[18.8,1591],[18.8,1665],[18.8,1741],[18.8,1816],[18.8,1889],[18.8,1963],[18.8,2042],[18.8,2124],[18.8,2201],[18.8,2274],[18.8,2346],[18.8,2422],[18.8,2500],[18.8,2581],[18.8,2668],[18.8,2742],[18.8,2817],[18.8,2896],[18.8,2968],[18.8,3051],[18.8,3126],[18.8,3201],[18.8,3274],[18.8,3357],[18.8,3438],[18.8,3515],[18.8,3597],[18.8,3680],[18.8,3754],[18.8,3831],[18.8,3906],[18.8,3986],[18.8,4064],[18.8,4136],[18.8,4213],[18.8,4297],[18.8,4373],[18.8,4446],[18.8,4524],[18.8,4605],[18.8,4684],[18.8,4765],[18.8,4842],[18.8,4917],[18.8,4991],[18.8,5067],[18.8,5143],[18.8,5218],[18.8,5302],[18.8,5379],[18.8,5460],[18.8,5544],[18.8,5621],[18.8,5708],[18.8,5783],[18.8,5865],[18.8,5949],[18.8,6022],[18.8,6093],[18.8,6164],[18.8,6245],[18.8,6324],[18.8,6407],[18.8,6479],[18.8,6559],[18.8,6632],[18.8,6715],[18.8,6795],[18.8,6875],[18.8,6947],[18.8,7021],[18.8,7099],[18.8,7174],[18.8,7246],[18.8,7325],[18.8,7401],[18.8,7475],[18.8,7563],[18.8,7645],[18.8,7718],[18.8,7797],[18.8,7874],[18.8,7959],[18.8,8039],[18.8,8121],[18.8,8197],[18.8,8278],[18.8,8354],[19.2,8426],[20.2,8507],[21.3,8586],[22.5,8673],[23.8,8757],[25.4,8841],[26.6,8924],[28.2,9007],[29.6,9091],[31,9177],[32.9,9262],[34.9,9345],[37.4,9427],[39.3,9512],[41.3,9595],[42.9,9677],[46.3,9762],[49.9,9845],[54,9929],[56.2,10012],[59.7,10095],[60.4,10175],[60.4,10259],[60.4,10342],[60.4,10427],[60.4,10502],[60.4,10576],[60.4,10652],[60.4,10724],[60.4,10812],[60.4,10889],[60.4,10965],[60.4,11036],[60.4,11119],[60.4,11200],[60.4,11283],[60.4,11358],[60.4,11441],[60.4,11515],[60.4,11593],[60.4,11675],[60.4,11749],[60.4,11830],[60.4,11903],[60.4,11980],[60.4,12060],[60.4,12135],[60.4,12212],[60.4,12290],[61.2,12370],[62.7,12456],[63.1,12542],[63.5,12616],[64.4,12694],[65.3,12772],[66.4,12853],[67.1,12937],[67.7,13013],[68.5,13093],[70.1,13174],[71,13254],[71.6,13341],[71.6,13408],[71.6,13486],[71.6,13559],[71.6,13641],[71.6,13723],[71.6,13802],[71.6,13893],[71.6,13973],[71.6,14063],[70.9,14129],[70.6,14208],[71.3,14292],[73.7,14375],[74.7,14463],[75.3,14547],[76.1,14631],[76.6,14710],[77,14795],[77.6,14872],[82,14954],[91.1,15037],[100,15121],[100,15200],[100,15283],[100,18040],[100,18124],[100,18203],[100,18283],[100,18352],[100,18430],[100,18506],[100,18591],[100,18670],[100,18751],[100,18831],[100,18915],[100,18990],[100,19064],[100,19138],[100,19216],[100,19289],[100,19366],[100,19435],[100,19523],[100,19602],[100,19682],[100,19750],[100,19828],[100,19907],[100,19988],[100,20061],[100,20133],[100,20200],[100,20277],[100,20354],[100,20432],[100,20514],[100,20590],[100,20662],[100,20736],[100,20812],[100,20882],[100,20956],[100,21031],[100,21105],[100,21177],[100,21257],[100,21336],[100,21412],[100,21487],[100,21564],[100,21647],[100,21726],[100,21805],[100,21887],[100,21958],[100,22043],[100,22129],[99.1,22210],[98.5,22280],[97.8,22364]]",1,0,417.553,420.562,60.84656085,2.37,"[{""rating"":60.84656084656085,""responseTime"":2.3700000000000045}]",space,2.482,,420.562,Definitely yes,100,420.581,,,[],,0,12,12,12,1,audio/Narrative8Situation3.wav,audio/Narrative7Situation3.wav,audio/Narrative6Situation3.wav,audio/Narrative5Situation3.wav,4,8,5,3,,,,,,,,,,,,,,,,,,,,,,,,,,,,,,,,,,,,,,,
,,,,,,65a3f00d93a00fa46c03f402,2024-02-08_12h33.51.983,group3.1-3.2-social-tom,2023.2.2,MacIntel,62.5,65c5074098b851296ff0b7ed,65c5106734a2d1565b94e2d4,,,,,,,,,,,,,,,,,,,,,,,,,,,,,420.582,1,audio/Narrative8Situation4.wav,423.582,,423.582,437.744,"[[999,0],[999,82],[999,168],[999,255],[999,314],[999,395],[57.3,475],[56.5,562],[54,641],[52.9,730],[52.8,805],[52.8,882],[52.8,954],[52.8,1028],[52.8,1115],[52.9,1197],[52.9,1270],[53,1348],[53,1442],[53.2,1512],[53.2,1589],[53.3,1673],[53.3,1752],[53.4,1836],[53.4,1920],[53.4,2002],[53.4,2082],[53.4,2175],[53.6,2252],[53.6,2336],[53.6,2416],[53.6,2485],[53.6,2562],[53.6,2639],[53.6,2716],[53.6,2793],[53.6,2867],[53.6,2944],[54.5,3022],[55.4,3101],[56.2,3185],[57.1,3271],[58.6,3351],[60.2,3435],[61.1,3519],[61.6,3596],[62,3673],[62.6,3747],[63.2,3832],[63.6,3913],[64,3995],[64.2,4069],[64.4,4144],[64.6,4218],[64.6,4288],[64.7,4365],[64.7,4444],[64.7,4519],[64.7,4603],[64.7,4677],[64.7,4750],[64.7,4824],[64.7,4891],[64.7,4968],[64.7,5036],[64.7,5112],[64.7,5197],[64.7,5282],[64.7,5355],[64.7,5428],[64.7,5497],[64.7,5581],[64.7,5670],[64.7,5752],[64.7,5839],[64.7,5918],[64.7,5990],[64.7,6074],[64.7,6156],[64.7,6230],[64.7,6312],[64.7,6399],[64.7,6483],[64.7,6552],[64.7,6625],[64.7,6704],[64.7,6776],[64.7,6853],[64.7,6925],[64.7,7000],[64.7,7084],[64.7,7161],[64.7,7238],[64.7,7319],[64.7,7397],[64.7,7476],[64.7,7552],[64.7,7627],[64.7,7706],[64.7,7782],[64.7,7870],[64.7,7945],[64.7,8022],[64.7,8112],[64.7,8189],[64.7,8264],[64.7,8338],[64.7,8413],[64.7,8485],[64.7,8565],[64.7,8644],[64.7,8716],[64.7,8793],[64.7,8867],[64.7,8939],[64.7,9012],[64.7,9093],[64.7,9163],[64.7,9247],[64.7,9319],[64.7,9394],[64.7,9473],[64.7,9553],[64.7,9634],[64.7,9713],[64.7,9795],[64.7,9865],[64.7,9940],[64.7,10026],[64.7,10110],[64.7,10182],[64.7,10261],[64.7,10336],[64.7,10411],[64.7,10490],[64.7,10572],[64.7,10649],[63.8,10721],[62.3,10802],[60.6,10884],[59.3,10971],[57.8,11055],[56.3,11134],[54.5,11218],[54.1,11302],[53.8,11377],[53.7,11449],[53.6,11524],[53.4,11606],[53.4,11682],[53.3,11764],[53.3,11843],[53.3,11935],[53.3,12012],[53.3,12082],[53.3,12173],[53.3,12235],[53.3,12317],[53.3,12401],[53.3,12485],[53.3,12569],[53.3,12651],[53.3,12723],[53.3,12805],[53.3,12884],[53.3,12973],[53.3,13050],[53.3,13124],[53.3,13204],[53.3,13288],[53.3,13365],[53.3,13447],[53.3,13516],[53.3,13601],[53.3,13668],[53.3,13747],[53.3,13838],[53.3,13909],[53.3,13993],[53.3,14055],[53.3,14132]]",1,0,437.744,445.007,53.30687831,6.571,"[{""rating"":46.2962962962963,""responseTime"":6.018000000000029},{""rating"":53.3068783068783,""responseTime"":6.571000000000026}]",space,6.727,,445.007,Not at all,0,445.026,,,[],,0,13,13,13,1,audio/Narrative8Situation4.wav,audio/Narrative7Situation4.wav,audio/Narrative6Situation4.wav,audio/Narrative5Situation4.wav,3,3,2,1,,,,,,,,,,,,,,,,,,,,,,,,,,,,,,,,,,,,,,,
,,,,,,65a3f00d93a00fa46c03f402,2024-02-08_12h33.51.983,group3.1-3.2-social-tom,2023.2.2,MacIntel,62.5,65c5074098b851296ff0b7ed,65c5106734a2d1565b94e2d4,,,,,,,,,,,,,,,,,,,,,,,,,,,,,445.026,1,audio/Narrative8Situation5.wav,447.027,,447.028,455.261,"[[999,1],[999,71],[999,154],[999,233],[999,303],[999,362],[999,437],[999,515],[999,583],[999,657],[999,733],[999,813],[999,901],[999,977],[999,1056],[999,1130],[999,1206],[999,1282],[999,1353],[999,1426],[999,1499],[999,1576],[999,1642],[999,1725],[999,1801],[999,1893],[999,1965],[999,2038],[999,2112],[999,2185],[999,2258],[999,2335],[999,2413],[999,2492],[999,2574],[999,2655],[999,2741],[999,2832],[999,2916],[999,2997],[999,3074],[999,3158],[999,3239],[999,3320],[999,3404],[999,3487],[999,3570],[999,3654],[999,3737],[999,3821],[55.4,4221],[57.4,4304],[60.8,4387],[62.2,4474],[63,4561],[63.8,4643],[65.1,4722],[66.3,4805],[67.6,4888],[68.3,4974],[68.3,5052],[68.3,5127],[68.3,5201],[68.3,5280],[68.3,5370],[68.3,5451],[68.3,5536],[68.3,5613],[68.3,5691],[68.3,5768],[68.3,5840],[68.3,5916],[68.3,5993],[68.3,6069],[68.3,6145],[68.3,6223],[68.3,6300],[68.3,6385],[68.3,6459],[68.3,6534],[68.3,6613],[68.3,6684],[68.3,6757],[68.3,6835],[68.3,6908],[68.3,6993],[68.3,7072],[68.3,7145],[68.3,7231],[68.3,7312],[68.3,7383],[68.3,7460],[68.3,7530],[68.3,7604],[68.3,7684],[68.3,7767],[68.3,7844],[68.3,7926],[68.3,8009],[68.3,8093],[68.3,8166],[68.3,8232]]",1,0,455.261,458.21,68.25396825,0.904,"[{""rating"":68.25396825396825,""responseTime"":0.9039999999999964}]",space,2.412,,458.21,Not at all,0,458.227,,,[],,0,14,14,14,1,audio/Narrative8Situation5.wav,audio/Narrative7Situation5.wav,audio/Narrative6Situation5.wav,audio/Narrative5Situation5.wav,2,5,2,5,,,,,,,,,,,,,,,,,,,,,,,,,,,,,,,,,,,,,,,
,,,,,,65a3f00d93a00fa46c03f402,2024-02-08_12h33.51.983,group3.1-3.2-social-tom,2023.2.2,MacIntel,62.5,65c5074098b851296ff0b7ed,65c5106734a2d1565b94e2d4,,,,,,,,,,,,,,,,,,,,,,,,,,,,,458.227,1,audio/Narrative8Situation6.wav,460.238,,460.238,466.698,"[[16.4,1271],[16.8,1348],[17.2,1430],[17.6,1510],[18,1593],[18.3,1675],[18.7,1754],[19.2,1824],[19.6,1903],[19.8,1983],[20.1,2069],[20.1,2144],[20.2,2218],[20.4,2291],[20.4,2368],[20.4,2445],[20.4,2521],[20.4,2600],[20.4,2671],[20.4,2747],[20.4,2825],[20.4,2899],[20.4,2974],[20.4,3057],[20.4,3134],[20.4,3213],[20.4,3293],[20.4,3372],[20.4,3449],[20.4,3521],[20.4,3596],[20.4,3675],[20.4,3753],[20.4,3829],[20.4,3908],[20.4,3992],[20.4,4074],[20.4,4149],[20.4,4226],[20.4,4312],[20.4,4394],[20.4,4478],[20.4,4562],[20.4,4644],[20.4,4728],[20.4,4812],[20.4,4894],[20.4,4978],[20.4,5062],[20.4,5144],[20.4,5228],[20.4,5312],[20.4,5394],[20.4,5478],[20.4,5562],[20.4,5644],[20.4,5728],[20.4,5812],[20.4,5899],[20.4,5980],[20.4,6055],[20.4,6128],[20.4,6201],[20.4,6278],[20.4,6350],[20.4,6408]]",1,0,466.699,468.344,26.71957672,1.35,"[{""rating"":26.71957671957672,""responseTime"":1.349999999999966}]",space,1.121,,468.344,Not at all,0,468.362,,,[],,0,15,15,15,1,audio/Narrative8Situation6.wav,audio/Narrative7Situation6.wav,audio/Narrative6Situation6.wav,audio/Narrative5Situation6.wav,2,3,2,3,,,,,,,,,,,,,,,,,,,,,,,,,,,,,,,,,,,,,,,
,,,,,,65a3f00d93a00fa46c03f402,2024-02-08_12h33.51.983,group3.1-3.2-social-tom,2023.2.2,MacIntel,62.5,65c5074098b851296ff0b7ed,65c5106734a2d1565b94e2d4,,,,,,,,,,,,,,,,,,,,,,,,,,,,,468.362,1,audio/Narrative8Situation7.wav,471.363,,471.363,483.444,"[[27.6,750],[29.8,832],[30.2,911],[31,992],[34,1065],[41.8,1149],[48.8,1233],[51.2,1315],[52.9,1399],[54.8,1483],[56.9,1565],[58.1,1649],[59.3,1728],[60.6,1817],[62.8,1899],[66,1983],[67.3,2067],[67.7,2156],[67.7,2236],[67.7,2310],[67.7,2379],[67.7,2456],[67.7,2545],[67.7,2622],[67.7,2700],[67.7,2776],[67.7,2850],[67.7,2928],[67.7,3010],[67.7,3084],[67.7,3163],[67.7,3247],[67.7,3322],[67.7,3396],[67.7,3483],[67.7,3558],[67.7,3635],[67.7,3726],[67.7,3805],[67.7,3887],[67.7,3951],[67.6,4043],[67.6,4117],[67.6,4197],[67.6,4283],[67.6,4353],[67.6,4425],[67.6,4497],[67.6,4576],[67.6,4653],[67.6,4740],[65.1,4815],[64.2,4897],[62.8,4985],[61.4,5069],[60.7,5151],[59.9,5235],[59.7,5315],[59.1,5397],[58.6,5469],[58.1,5551],[57.9,5630],[57.9,5704],[57.9,5774],[57.9,5851],[57.9,5925],[57.9,5997],[57.9,6075],[57.9,6144],[57.9,6223],[57.9,6302],[57.9,6384],[57.9,6462],[57.9,6539],[57.9,6620],[57.9,6699],[57.9,6776],[57.9,6850],[57.9,6918],[57.9,6997],[52.6,7070],[41,7153],[39.6,7236],[46.4,7312],[58.5,7396],[60.3,7476],[53.8,7553],[47.9,7637],[47.2,7718],[46.8,7798],[44.3,7879],[42.5,7961],[41.4,8045],[40.9,8120],[40.5,8197],[39.8,8274],[39.4,8346],[33.9,9004],[34.3,9086],[34.5,9156],[34.5,9239],[34.5,9317],[34.4,9389],[34.3,9466],[33.7,9538],[33.2,9615],[32.4,9694],[31.7,9767],[31.5,9848],[31.2,9918],[31,9990],[30.8,10062],[30.7,10132],[30.4,10199],[30.2,10277],[29.9,10355],[29.6,10437],[29.5,10510],[29.4,10596],[29.2,10671],[29.2,10745],[29.2,10819],[29.2,10887],[29.2,10964],[29.2,11053],[29.2,11134],[29.2,11218],[29.2,11293],[29.2,11364],[29.2,11439],[29.2,11507],[29.2,11586],[29.2,11663],[29.2,11736],[29.2,11819],[29.2,11894],[29.2,11968],[29.2,12038]]",1,0,483.444,485.862,48.54497354,2.165,"[{""rating"":31.349206349206348,""responseTime"":1.2620000000000005},{""rating"":44.576719576719576,""responseTime"":1.7239999999999895},{""rating"":48.544973544973544,""responseTime"":2.1650000000000205}]",space,1.873,,485.862,Partially,50,485.881,,,[],,0,16,16,16,1,audio/Narrative8Situation7.wav,audio/Narrative7Situation7.wav,audio/Narrative6Situation7.wav,audio/Narrative5Situation7.wav,3,5,5,4,,,,,,,,,,,,,,,,,,,,,,,,,,,,,,,,,,,,,,,
,,,,,,65a3f00d93a00fa46c03f402,2024-02-08_12h33.51.983,group3.1-3.2-social-tom,2023.2.2,MacIntel,62.5,65c5074098b851296ff0b7ed,65c5106734a2d1565b94e2d4,,,,,,,,,,,,,,,,,,,,,,,,,,,,,485.882,1,audio/Narrative8Situation8.wav,488.883,,488.883,501.732,"[[51.1,603],[57.3,687],[72,1179],[72.4,1261],[72.6,1343],[72.9,1427],[73,1512],[73,1591],[73,1672],[73,1745],[73,1824],[73,1908],[79.5,1985],[91.3,2069],[98,2153],[100,2235],[100,2319],[100,2405],[100,2478],[100,2555],[100,2638],[100,2706],[100,2785],[100,2867],[100,2939],[100,3014],[100,3093],[100,3168],[100,3242],[100,3312],[100,3389],[100,3459],[100,3538],[100,3614],[100,3701],[100,3783],[100,3864],[100,3946],[100,4030],[100,4114],[100,4197],[100,4269],[100,4346],[100,4427],[100,4502],[100,4578],[100,4655],[100,4734],[100,4807],[100,4879],[100,4956],[100,5031],[100,5103],[100,5184],[100,5264],[100,5341],[100,5418],[100,5501],[100,5584],[100,5656],[100,5735],[100,5817],[100,5896],[100,5973],[100,6057],[100,6138],[100,6208],[100,6292],[100,6372],[100,6451],[100,6528],[100,6615],[100,6703],[100,6778],[100,6850],[100,6930],[100,7009],[100,7093],[100,7165],[100,7242],[100,7326],[100,7401],[100,7477],[100,7550],[100,7624],[100,7699],[100,7783],[100,7855],[100,7930],[100,8007],[100,8086],[100,8168],[100,8242],[100,8314],[100,8396],[100,8472],[100,8545],[100,8641],[100,8716],[100,8797],[100,8869],[100,8946],[100,9025],[100,9108],[100,9189],[100,9265],[100,9343],[100,9425],[100,9501],[100,9579],[100,9659],[100,9747],[100,9815],[100,9891],[100,9966],[100,10043],[100,10117],[100,10190],[100,10281],[100,10358],[100,10685],[87.2,11102],[86.9,11188],[86.9,11256],[86.8,11334],[86.8,11407],[86.8,11481],[86.8,11561],[86.8,11638],[86.8,11716],[86.8,11790],[86.8,11877],[86.8,11960],[86.8,12036],[86.8,12112],[86.8,12190],[86.8,12267],[86.8,12341],[86.8,12417],[86.8,12497],[86.8,12572],[86.8,12641],[86.8,12724],[86.8,12787]]",1,0,501.733,505.211,59.78835979,2.288,"[{""rating"":59.78835978835979,""responseTime"":2.288000000000011}]",space,2.937,,505.211,Definitely yes,100,505.229,,,[],,0,17,17,17,1,audio/Narrative8Situation8.wav,audio/Narrative7Situation8.wav,audio/Narrative6Situation8.wav,audio/Narrative5Situation8.wav,3,2,5,3,,,,,,,,,,,,,,,,,,,,,,,,,,,,,,,,,,,,,,,
,,,,,,65a3f00d93a00fa46c03f402,2024-02-08_12h33.51.983,group3.1-3.2-social-tom,2023.2.2,MacIntel,62.5,65c5074098b851296ff0b7ed,65c5106734a2d1565b94e2d4,,,,,,,,,,,,,,,,,,,,,,,,,,,,,505.229,1,audio/Narrative8Situation9.wav,508.239,,508.239,519.55,"[[58.7,1069],[57.3,1152],[56.7,1224],[56.1,1303],[54.5,1381],[52.1,1466],[49.7,1548],[48,1631],[47.2,1716],[47.1,1790],[47,1873],[47,1952],[47,2029],[47,2107],[47,2182],[47,2256],[47,2336],[47,2424],[47,2506],[47,2591],[47,2664],[47,2740],[47,2823],[47,2907],[47,2990],[47,3073],[47,3157],[47,3226],[47,3304],[47,3390],[47,3473],[47,3543],[47,3621],[47,3707],[47,3778],[47,3865],[47,3959],[47,4040],[47,4113],[47,4195],[47,4275],[47,4357],[47,4439],[47,4519],[47,4591],[47,4666],[47,4748],[47,4822],[47,4901],[47,4978],[47,5058],[47,5137],[47,5219],[47,5291],[47,5365],[47,5451],[47,5524],[47,5596],[47,5673],[47,5748],[46.2,5828],[44.7,5910],[44.3,5992],[44,6068],[43.9,6147],[43.9,6240],[43.8,6317],[43.8,6393],[43.8,6486],[43.8,6562],[43.8,6640],[43.8,6717],[43.8,6802],[43.8,6879],[43.8,6966],[43.7,7048],[43.5,7120],[43.5,7198],[43.4,7274],[43.3,7352],[43.1,7431],[43.1,7509],[43,7576],[42.9,7652],[42.7,7728],[42.6,7799],[42.5,7875],[42.3,7949],[42.2,8022],[42.1,8103],[41.9,8181],[41.8,8254],[41.7,8328],[41.5,8399],[41.3,8476],[41.3,8548],[41.3,8631],[41.3,8703],[41.3,8781],[41.3,8852],[41.4,8928],[41.7,9011],[41.9,9081],[42.2,9159],[42.3,9241],[42.3,9323],[42.5,9403],[42.6,9476],[42.7,9552],[42.9,9630],[43,9705],[43.1,9781],[43.1,9860],[43.3,9939],[43.3,10015],[43.4,10096],[43.4,10173],[43.5,10246],[43.7,10317],[43.7,10389],[43.8,10471],[43.8,10551],[43.9,10625],[44,10711],[44.2,10788],[44.3,10873],[44.4,10948],[44.6,11024],[44.7,11091],[44.8,11173],[44.8,11233],[45,11310]]",1,0,519.55,520.941,45.5026455,0.762,"[{""rating"":45.5026455026455,""responseTime"":0.7619999999999436}]",space,0.856,,520.941,Not at all,0,520.959,,,[],,0,18,18,18,1,audio/Narrative8Situation9.wav,audio/Narrative7Situation9.wav,audio/Narrative6Situation9.wav,audio/Narrative5Situation9.wav,3,2,4,3,,,,,,,,,,,,,,,,,,,,,,,,,,,,,,,,,,,,,,,
,,,,,,65a3f00d93a00fa46c03f402,2024-02-08_12h33.51.983,group3.1-3.2-social-tom,2023.2.2,MacIntel,62.5,65c5074098b851296ff0b7ed,65c5106734a2d1565b94e2d4,,,,,,,,,,,,,,,,,,,,,,,,,,,545.091,547.667,547.679,2,audio/Narrative13Situation2.wav,547.68,,547.68,577.433,"[[47.2,844],[47.8,924],[48.4,1003],[48.9,1083],[49.3,1160],[50,1245],[50.4,1325],[50.9,1406],[51.2,1487],[51.6,1567],[51.9,1642],[52,1722],[52.1,1794],[52.2,1875],[52.4,1956],[52.6,2036],[52.9,2122],[53.2,2202],[53.2,2281],[53.3,2359],[53.3,2437],[53.3,2508],[53.3,2581],[53.3,2657],[53.3,2733],[53.3,2810],[53.3,2886],[53.3,2958],[53.3,3031],[53.3,3105],[53.3,3184],[53.3,3261],[53.3,3336],[53.3,3416],[53.3,3489],[53.3,3568],[53.3,3644],[53.3,3722],[53.3,3806],[53.3,3884],[53.3,3961],[53.3,4038],[53.3,4128],[53.3,4208],[53.3,4277],[53.3,4353],[53.3,4424],[53.3,4503],[53.3,4576],[53.3,4653],[53.3,4735],[53.3,4812],[53.3,4902],[53.3,4989],[53.3,5067],[53.3,5142],[53.3,5211],[53.3,5295],[53.3,5369],[53.3,5446],[53.3,5528],[53.3,5603],[53.3,5676],[53.3,5754],[53.3,5826],[53.3,5911],[53.3,5995],[53.3,6086],[53.3,6157],[53.3,6225],[53.3,6315],[53.3,6396],[53.3,6480],[53.3,6562],[53.3,6646],[53.3,6729],[53.3,6812],[53.4,6896],[55.8,6979],[59.1,7062],[60.4,7143],[61,7225],[61,7302],[61,7377],[61,7450],[61,7533],[61,7615],[61,7700],[61,7783],[61,7860],[61,7945],[61,8030],[61,8110],[61,8187],[61,8271],[61,8351],[61,8430],[61,8508],[61,8586],[61,8656],[61,8728],[61,8812],[61,8901],[61,8984],[61,9067],[61,9150],[61,9234],[61,9317],[61,9400],[61,9484],[61,9567],[61,9650],[61,9734],[61,9817],[61,9900],[62,9980],[63,10060],[63.5,10142],[63.9,10214],[64.6,10296],[64.9,10374],[65.3,10461],[65.6,10532],[65.6,10603],[65.1,10687],[64.3,10771],[64,10858],[63.9,10932],[63.6,11009],[63.6,11085],[63.8,11166],[64.2,11242],[64.6,11325],[64.7,11406],[64.8,11480],[65.3,11562],[65.9,11646],[65.9,11730],[65.9,11809],[65.7,11891],[65.1,11975],[64.8,12059],[64.6,12142],[64,12226],[63.6,12309],[63.4,12393],[63.4,12476],[63.4,12559],[63.4,12642],[63.4,12726],[63.5,12810],[63.8,12893],[64,12976],[64.3,13060],[64.4,13143],[64.4,13226],[64.4,13310],[64.4,13393],[64.3,13476],[64.3,13557],[64.3,13632],[64.2,13704],[64.2,13786],[64.2,13867],[64.3,13941],[64.3,14017],[64.4,14086],[64.7,14158],[65.1,14230],[65.3,14311],[66.1,14400],[67.1,14478],[68.1,14566],[68.7,14642],[69.2,14721],[69.6,14794],[69.8,14875],[69.8,14956],[69.8,15036],[69.8,15109],[69.8,15182],[69.8,15266],[69.8,15346],[69.8,15420],[69.8,15495],[69.8,15570],[69.8,15643],[69.8,15728],[69.8,15811],[69.8,15895],[69.8,15966],[69.8,16038],[69.8,16115],[69.8,16195],[69.8,16277],[69.8,16360],[69.8,16435],[69.8,16512],[69.8,16595],[69.8,16674],[69.8,16754],[69.8,16833],[69.8,16901],[69.8,16978],[69.8,17052],[69.8,17138],[69.8,17216],[69.8,17295],[69.8,17365],[69.8,17446],[69.8,17525],[69.8,17604],[69.8,17676],[69.8,17757],[69.8,17829],[69.8,17908],[69.8,17980],[69.8,18052],[69.8,18139],[69.8,18217],[69.8,18291],[69.8,18371],[69.8,18444],[69.8,18517],[70,18598],[70.1,18675],[70.4,18753],[70.9,18831],[71.6,18913],[72.1,18989],[72.4,19076],[72.6,19158],[72.6,19235],[72.6,19311],[72.6,19388],[72.6,19461],[72.6,19540],[72.6,19612],[72.6,19687],[72.6,19761],[72.6,19836],[72.6,19911],[72.6,19992],[72.6,20083],[72.6,20168],[72.6,20252],[72.6,20329],[72.6,20408],[72.6,20482],[72.6,20565],[72.6,20634],[72.6,20706],[72.6,20783],[72.6,20858],[72.6,20942],[72.6,21027],[72.6,21100],[72.6,21180],[72.6,21252],[72.6,21330],[72.6,21399],[72.6,21476],[72.6,21552],[72.6,21633],[69.4,21713],[55.6,21796],[54,21877],[54,21969],[54,22041],[46.7,22122],[36.5,22288],[35.6,22372],[35.4,22454],[35.4,22531],[35.4,22623],[35.4,22690],[35.4,22761],[35.4,22849],[35.4,22918],[35.2,23000],[34.8,23084],[34.8,23162],[34.8,23240],[34.7,23318],[34.7,23391],[34.5,23468],[34.3,23541],[34.3,23615],[34.3,23689],[34.3,23769],[34.3,23857],[34.3,23927],[34.3,24001],[34.3,24084],[34.3,24165],[34.3,24233],[34.3,24317],[34.3,24393],[34.3,24469],[34.3,24546],[34.3,24623],[34.3,24701],[34.3,24777],[34.3,24863],[34.3,24940],[34.3,25022],[34.3,25095],[34.3,25171],[34.3,25245],[34.3,25320],[34.3,25399],[34.3,25467],[34.3,25541],[34.3,25612],[34.3,25690],[34.3,25757],[34.3,25845],[34.3,25920],[34.3,25992],[34.3,26065],[34.3,26136],[34.3,26209],[34.3,26291],[34.3,26364],[34.3,26436],[34.3,26517],[34.3,26596],[34.3,26673],[34.3,26748],[34.3,26827],[34.3,26902],[34.3,26983],[34.3,27057],[34.3,27141],[34.3,27215],[34.3,27287],[34.3,27365],[34.3,27448],[34.3,27521],[34.3,27594],[34.3,27676],[34.3,27749],[34.3,27830],[34.3,27906],[34.3,27985],[34.3,28067],[34.3,28148],[34.3,28223],[34.3,28302],[34.3,28376],[34.3,28448],[34.3,28528],[34.3,28610],[34.3,28689],[34.3,28761],[34.3,28845],[34.3,28917],[34.3,29007],[34.3,29091],[34.3,29166],[34.3,29244],[34.3,29331],[34.3,29411],[34.3,29480],[34.3,29565],[34.3,29639],[34.3,29709]]",1,0,577.433,577.451,,,[],,,,577.452,Partially,50,577.456,,,[],,0,0,0,0,1,audio/Narrative13Situation2.wav,audio/Narrative13Situation2.wav,audio/Narrative13Situation2.wav,audio/Narrative13Situation2.wav,2,2,2,2,,,,,520.96,545.091,space,23.612,,,,,,,,,,,,,,,,,,,,,,,,,,,,,,,
,,,,,,65a3f00d93a00fa46c03f402,2024-02-08_12h33.51.983,group3.1-3.2-social-tom,2023.2.2,MacIntel,62.5,65c5074098b851296ff0b7ed,65c5106734a2d1565b94e2d4,,,,,,,,,,,,,,,,,,,,,,,,,,,,,577.457,2,audio/Narrative5Situation1.wav,582.463,,582.463,595.747,"[[999,0],[999,81],[999,163],[999,254],[999,317],[999,386],[999,464],[999,535],[999,609],[999,682],[999,762],[999,835],[999,917],[999,990],[999,1069],[999,1158],[999,1225],[999,1302],[999,1384],[999,1464],[44.7,1548],[48.5,1629],[49.1,1711],[49.9,1788],[50,1879],[50,1963],[50,2035],[50,2112],[50,2192],[50,2261],[50,2336],[50,2421],[50,2499],[50,2571],[50,2653],[50,2739],[50,2821],[50,2901],[50,2980],[50,3059],[50,3137],[50,3210],[50,3291],[50,3372],[50,3456],[50,3531],[50,3610],[50,3687],[50,3767],[50,3843],[50,3925],[50,4003],[50,4080],[50,4149],[50,4228],[50,4312],[50,4380],[50,4458],[50,4532],[50,4600],[50,4680],[50,4754],[50,4833],[50,4906],[50,4981],[50,5057],[50,5129],[50,5211],[50,5287],[50,5362],[50,5434],[50,5505],[50,5586],[50,5653],[50,5740],[50,5814],[50,5895],[50,5966],[50,6052],[50,6132],[50,6211],[50,6282],[50,6359],[50,6432],[50,6512],[50,6591],[50,6671],[50,6758],[50,6825],[50,6903],[50,6988],[50,7067],[50,7142],[50,7215],[50,7291],[50,7369],[50,7459],[50,7536],[50,7606],[50,7680],[50,7754],[50,7841],[50,7923],[50,8007],[50,8086],[50,8177],[50,8250],[50,8327],[50,8399],[50,8471],[50,8543],[50,8625],[50,8706],[50,8778],[50,8853],[49.3,8932],[44.7,9011],[41.3,9095],[38.6,9178],[37.7,9259],[37.4,9338],[37.4,9413],[37.4,9489],[37.4,9567],[37.4,9643],[37.4,9711],[37.4,9786],[37.4,9862],[37.4,9945],[37.4,10020],[37.4,10095],[37.4,10180],[37.4,10247],[37.4,10326],[37.4,10399],[37.4,10478],[37.4,10551],[37.4,10629],[37.4,10708],[37.4,10783],[37.4,10867],[37.4,10941],[37.4,11014],[37.4,11088],[37.4,11161],[37.4,11239],[37.4,11322],[37.4,11403],[37.4,11481],[37.4,11562],[37.4,11643],[37.4,11711],[37.4,11786],[37.4,11863],[37.4,11937],[37.4,12014],[37.4,12088],[37.4,12169],[37.4,12250],[37.4,12326],[37.4,12397],[41.7,12470],[47,12552],[52.4,12636],[54.5,12720],[55.2,12805],[55.2,12884],[55.2,12960],[55.2,13037],[55.2,13120],[55.2,13180],[55.2,13254]]",1,0,595.747,597.842,51.19047619,1.526,"[{""rating"":55.158730158730165,""responseTime"":1.1590000000001055},{""rating"":51.19047619047619,""responseTime"":1.5259999999999536}]",space,1.566,,597.842,Not at all,0,597.861,,,[],,0,1,1,1,1,audio/Narrative7Situation1.wav,audio/Narrative8Situation1.wav,audio/Narrative5Situation1.wav,audio/Narrative6Situation1.wav,2,5,5,2,,,,,,,,,,,,,,,,,,,,,,,,,,,,,,,,,,,,,,,
,,,,,,65a3f00d93a00fa46c03f402,2024-02-08_12h33.51.983,group3.1-3.2-social-tom,2023.2.2,MacIntel,62.5,65c5074098b851296ff0b7ed,65c5106734a2d1565b94e2d4,,,,,,,,,,,,,,,,,,,,,,,,,,,,,597.861,2,audio/Narrative5Situation2.wav,600.871,,600.872,630.333,"[[48.3,2485],[48,2571],[48,2657],[48,2733],[48,2802],[48,2879],[48,2963],[48,3041],[48,3113],[48,3191],[48,3282],[48,3359],[48,3432],[48,3514],[48,3591],[48,3668],[48,3752],[48,3822],[48,3899],[48,3971],[48,4052],[48,4125],[48,4201],[48,4275],[48,4354],[48,4430],[48,4507],[48,4586],[48,4667],[48,4748],[48,4825],[48,4899],[48,4982],[48,5062],[48,5137],[48,5211],[48,5286],[48,5367],[48,5441],[48,5519],[48,5591],[48,5671],[48,5744],[48,5824],[48,5892],[48,5970],[48,6043],[48,6115],[48,6197],[48,6268],[48,6341],[48,6415],[48,6495],[48,6571],[48,6648],[48,6729],[48,6807],[48,6884],[47.9,6961],[47.9,7049],[47.9,7128],[47.4,7211],[41.8,7293],[40.2,7376],[38.9,7454],[37.8,7533],[37.3,7610],[37.3,7686],[37.3,7762],[37.3,7841],[37.3,7918],[37.3,7993],[37.3,8069],[37.3,8149],[37.3,8225],[37.3,8293],[37.3,8369],[37.3,8454],[37.3,8536],[37.3,8607],[37.3,8686],[37.3,8758],[37.3,8833],[37.3,8915],[37.3,8989],[37.3,9081],[37.3,9161],[37.3,9230],[37.3,9304],[37.3,9378],[37.3,9451],[37.3,9540],[37.3,9626],[37.3,9703],[37.3,9780],[37.3,9860],[37.3,9939],[37.3,10018],[37.3,10090],[37.3,10163],[37.3,10248],[37.3,10329],[37.3,10403],[37.3,10480],[37.3,10557],[37.3,10629],[37.3,10711],[37.3,10790],[37.3,10864],[37.3,10939],[37.3,11016],[37.3,11089],[37.3,11161],[37.3,11242],[37.3,11322],[37.3,11402],[37.3,11488],[37.3,11570],[37.3,11657],[37.3,11724],[37.3,11812],[37.3,11902],[37.3,11982],[37.3,12062],[37.3,12147],[37.3,12224],[37.3,12305],[37.3,12382],[37.3,12458],[37.3,12533],[37.3,12607],[37.3,12684],[37.3,12763],[37.3,12831],[37.3,12910],[37.3,12984],[37.3,13062],[37.3,13141],[37.3,13219],[37.3,13287],[37.3,13373],[37.3,13456],[37.3,13537],[37.3,13607],[37.3,13679],[37.3,13760],[37.3,13834],[37.3,13916],[37.3,13989],[37.3,14064],[37.3,14135],[37.3,14226],[37.3,14302],[37.3,14382],[37.3,14456],[37.3,14537],[37.3,14610],[37.3,14691],[37.3,14759],[37.3,14841],[37.3,14923],[38.6,14999],[44.2,15080],[50.9,15163],[56.5,15247],[58.5,15330],[58.9,15415],[59.4,15494],[59.9,15576],[59.9,15661],[60.1,15729],[60.1,15809],[60.1,15894],[60.1,15969],[60.1,16049],[60.1,16124],[60.1,16195],[60.1,16263],[60.1,16340],[60.1,16416],[60.1,16495],[60.1,16569],[60.1,16644],[60.1,16719],[60.1,16802],[60.1,16875],[60.1,16952],[60.1,17027],[60.1,17100],[60.1,17175],[60.1,17258],[60.1,17338],[60.1,17412],[60.1,17486],[60.1,17561],[60.1,17639],[60.1,17706],[60.1,17786],[60.1,17877],[60.1,17951],[60.1,18021],[60.1,18098],[60.1,18171],[60.1,18250],[60.1,18324],[60.1,18398],[60.1,18475],[60.1,18548],[60.1,18623],[60.1,18702],[60.1,18775],[60.1,18857],[60.1,18932],[60.1,19013],[60.1,19090],[60.1,19166],[60.1,19240],[60.1,19315],[60.1,19398],[60.1,19466],[60.1,19543],[60.1,19634],[60.1,19721],[60.1,19807],[60.1,19885],[60.1,19958],[60.1,20043],[60.1,20125],[60.1,20202],[60.1,20274],[60.1,20352],[60.1,20426],[60.1,20500],[60.1,20585],[60.1,20661],[60.1,20748],[60.1,20817],[60.1,20894],[60.1,20973],[60.1,21062],[60.1,21144],[60.1,21232],[60.1,21317],[60.1,21403],[60.1,21480],[60.1,21552],[60.1,21632],[60.1,21725],[60.1,21800],[60.1,21878],[60.1,21953],[60.1,22040],[60.1,22125],[60.1,22208],[60.1,22288],[59.9,22365],[59.8,22451],[59.7,22538],[59.3,22631],[57.8,22713],[54.9,22796],[50.3,22879],[47.4,22961],[45.4,23046],[43.3,23129],[39.8,23211],[38.6,23295],[38,23374],[37.2,23451],[36.2,23536],[35.1,23620],[34.5,23703],[34.4,23778],[34.4,23858],[34.4,23936],[34.4,24010],[34.4,24086],[34.4,24165],[34.4,24240],[34.4,24324],[34.4,24400],[34.4,24466],[34.4,24545],[34.4,24611],[34.4,24695],[34.4,24767],[34.4,24849],[34.4,24927],[34.4,25006],[34.4,25081],[34.4,25161],[34.4,25235],[34.4,25319],[34.4,25393],[34.4,25466],[34.4,25548],[34.4,25627],[34.4,25699],[34.4,25778],[34.4,25857],[34.4,25930],[34.4,25999],[34.4,26077],[34.4,26160],[34.4,26230],[34.4,26312],[34.4,26394],[34.4,26470],[34.4,26555],[34.4,26641],[34.4,26711],[34.4,26783],[34.4,26865],[34.4,26948],[34.4,27028],[34.4,27102],[34.4,27175],[34.4,27257],[34.4,27340],[34.4,27413],[34.4,27492],[34.4,27579],[34.4,27661],[34.4,27745],[34.4,27821],[34.4,27907],[34.4,27983],[34.4,28056],[34.4,28132],[34.4,28216],[34.4,28292],[34.4,28365],[34.4,28445],[34.4,28525],[34.4,28599],[34.4,28679],[34.4,28764],[34.4,28844],[34.4,28927],[34.4,29008],[34.4,29084],[35.6,29156],[38,29240],[38.6,29319],[39.3,29382],[40.1,29460]]",1,0,630.333,634.496,43.78306878,3.952,"[{""rating"":43.783068783068785,""responseTime"":3.951999999999998}]",space,3.632,,634.496,Definitely yes,100,634.515,,,[],,0,2,2,2,1,audio/Narrative7Situation2.wav,audio/Narrative8Situation2.wav,audio/Narrative5Situation2.wav,audio/Narrative6Situation2.wav,3,3,3,3,,,,,,,,,,,,,,,,,,,,,,,,,,,,,,,,,,,,,,,
,,,,,,65a3f00d93a00fa46c03f402,2024-02-08_12h33.51.983,group3.1-3.2-social-tom,2023.2.2,MacIntel,62.5,65c5074098b851296ff0b7ed,65c5106734a2d1565b94e2d4,,,,,,,,,,,,,,,,,,,,,,,,,,,,,634.516,2,audio/Narrative5Situation3.wav,637.52,,637.52,651.441,"[[999,0],[999,84],[999,157],[999,237],[999,318],[999,384],[999,466],[50.3,551],[51.6,634],[55.4,710],[77,1196],[82.9,1279],[83.9,1365],[83.9,1447],[87,1526],[100,1605],[100,1687],[100,1764],[100,1847],[100,1922],[100,2000],[100,2072],[100,2151],[100,2228],[100,2300],[100,2375],[100,2460],[100,2533],[100,2616],[100,2692],[100,2782],[100,2861],[100,2940],[100,3014],[100,3090],[100,3167],[100,3241],[100,3322],[100,3399],[100,3466],[100,3546],[100,3629],[100,3705],[100,3781],[100,3861],[100,3942],[100,4017],[100,4097],[100,4167],[100,4248],[100,4329],[100,4409],[100,4483],[100,4555],[100,4628],[100,4698],[100,4774],[100,4858],[100,4942],[100,5028],[100,5105],[100,5181],[100,5268],[100,5350],[100,5423],[100,5502],[100,5579],[100,5658],[100,5733],[100,5812],[100,5895],[100,5971],[100,6051],[100,6118],[100,6196],[100,6274],[100,6351],[100,6437],[100,6518],[100,6600],[100,6687],[100,6773],[100,6855],[100,6927],[100,7002],[100,7081],[100,7162],[100,7234],[100,7311],[100,7565],[97.1,7648],[92.9,7730],[91.7,7815],[91.3,7894],[88.5,7972],[86.1,8055],[85.4,8139],[85.4,8216],[85.4,8286],[83.3,8364],[81.9,8447],[81.9,8520],[81.7,8597],[81.5,8677],[81.3,8753],[81.1,8830],[81,8909],[81,8986],[80.8,9063],[80.8,9139],[80.8,9213],[80.8,9286],[80.8,9371],[80.8,9446],[80.8,9519],[80.8,9605],[80.8,9683],[80.8,9755],[80.8,9844],[80.8,9926],[80.8,10005],[80.8,10081],[80.8,10156],[80.8,10226],[80.8,10306],[80.8,10382],[80.8,10460],[80.8,10538],[80.8,10614],[80.8,10687],[80.8,10764],[80.8,10838],[80.8,10916],[80.8,10990],[80.8,11065],[80.8,11147],[80.8,11225],[80.8,11301],[80.8,11375],[80.8,11448],[80.8,11520],[80.8,11588],[80.8,11663],[80.8,11736],[80.8,11817],[80.8,11894],[80.8,11976],[80.8,12062],[80.8,12144],[80.8,12228],[80.8,12311],[80.8,12394],[80.8,12478],[80.8,12562],[80.8,12644],[80.8,12728],[80.8,12812],[80.8,12894],[80.8,12978],[80.8,13062],[80.8,13144],[80.8,13228],[80.8,13312],[80.8,13395],[80.8,13479],[80.8,13562],[80.8,13645],[80.8,13730],[80.8,13798],[80.8,13861]]",1,0,651.442,652.75,80.82010582,0.864,"[{""rating"":80.82010582010581,""responseTime"":0.8640000000000327}]",space,0.779,,652.75,Not at all,0,652.767,,,[],,0,3,3,3,1,audio/Narrative7Situation3.wav,audio/Narrative8Situation3.wav,audio/Narrative5Situation3.wav,audio/Narrative6Situation3.wav,8,4,3,5,,,,,,,,,,,,,,,,,,,,,,,,,,,,,,,,,,,,,,,
,,,,,,65a3f00d93a00fa46c03f402,2024-02-08_12h33.51.983,group3.1-3.2-social-tom,2023.2.2,MacIntel,62.5,65c5074098b851296ff0b7ed,65c5106734a2d1565b94e2d4,,,,,,,,,,,,,,,,,,,,,,,,,,,,,652.767,2,audio/Narrative5Situation4.wav,653.775,,653.775,674.159,"[[74.6,764],[72.9,846],[72.1,927],[68.9,1012],[66.4,1096],[62.3,1178],[58.9,1262],[56.9,1346],[55,1426],[55,1500],[55,1579],[59.3,3225],[58.6,3305],[57.8,3387],[57.7,3466],[57.7,3543],[57.7,3616],[57.7,3687],[57.9,3765],[57.9,3850],[57.9,3926],[57.9,4004],[57.9,4082],[57.9,4163],[57.9,4254],[57.9,4326],[57.9,4406],[57.9,4490],[57.9,4572],[57.9,4662],[57.9,4732],[57.9,4806],[57.9,4889],[57.9,4961],[57.9,5031],[57.9,5110],[57.9,5197],[57.9,5269],[57.9,5342],[57.9,5417],[57.9,5504],[57.9,5575],[57.9,5658],[57.9,5735],[57.4,5812],[55,5889],[54.1,5974],[53.7,6048],[53.3,6129],[52.8,6204],[52.1,6283],[51.1,6365],[50.5,6445],[49.6,6523],[50.7,10581],[52.1,10664],[53.3,10752],[53.8,10832],[54.8,10911],[56.3,10990],[60.7,11072],[64.2,11156],[65.6,11238],[65.6,11307],[65.6,11390],[65.6,11471],[70.5,11548],[77.1,11632],[79,11715],[80.4,11798],[80.8,11874],[80.8,11951],[80.8,12019],[79.9,12095],[79.9,12177],[79.9,12253],[79.9,12330],[79.9,12407],[79.9,12479],[79.9,12558],[79.9,12630],[79.9,12705],[79.9,12778],[79.9,12844],[79.9,12925],[79.9,13007],[79.9,13081],[79.9,13156],[79.9,13235],[79.9,13307],[79.9,13387],[79.9,13458],[79.9,13536],[79.9,13613],[79.9,13701],[79.9,13779],[79.9,13856],[79.9,13928],[79.9,14009],[79.9,14089],[79.9,14170],[79.9,14245],[79.9,14324],[79.9,14423],[79.9,14488],[79.9,14560],[79.9,14653],[79.9,14730],[79.1,14817],[76.7,14903],[75.7,14986],[73.9,15070],[70.1,15153],[66.1,15236],[60.8,15320],[60.2,15403],[60.2,15493],[60.2,15560],[60.2,15637],[60.2,15720],[60.2,15796],[60.2,15875],[60.2,15952],[60.2,16033],[60.2,16104],[60.2,16180],[60.2,16253],[60.2,16329],[60.2,16403],[60.2,16484],[60.2,16557],[60.2,16633],[60.2,16721],[60.2,16797],[60.2,16873],[60.2,16949],[60.2,17024],[60.2,17094],[60.2,17173],[60.2,17245],[60.2,17330],[60.2,17403],[60.2,17482],[60.2,17557],[60.2,17632],[60.2,17704],[60.2,17781],[60.2,17855],[60.2,17937],[60.2,18012],[60.2,18086],[60.2,18162],[60.2,18235],[60.2,18308],[60.2,18378],[60.2,18460],[60.2,18538],[60.2,18620],[60.2,18700],[60.2,18771],[60.2,18853],[60.2,18936],[60.2,19009],[60.2,19082],[60.2,19158],[60.2,19240],[60.2,19307],[60.2,19385],[60.2,19466],[60.2,19548],[60.2,19624],[60.2,19690],[60.2,19760],[60.2,19835],[60.2,19916],[60.2,19989],[60.2,20070],[60.2,20144],[60.2,20228],[60.2,20287],[60.2,20365]]",1,0,674.159,675.536,65.60846561,0.899,"[{""rating"":65.60846560846561,""responseTime"":0.8990000000000009}]",space,0.831,,675.536,Not at all,0,675.551,,,[],,0,4,4,4,1,audio/Narrative7Situation4.wav,audio/Narrative8Situation4.wav,audio/Narrative5Situation4.wav,audio/Narrative6Situation4.wav,3,3,1,2,,,,,,,,,,,,,,,,,,,,,,,,,,,,,,,,,,,,,,,
,,,,,,65a3f00d93a00fa46c03f402,2024-02-08_12h33.51.983,group3.1-3.2-social-tom,2023.2.2,MacIntel,62.5,65c5074098b851296ff0b7ed,65c5106734a2d1565b94e2d4,,,,,,,,,,,,,,,,,,,,,,,,,,,,,675.552,2,audio/Narrative5Situation5.wav,680.571,,680.571,695.98,"[[62.8,918],[60.3,1001],[58.1,1081],[54.6,1163],[51.5,1247],[46.8,1329],[43.9,1413],[41.1,1496],[40.2,1579],[39.3,1660],[39.2,1736],[39.2,1807],[39.2,1882],[39.2,1961],[39.2,2035],[39.2,2111],[39.2,2186],[39.2,2269],[39.2,2343],[39.2,2420],[39.2,2493],[39.2,2565],[39.2,2649],[39.2,2725],[39.2,2803],[39.2,2885],[39.2,2966],[39.2,3054],[39.2,3117],[39.2,3197],[39.2,3269],[39.2,3355],[39.2,3430],[39.2,3517],[39.2,3593],[39.2,3680],[39.2,3765],[39.2,3836],[39.2,3913],[39.2,3992],[39.2,4074],[39.2,4149],[39.2,4227],[39.2,4302],[39.2,4371],[39.2,4447],[39.2,4524],[39.2,4593],[39.2,4673],[39.2,4750],[39.2,4828],[39.2,4904],[39.2,4988],[39.2,5067],[39.2,5144],[39.2,5223],[39.2,5302],[39.2,5381],[39.2,5451],[39.2,5525],[39.2,5606],[39.2,5694],[39.2,5778],[39.2,5857],[39.2,5933],[39.2,6009],[39.2,6084],[39.2,6161],[39.2,6243],[39.2,6315],[39.2,6395],[39.2,6475],[39.2,6554],[39.2,6632],[39.2,6703],[39.2,6776],[39.2,6855],[39.2,6923],[39.2,6995],[39.2,7076],[39.2,7154],[39.2,7231],[39.2,7302],[39.2,7377],[39.2,7457],[39.2,7530],[39.2,7608],[39.2,7685],[39.2,7759],[38.9,7829],[37.8,7906],[37,7985],[36.1,8065],[34.5,8149],[32.8,8227],[31.5,8309],[30.8,8391],[30.6,8461],[30.2,8537],[28.8,8615],[27.6,8697],[27.2,8788],[26.5,8865],[25.8,8942],[25.3,9014],[24.9,9094],[25,9168],[25,9245],[25,9333],[25,9408],[25,9485],[25,9564],[24.6,9649],[24.1,9731],[23.9,9812],[23.8,9896],[23.8,9971],[23.7,10050],[23.7,10129],[23.7,10202],[23.7,10296],[23.7,10371],[23.7,10442],[23.7,10509],[23.7,10596],[23.7,10674],[23.7,10745],[23.7,10820],[23.7,10892],[23.7,10971],[23.7,11050],[23.7,11134],[23.7,11209],[23.7,11287],[23.7,11361],[23.7,11436],[23.7,11512],[23.7,11586],[23.7,11660],[23.7,11733],[23.7,11815],[23.7,11894],[23.7,11969],[23.7,12053],[23.7,12132],[23.7,12203],[23.7,12291],[23.7,12374],[23.7,12451],[23.7,12529],[23.7,12607],[23.7,12686],[23.7,12760],[23.7,12846],[23.7,12923],[23.7,13000],[23.7,13072],[23.7,13149],[23.7,13226],[23.7,13296],[23.7,13374],[23.7,13442],[23.7,13524],[23.7,13596],[23.7,13677],[23.7,13757],[23.7,13837],[23.7,13910],[23.7,13990],[23.7,14069],[23.7,14149],[23.7,14232],[23.7,14303],[23.7,14379],[23.7,14452],[23.7,14528],[23.7,14612],[23.7,14698],[23.7,14780],[23.7,14866],[23.7,14942],[23.7,15009],[23.7,15084],[23.7,15163],[23.7,15232],[23.7,15307],[23.7,15375]]",1,0,695.981,697.26,32.93650794,0.938,"[{""rating"":32.93650793650794,""responseTime"":0.9379999999999882}]",space,0.753,,697.26,Partially,50,697.278,,,[],,0,5,5,5,1,audio/Narrative7Situation5.wav,audio/Narrative8Situation5.wav,audio/Narrative5Situation5.wav,audio/Narrative6Situation5.wav,5,2,5,2,,,,,,,,,,,,,,,,,,,,,,,,,,,,,,,,,,,,,,,
,,,,,,65a3f00d93a00fa46c03f402,2024-02-08_12h33.51.983,group3.1-3.2-social-tom,2023.2.2,MacIntel,62.5,65c5074098b851296ff0b7ed,65c5106734a2d1565b94e2d4,,,,,,,,,,,,,,,,,,,,,,,,,,,,,697.278,2,audio/Narrative5Situation6.wav,700.287,,700.287,705.966,"[[32.8,809],[32.7,880],[32.7,956],[32.3,1036],[31.6,1115],[31.5,1194],[30.7,1276],[29,1360],[27.1,1443],[24.6,1526],[22.5,1610],[21.3,1692],[21.2,1769],[21.2,1849],[21.2,1925],[21.2,2000],[21.2,2067],[21.2,2144],[21.2,2217],[21.2,2294],[21.2,2367],[21.2,2444],[21.2,2519],[21.2,2598],[21.2,2684],[23,2759],[30.3,2841],[35.1,2925],[39.7,3009],[41.8,3091],[41.8,3165],[41.8,3245],[41.8,3319],[44.7,3396],[46.7,3479],[47.6,3563],[48.9,3646],[49.9,3735],[50.1,3810],[50.3,3884],[50.4,3966],[50.8,4044],[51.3,4122],[51.7,4203],[52,4283],[52.2,4358],[52.9,4440],[53.6,4519],[54.1,4602],[54.6,4687],[55,4774],[55.7,4856],[56.6,4942],[57.1,5015],[57.5,5092],[58.2,5169],[59.1,5254],[60.2,5341],[60.7,5421],[61.1,5496],[61.2,5571],[61.1,5632]]",1,0,705.966,708.913,60.58201058,2.735,"[{""rating"":47.75132275132275,""responseTime"":1.4360000000000355},{""rating"":60.58201058201058,""responseTime"":2.7350000000000136}]",space,2.41,,708.913,Partially,50,708.929,,,[],,0,6,6,6,1,audio/Narrative7Situation6.wav,audio/Narrative8Situation6.wav,audio/Narrative5Situation6.wav,audio/Narrative6Situation6.wav,3,2,3,2,,,,,,,,,,,,,,,,,,,,,,,,,,,,,,,,,,,,,,,
,,,,,,65a3f00d93a00fa46c03f402,2024-02-08_12h33.51.983,group3.1-3.2-social-tom,2023.2.2,MacIntel,62.5,65c5074098b851296ff0b7ed,65c5106734a2d1565b94e2d4,,,,,,,,,,,,,,,,,,,,,,,,,,,,,708.93,2,audio/Narrative5Situation7.wav,712.934,,712.934,733.965,"[[57.5,543],[55.8,619],[54,701],[52,786],[50.9,869],[50.8,948],[50.8,1024],[51.1,1100],[51.3,1173],[51.5,1254],[51.5,1326],[51.5,1403],[51.5,1481],[51.5,1553],[51.5,1629],[51.5,1705],[51.5,1783],[51.5,1858],[51.5,1937],[51.5,2017],[51.5,2091],[51.5,2168],[51.5,2248],[51.5,2322],[51.5,2399],[51.5,2473],[51.5,2548],[51.5,2623],[51.5,2706],[51.5,2783],[51.5,2860],[51.5,2934],[51.5,3022],[51.5,3100],[51.5,3185],[51.5,3257],[51.5,3334],[51.5,3406],[51.5,3481],[51.5,3561],[51.5,3632],[51.5,3709],[51.5,3787],[51.5,3862],[51.5,3944],[51.5,4027],[51.5,4099],[51.5,4176],[51.5,4259],[51.5,4344],[51.5,4427],[51.5,4511],[51.5,4586],[51.5,4668],[51.5,4749],[51.5,4826],[51.5,4903],[51.5,4981],[51.5,5057],[51.5,5128],[51.5,5200],[51.5,5276],[51.5,5360],[51.5,5437],[51.5,5511],[51.5,5595],[51.5,5673],[51.5,5750],[52.5,5831],[91.1,5999],[100,6081],[100,6162],[100,6245],[100,6312],[100,6391],[100,6465],[100,6548],[100,6625],[100,6711],[100,6791],[100,6862],[100,6937],[100,7021],[100,7099],[100,7177],[100,7259],[100,7340],[100,7410],[100,7487],[100,7564],[100,7653],[100,7737],[100,7820],[100,7903],[100,7985],[100,8065],[100,8142],[100,8220],[100,8303],[100,8387],[100,8461],[100,8538],[100,8612],[100,8690],[100,8774],[100,8851],[100,8946],[100,9021],[100,9098],[100,9180],[100,9248],[100,9335],[100,9412],[100,9499],[100,9577],[100,9652],[100,9723],[100,9802],[100,9870],[100,9942],[100,10022],[100,10100],[100,10182],[100,10254],[100,10335],[100,10408],[100,10485],[100,10561],[100,10644],[100,10728],[100,10802],[100,10884],[100,10961],[100,11041],[100,11113],[100,11186],[100,11264],[100,11339],[100,11412],[100,11485],[100,11557],[100,11634],[100,11716],[100,11792],[100,11864],[100,11947],[100,12027],[100,12110],[100,12195],[100,12278],[100,12359],[100,12437],[100,12504],[100,12582],[100,12661],[100,12745],[100,12826],[100,12911],[100,12985],[100,13057],[100,13137],[100,13216],[100,13286],[100,13370],[100,13448],[100,13524],[100,13599],[100,13682],[100,13766],[100,13846],[100,13927],[100,14002],[100,14075],[100,14149],[100,14229],[100,14310],[100,14386],[100,14460],[100,14533],[100,14613],[100,14687],[100,14764],[100,14841],[100,14916],[100,14994],[100,15069],[100,15149],[100,15229],[100,15303],[100,15374],[100,15466],[100,15543],[100,15623],[100,15701],[100,15795],[100,15878],[100,15948],[100,16028],[100,16094],[100,16171],[100,16248],[100,16331],[100,16403],[100,16483],[100,16560],[100,16637],[100,16709],[100,16785],[100,16865],[99.9,16951],[97.4,17033],[94.4,17113],[89.7,17196],[85.2,17278],[82.8,17363],[82.5,17440],[82.5,17512],[82.5,17582],[82.5,17654],[82.5,17730],[82.5,17812],[82.5,17883],[82.5,17960],[82.5,18035],[82.5,18115],[82.5,18186],[82.5,18266],[82.5,18336],[82.5,18411],[82.5,18484],[82.5,18564],[82.5,18641],[82.5,18729],[82.5,18817],[82.5,18908],[82.5,18987],[82.5,19071],[82.5,19152],[82.5,19229],[82.5,19307],[82.5,19379],[82.5,19457],[82.5,19531],[82.5,19606],[82.5,19682],[82.5,19764],[82.5,19844],[82.5,19918],[82.5,19994],[82.5,20072],[82.5,20158],[82.5,20230],[83.5,20312],[87.4,20389],[88.6,20474],[88.6,20556],[86.9,20629],[83.6,20713],[81.2,20797],[79.9,20880],[78.3,20947],[75,21031]]",1,0,733.966,735.889,93.65079365,1.436,"[{""rating"":75,""responseTime"":0.9209999999999354},{""rating"":93.65079365079364,""responseTime"":1.4360000000000355}]",space,1.385,,735.889,Partially,50,748.649,49.73544974,12.413,"[{""rating"":49.86772486772487,""responseTime"":3.1929999999999836},{""rating"":50.132275132275126,""responseTime"":3.880999999999972},{""rating"":50.264550264550266,""responseTime"":6.744000000000028},{""rating"":33.201058201058196,""responseTime"":10.313999999999965},{""rating"":49.735449735449734,""responseTime"":12.413000000000011}]",space,0,7,7,7,1,audio/Narrative7Situation7.wav,audio/Narrative8Situation7.wav,audio/Narrative5Situation7.wav,audio/Narrative6Situation7.wav,5,3,4,5,,,12.224,,,,,,,,,,,,,,,,,,,,,,,,,,,,,,,,,,,,
,,,,,,65a3f00d93a00fa46c03f402,2024-02-08_12h33.51.983,group3.1-3.2-social-tom,2023.2.2,MacIntel,62.5,65c5074098b851296ff0b7ed,65c5106734a2d1565b94e2d4,,,,,,,,,,,,,,,,,,,,,,,,,,,,,748.65,2,audio/Narrative5Situation8.wav,751.662,,751.662,760.478,"[[52.5,2204],[53.7,2288],[54.9,2370],[55.7,2461],[56.7,2543],[57.5,2625],[57.5,2703],[57.5,2769],[57.5,2845],[57.5,2924],[57.5,2998],[57.5,3071],[57.5,3144],[57.5,3226],[57.5,3302],[57.5,3379],[57.5,3461],[57.5,3543],[57.5,3620],[57.5,3703],[57.5,3786],[57.5,3865],[57.5,3948],[57.5,4024],[57.5,4100],[57.5,4176],[57.5,4257],[57.5,4333],[57.5,4421],[58.9,4502],[60.6,4586],[62.2,4665],[64.9,4748],[67.3,4831],[68.1,4911],[68.8,4986],[69.2,5062],[69.6,5139],[70,5216],[70.4,5289],[70.8,5368],[71,5442],[71,5524],[71,5598],[71,5671],[71,5745],[71,5819],[71,5891],[71,5967],[71,6039],[71,6123],[71,6203],[71,6275],[71,6357],[71,6423],[71,6516],[71,6586],[71,6679],[71,6767],[71,6844],[71,6923],[71,7014],[71,7103],[71,7187],[71,7265],[71,7341],[71,7409],[71,7488],[71,7560],[71,7640],[71,7718],[71,7794],[71,7867],[71,7952],[71,8040],[71,8123],[71,8195],[71,8272],[71,8347],[71,8423],[71,8507],[71,8582],[71,8656],[71,8719],[71,8798]]",1,0,760.478,763.29,74.47089947,2.154,"[{""rating"":74.47089947089947,""responseTime"":2.1539999999999964}]",space,2.284,,763.291,Partially,50,763.308,,,[],,0,8,8,8,1,audio/Narrative7Situation8.wav,audio/Narrative8Situation8.wav,audio/Narrative5Situation8.wav,audio/Narrative6Situation8.wav,2,3,3,5,,,,,,,,,,,,,,,,,,,,,,,,,,,,,,,,,,,,,,,
,,,,,,65a3f00d93a00fa46c03f402,2024-02-08_12h33.51.983,group3.1-3.2-social-tom,2023.2.2,MacIntel,62.5,65c5074098b851296ff0b7ed,65c5106734a2d1565b94e2d4,,,,,,,,,,,,,,,,,,,,,,,,,,,,,763.308,2,audio/Narrative5Situation9.wav,766.322,,766.322,805.875,"[[74.1,453],[69.2,532],[66.3,615],[64.8,698],[63.9,779],[62.7,860],[62.3,943],[62,1020],[61.6,1105],[61.4,1182],[61.2,1261],[61.2,1340],[61.2,1413],[61.2,1504],[61.2,1576],[61.2,1650],[61.2,1736],[61.2,1825],[61.2,1907],[61.2,1980],[61.2,2060],[61.2,2136],[61.2,2211],[61.2,2285],[61.2,2362],[61.2,2438],[61.2,2514],[61.2,2586],[61.2,2658],[61.2,2735],[61.2,2817],[61.2,2886],[61.2,2967],[61.2,3043],[61.2,3126],[61.2,3216],[61.2,3298],[61.2,3371],[61.2,3456],[61.2,3535],[61.2,3614],[60.8,3698],[60.8,3778],[60.8,3856],[60.8,3935],[60.8,4014],[60.8,4088],[60.8,4164],[60.8,4236],[60.8,4312],[60.8,4398],[60.8,4475],[60.8,4549],[60.8,4626],[60.8,4693],[60.8,4769],[60.8,4843],[60.8,4928],[60.8,5010],[60.8,5086],[60.8,5172],[60.8,5244],[60.8,5321],[60.8,5398],[60.8,5479],[60.8,5548],[60.8,5635],[60.8,5716],[60.8,5792],[60.8,5874],[60.8,5945],[59.1,6023],[54.4,6105],[47.1,6676],[48,6756],[48.4,6846],[48.5,6923],[48.5,7001],[48.5,7088],[48.5,7168],[48.5,7249],[48.5,7318],[48.5,7397],[48.5,7476],[48.5,7554],[48.5,7635],[48.5,7715],[48.5,7783],[48.5,7869],[48.5,7952],[48.5,8035],[48.4,8116],[48.1,8197],[48,8273],[47.8,8345],[47.6,8421],[47.5,8495],[47.5,8576],[47.4,8653],[47.4,8727],[47.4,8807],[47.4,8883],[47.4,8961],[47.4,9038],[47.4,9111],[47.4,9189],[47.4,9263],[47.4,9336],[47.4,9408],[47.4,9485],[47.4,9572],[47.4,9653],[47.4,9735],[47.4,9818],[47.4,9894],[47.4,9971],[47.4,10048],[47.4,10129],[47.4,10203],[47.4,10282],[47.4,10355],[47.4,10429],[47.4,10511],[47.4,10586],[47.4,10655],[47.4,10730],[47.4,10807],[47.4,10880],[47.4,10971],[47.4,11051],[47.4,11130],[47.4,11211],[47.4,11294],[47.4,11384],[47.4,11456],[47.4,11538],[47.4,11610],[47.4,11695],[47.4,11765],[47.4,11836],[47.4,11918],[47.4,11996],[47.4,12066],[47.4,12138],[47.4,12221],[47.4,12301],[47.4,12375],[47.4,12453],[47.4,12534],[47.4,12609],[47.4,12685],[47.4,12760],[47.4,12838],[47.4,12922],[47.4,13003],[47.4,13072],[46.8,13148],[45.9,13230],[44.7,13307],[43.4,13391],[42.3,13471],[41,13549],[39.7,13633],[38.5,13716],[37.6,13801],[37,13879],[36.8,13956],[36.5,14033],[36.2,14117],[36,14196],[35.7,14278],[35.7,14362],[35.7,14443],[35.7,14524],[35.7,14611],[35.7,14692],[35.7,14774],[35.7,14861],[35.7,14943],[35.7,15027],[35.7,15092],[35.7,15174],[35.7,15255],[35.7,15326],[35.7,15423],[35.7,15505],[35.7,15581],[35.7,15654],[35.7,15737],[35.7,15820],[35.7,15898],[35.7,15982],[35.7,16062],[35.7,16131],[35.7,16218],[35.7,16298],[35.7,16376],[35.7,16458],[35.7,16528],[35.7,16602],[35.7,16676],[35.7,16750],[35.7,16828],[35.7,16899],[35.7,16976],[35.7,17059],[35.7,17134],[35.7,17212],[35.7,17288],[35.7,17360],[35.7,17434],[35.7,17508],[35.7,17580],[35.7,17658],[35.7,17744],[35.7,17813],[35.7,17897],[35.7,17968],[35.7,18047],[35.7,18120],[35.7,18203],[35.7,18275],[35.7,18350],[35.7,18427],[35.7,18509],[35.7,18582],[35.7,18658],[35.7,18730],[35.7,18810],[35.7,18883],[35.7,18960],[35.2,19040],[35.8,19120],[37.2,19202],[37.7,19286],[37.8,19360],[37.8,19435],[37.8,19514],[37.8,19596],[37.8,19687],[37.7,19760],[37.6,19837],[37.4,19918],[37.3,19991],[37.2,20068],[37.2,20147],[37.2,20217],[37.2,20293],[37.2,20370],[37.2,20452],[37.2,20524],[37.2,20599],[37.2,20673],[37.2,20753],[37.2,20827],[37.2,20908],[37.2,20981],[37.2,21056],[37.2,21134],[37.2,21207],[37.2,21289],[37.2,21369],[37.2,21443],[37.2,21518],[37.2,21596],[37.2,21677],[37.2,21751],[37.2,21826],[37.2,21913],[37.2,21991],[37.2,22075],[37.2,22158],[37.2,22241],[37.2,22325],[37.2,22408],[37.2,22491],[37.2,22576],[37.2,22658],[37.2,22741],[37.2,22826],[37.2,22908],[37.2,22991],[37.2,23076],[37.2,23158],[37.2,23241],[37.2,23326],[37.2,23408],[37.2,23492],[37.2,23576],[37.2,23652],[37.2,23726],[37.2,23798],[37.2,23875],[37.2,23950],[37.2,24032],[37.2,24101],[37.2,24176],[37.2,24258],[37.2,24328],[37.2,24404],[37.2,24484],[37.2,24552],[37.2,24649],[37.2,24731],[37.2,24813],[37.2,24884],[37.2,24962],[37.2,25035],[37.2,25112],[37.2,25197],[37.2,25277],[37.2,25350],[37.2,25421],[37.2,25500],[37.2,25577],[37.2,25649],[37.2,25727],[37.2,25802],[37.2,25870],[37.2,25946],[37.2,26020],[37.2,26102],[37.2,26177],[37.2,26248],[37.2,26327],[37.2,26403],[37.2,26482],[37.2,26552],[37.2,26631],[37.2,26715],[37.2,26789],[37.2,26873],[37.2,26948],[37.2,27032],[37.2,27104],[37.2,27184],[37.2,27264],[37.2,27349],[37.2,27422],[37.2,27506],[37.2,27585],[37.2,27658],[37.2,27735],[37.2,27807],[37.2,27884],[37.2,27956],[37.2,28036],[37.2,28120],[37.2,28197],[37.2,28278],[37.2,28360],[37.2,28434],[37.2,28518],[37.2,28601],[37.2,28684],[37.2,28768],[37.2,28851],[37.2,28934],[37.2,29018],[37.2,29096],[37.2,29179],[37.2,29264],[37.2,29346],[37.2,29431],[37.2,29514],[37.2,29597],[37.2,29681],[37.2,29764],[37.2,29847],[37.2,29931],[37.2,30014],[37.2,30097],[37.2,30181],[37.2,30264],[37.2,30347],[37.2,30431],[37.2,30514],[37.2,30597],[37.2,30681],[37.2,30764],[37.2,30847],[37.2,30931],[37.2,31014],[37.2,31097],[37.2,31181],[37.2,31264],[37.2,31347],[37.2,31431],[37.2,31514],[37.2,31597],[37.2,31681],[37.2,31764],[37.2,31847],[37.2,31931],[37.2,32014],[37.2,32097],[37.2,32181],[37.2,32264],[37.2,32347],[37.2,32431],[37.2,32514],[37.2,32597],[37.2,32681],[37.2,32764],[37.2,32847],[37.2,32931],[37.2,33014],[37.2,33096],[37.2,33181],[37.2,33264],[37.2,33347],[37.2,33431],[37.2,33514],[37.2,33597],[37.2,33681],[37.2,33764],[37.2,33847],[37.2,33931],[37.2,34014],[37.2,34097],[37.2,34179],[37.2,34264],[37.2,34347],[37.2,34431],[37.2,34514],[37.2,34597],[37.2,34681],[37.2,34764],[37.2,34847],[37.2,34931],[37.2,35014],[37.2,35096],[37.2,35181],[37.2,35264],[37.2,35347],[37.2,35431],[37.2,35514],[37.2,35597],[37.2,35681],[37.2,35764],[37.2,35847],[37.2,35931],[37.2,36014],[37.2,36097],[37.2,36181],[37.2,36264],[37.2,36347],[37.2,36431],[37.2,36514],[37.2,36597],[37.2,36681],[37.2,36768],[37.2,36851],[37.2,36935],[37.2,37019],[37.2,37101],[37.2,37184],[37.2,37269],[37.2,37351],[37.2,37434],[37.2,37519],[37.2,37601],[37.2,37684],[37.2,37769],[37.2,37851],[39.4,37934],[43.5,38018],[46.3,38101],[47.5,38184],[47.8,38269],[47.8,38351],[47.8,38434],[47.8,38519],[47.8,38601],[47.8,38684],[47.8,38769],[47.8,38851],[47.8,38934],[47.8,39019],[47.8,39101],[47.8,39184],[47.8,39269],[47.8,39351],[47.8,39434],[47.8,39501]]",1,0,805.876,808.975,46.16402116,2.897,"[{""rating"":46.164021164021165,""responseTime"":2.897000000000048}]",space,2.559,,808.975,Not at all,0,808.995,,,[],,0,9,9,9,1,audio/Narrative7Situation9.wav,audio/Narrative8Situation9.wav,audio/Narrative5Situation9.wav,audio/Narrative6Situation9.wav,2,3,3,4,,,,,,,,,,,,,,,,,,,,,,,,,,,,,,,,,,,,,,,
,,,,,,65a3f00d93a00fa46c03f402,2024-02-08_12h33.51.983,group3.1-3.2-social-tom,2023.2.2,MacIntel,62.5,65c5074098b851296ff0b7ed,65c5106734a2d1565b94e2d4,,,,,,,,,,,,,,,,,,,,,,,,,,,,,808.995,2,audio/Narrative6Situation1.wav,810.999,,811,837.582,"[[46.8,5519],[48.8,5602],[53,5686],[55.4,5769],[57.8,5854],[60.4,5936],[62.4,6019],[62.7,6101],[62.7,6186],[62.7,6269],[62.7,6352],[62.7,6436],[62.7,6519],[62.7,6602],[62.7,6687],[62.7,6769],[62.7,6852],[62.7,6936],[62.7,7019],[62.7,7102],[62.7,7183],[62.7,7257],[62.7,7336],[62.7,7416],[62.7,7498],[62.7,7581],[62.7,7666],[62.7,7749],[62.7,7831],[62.7,7916],[62.7,7999],[62.7,8081],[62.7,8166],[62.7,8249],[62.7,8331],[62.7,8416],[62.7,8499],[62.7,8581],[62.7,8666],[62.7,8749],[62.7,8831],[62.7,8916],[62.7,8999],[62.7,9081],[62.7,9166],[62.7,9249],[62.7,9331],[62.7,9416],[62.7,9498],[62.7,9581],[62.7,9666],[62.7,9749],[62.7,9831],[62.7,9916],[62.7,9999],[62.7,10081],[62.7,10164],[62.7,10249],[62.7,10331],[62.7,10416],[62.7,10499],[62.7,10581],[62.7,10666],[62.7,10749],[62.7,10831],[62.7,10916],[62.7,10999],[62.7,11081],[62.7,11166],[62.7,11249],[62.7,11331],[62.7,11416],[62.7,11499],[62.7,11581],[62.7,11666],[62.7,11749],[62.7,11831],[62.7,11916],[62.7,11999],[62.7,12081],[62.7,12166],[62.7,12249],[62.7,12331],[62.7,12416],[62.7,12499],[62.7,12581],[62.7,12666],[62.7,12749],[62.7,12831],[62.7,12916],[62.7,12999],[62.7,13081],[62.7,13164],[62.7,13249],[63.6,13331],[67.2,13416],[68.9,13499],[70.6,13581],[71.8,13666],[72.8,13749],[72.9,13831],[72.9,13916],[72.9,13999],[72.9,14081],[72.9,14166],[72.9,14249],[72.9,14331],[72.9,14416],[72.9,14499],[72.9,14581],[72.9,14664],[72.9,14749],[72.9,14831],[72.9,14913],[72.9,14987],[72.9,15066],[72.9,15144],[72.9,15220],[72.9,15296],[72.9,15370],[72.9,15448],[72.9,15528],[72.9,15612],[72.9,15695],[72.9,15774],[72.9,15862],[72.9,15934],[72.9,16010],[72.9,16094],[72.9,16177],[72.9,16260],[72.9,16342],[72.9,16427],[72.9,16510],[72.9,16595],[72.9,16677],[72.9,16760],[72.9,16844],[72.9,16927],[72.9,17010],[72.9,17095],[72.9,17177],[72.9,17260],[72.9,17345],[72.9,17427],[72.9,17510],[72.9,17595],[72.9,17677],[72.9,17760],[72.8,17845],[72,17927],[71.4,18010],[71.2,18095],[70.8,18177],[70.6,18260],[70.6,18345],[70.6,18427],[70.6,18510],[70.6,18595],[70.6,18677],[70.6,18760],[70.6,18845],[70.6,18927],[70.6,19010],[70.6,19095],[70.6,19177],[70.6,19260],[70.6,19345],[70.6,19427],[70.6,19510],[70.6,19595],[70.6,19677],[70.6,19760],[70.6,19845],[70.6,19927],[70.6,20010],[70.6,20095],[70.6,20177],[70.6,20260],[70.6,20345],[70.6,20427],[70.6,20510],[70.6,20595],[70.6,20677],[70.6,20760],[70.6,20844],[70.6,20927],[70.6,21010],[70.6,21095],[70.6,21177],[70.6,21260],[70.6,21345],[70.6,21427],[70.6,21510],[70.6,21595],[70.6,21677],[70.6,21761],[70.6,21845],[70.6,21927],[70.6,22010],[70.6,22095],[70.6,22177],[70.6,22260],[70.6,22345],[70.6,22427],[70.6,22510],[70.6,22591],[70.6,22673],[70.6,22750],[70.6,22832],[70.6,22903],[70.6,22981],[70.6,23058],[70.6,23134],[70.6,23215],[70.6,23288],[70.6,23357],[70.6,23436],[70.6,23511],[70.6,23586],[70.6,23668],[70.5,23748],[70.2,23831],[69.4,23914],[66.9,23998],[65.2,24081],[64.7,24164],[64.4,24248],[64.3,24331],[64.3,24414],[64.3,24498],[64.3,24581],[64.3,24664],[64.3,24749],[64.3,24831],[64.3,24914],[64.3,24999],[64.3,25081],[64.3,25164],[64.3,25249],[64.3,25331],[64.3,25414],[64.3,25499],[64.3,25581],[64.3,25663],[64.3,25749],[64.3,25831],[64.3,25916],[64.3,25998],[64.3,26081],[64.3,26164],[64.3,26249],[64.3,26331],[64.3,26414],[64.3,26481],[64.3,26564]]",1,0,837.583,839.403,69.97354497,1.268,"[{""rating"":69.97354497354497,""responseTime"":1.268000000000029}]",space,1.286,,839.403,Partially,50,839.421,,,[],,0,10,10,10,1,audio/Narrative8Situation1.wav,audio/Narrative7Situation1.wav,audio/Narrative6Situation1.wav,audio/Narrative5Situation1.wav,5,2,2,5,,,,,,,,,,,,,,,,,,,,,,,,,,,,,,,,,,,,,,,
