exp_question,consent.started,consent.stopped,consentResponse.keys,consentResponse.rt,consentResponse.duration,participantID,date,expName,psychopyVersion,OS,frameRate,STUDY_ID,SESSION_ID,opening1.started,opening1.stopped,keyEndingOpening1.keys,keyEndingOpening1.rt,keyEndingOpening1.duration,volumeAdjust.started,volumeAdjust.stopped,endingAdjust.keys,endingAdjust.rt,endingAdjust.duration,opening2.started,opening2.stopped,keyEndingOpening.keys,keyEndingOpening.rt,keyEndingOpening.duration,mouse.x,mouse.y,mouse.leftButton,mouse.midButton,mouse.rightButton,mouse.time,instructionLoop.thisRepN,instructionLoop.thisTrialN,instructionLoop.thisN,instructionLoop.thisIndex,instructionLoop.ran,readyForAudio.started,readyForAudio.stopped,fixation.started,run,audio_played,fixation.stopped,endPractice.keys,audioPre.started,audioPre.stopped,continuousResponses_audio,continuousSlider.response,continuousSlider.rt,intRating.started,intRating.stopped,intQuestionSlider.response,intQuestionSlider.rt,intQuestionSlider.history,confirmResponse.keys,confirmResponse.rt,confirmResponse.duration,catchQuestion.started,catch_label,catch_value,catchQuestion.stopped,catchQuestionSlider.response,catchQuestionSlider.rt,catchQuestionSlider.history,confirmResponse_2.keys,audioRunLoop.thisRepN,audioRunLoop.thisTrialN,audioRunLoop.thisN,audioRunLoop.thisIndex,audioRunLoop.ran,conditions1_1,conditions2_1,conditions1_2,conditions2_2,dur1_1,dur2_1,dur1_2,dur2_2,endPractice.rt,endPractice.duration,confirmResponse_2.rt,confirmResponse_2.duration,runIntervalBreak.started,runIntervalBreak.stopped,endingBreakKey.keys,endingBreakKey.rt,endingBreakKey.duration,connection.started,connection.stopped,connectionEnding.keys,connectionEnding.rt,connectionEnding.duration,readyForText.started,readyForText.stopped,textPre.started,run_dup,textPre.stopped,continuousResponses_text,textRunLoop.thisRepN,textRunLoop.thisTrialN,textRunLoop.thisN,textRunLoop.thisIndex,textRunLoop.ran,text1_1,text1_2,text2_1,text2_2,runBreakText.started,runBreakText.stopped,endingBreakKey_2.keys,endingBreakKey_2.rt,endingBreakKey_2.duration,ending.started,ending.stopped,endingEnding.keys,endingEnding.rt,endingEnding.duration
tom,1E-04,28.8663,y,28.4737,,65ad7ed5d0b12af4dfa05d75,2024-02-08_07h57.01.319,group3.1-3.2-social-tom,2023.2.2,Win32,20.57613169,65c5074098b851296ff0b7ed,65c515d4cc649ae8122ee593,,,,,,,,,,,,,,,,,,,,,,,,,,,,,,,,,,,,,,,,,,,,,,,,,,,,,,,,,,,,,,,,,,,,,,,,,,,,,,,,,,,,,,,,,,,,,,,,,,,,,,,,,,
,,,,,,65ad7ed5d0b12af4dfa05d75,2024-02-08_07h57.01.319,group3.1-3.2-social-tom,2023.2.2,Win32,20.57613169,65c5074098b851296ff0b7ed,65c515d4cc649ae8122ee593,28.8665,35.5326,space,6.6055,,,,,,,,,,,,,,,,,,,,,,,,,,,,,,,,,,,,,,,,,,,,,,,,,,,,,,,,,,,,,,,,,,,,,,,,,,,,,,,,,,,,,,,,,,,,,,,,,,,,,,
,,,,,,65ad7ed5d0b12af4dfa05d75,2024-02-08_07h57.01.319,group3.1-3.2-social-tom,2023.2.2,Win32,20.57613169,65c5074098b851296ff0b7ed,65c515d4cc649ae8122ee593,,,,,,35.5326,50.9462,space,15.0511,,,,,,,,,,,,,,,,,,,,,,,,,,,,,,,,,,,,,,,,,,,,,,,,,,,,,,,,,,,,,,,,,,,,,,,,,,,,,,,,,,,,,,,,,,,,,,,,,
,,,,,,65ad7ed5d0b12af4dfa05d75,2024-02-08_07h57.01.319,group3.1-3.2-social-tom,2023.2.2,Win32,20.57613169,65c5074098b851296ff0b7ed,65c515d4cc649ae8122ee593,,,,,,,,,,,50.9527,62.7329,space,11.7255,,[],[],[],[],[],[],0,0,0,0,1,,,,,,,,,,,,,,,,,,,,,,,,,,,,,,,,,,,,,,,,,,,,,,,,,,,,,,,,,,,,,,,,,,,,,,,,,,,,,,,,
,,,,,,65ad7ed5d0b12af4dfa05d75,2024-02-08_07h57.01.319,group3.1-3.2-social-tom,2023.2.2,Win32,20.57613169,65c5074098b851296ff0b7ed,65c515d4cc649ae8122ee593,,,,,,,,,,,62.7377,96.8173,space,33.9848,,[],[],[],[],[],[],1,0,1,0,1,,,,,,,,,,,,,,,,,,,,,,,,,,,,,,,,,,,,,,,,,,,,,,,,,,,,,,,,,,,,,,,,,,,,,,,,,,,,,,,,
,,,,,,65ad7ed5d0b12af4dfa05d75,2024-02-08_07h57.01.319,group3.1-3.2-social-tom,2023.2.2,Win32,20.57613169,65c5074098b851296ff0b7ed,65c515d4cc649ae8122ee593,,,,,,,,,,,96.8217,120.2556,space,23.3592,,[],[],[],[],[],[],2,0,2,0,1,,,,,,,,,,,,,,,,,,,,,,,,,,,,,,,,,,,,,,,,,,,,,,,,,,,,,,,,,,,,,,,,,,,,,,,,,,,,,,,,
,,,,,,65ad7ed5d0b12af4dfa05d75,2024-02-08_07h57.01.319,group3.1-3.2-social-tom,2023.2.2,Win32,20.57613169,65c5074098b851296ff0b7ed,65c515d4cc649ae8122ee593,,,,,,,,,,,120.2602,142.5861,space,22.2643,,[],[],[],[],[],[],3,0,3,0,1,,,,,,,,,,,,,,,,,,,,,,,,,,,,,,,,,,,,,,,,,,,,,,,,,,,,,,,,,,,,,,,,,,,,,,,,,,,,,,,,
,,,,,,65ad7ed5d0b12af4dfa05d75,2024-02-08_07h57.01.319,group3.1-3.2-social-tom,2023.2.2,Win32,20.57613169,65c5074098b851296ff0b7ed,65c515d4cc649ae8122ee593,,,,,,,,,,,142.5908,161.9859,space,19.3359,,[],[],[],[],[],[],4,0,4,0,1,,,,,,,,,,,,,,,,,,,,,,,,,,,,,,,,,,,,,,,,,,,,,,,,,,,,,,,,,,,,,,,,,,,,,,,,,,,,,,,,
,,,,,,65ad7ed5d0b12af4dfa05d75,2024-02-08_07h57.01.319,group3.1-3.2-social-tom,2023.2.2,Win32,20.57613169,65c5074098b851296ff0b7ed,65c515d4cc649ae8122ee593,,,,,,,,,,,,,,,,,,,,,,,,,,,161.9914,164.5666,164.5773,1,audio/Narrative13Situation2.wav,166.5864,,166.5866,196.3824,"[[999,0],[999,113],[999,217],[999,322],[999,426],[999,533],[52.8,638],[54.2,749],[54.8,884],[54.8,1011],[53.8,1122],[52.5,1227],[51.9,1340],[51.5,1445],[50.1,1555],[48.8,1661],[48.1,1769],[48.1,1873],[48.1,1977],[48.1,2086],[48.1,2192],[48.1,2298],[47.6,2404],[37.6,2511],[35.7,2617],[35.7,2722],[35.7,2834],[35.7,2940],[35.7,3045],[35.7,3149],[35.7,3252],[35.7,3358],[36.1,3465],[47.6,3578],[50.5,3683],[50.6,3788],[50.6,3892],[50.6,3996],[50.6,4101],[50.6,4205],[50.8,4314],[51.4,4420],[51.9,4527],[51.9,4639],[52.1,4745],[53.4,4851],[53.6,4957],[53.6,5061],[53.6,5173],[53.6,5279],[53.6,5384],[54,5488],[54.1,5593],[54.1,5698],[54.1,5803],[54.1,5908],[54.1,6013],[54.1,6120],[54.1,6228],[54.3,6336],[54.3,6441],[54.3,6545],[54.3,6649],[54.3,6754],[54.3,6860],[54.3,6970],[54.3,7079],[54.3,7183],[54.3,7288],[54.3,7393],[54.3,7497],[54.3,7602],[54.3,7706],[54.2,7820],[54.1,7925],[53.9,8030],[52.8,8135],[52.7,8241],[50.4,8352],[44.9,8458],[44.1,8563],[42.4,8668],[38,8775],[35.7,8880],[35.7,8986],[35.3,9091],[33.9,9197],[33.6,9304],[33,9409],[32.6,9515],[32,9630],[31.8,9734],[31.8,9841],[31.3,9947],[31.3,10058],[31.3,10162],[31.3,10267],[31.3,10378],[31.3,10486],[31.3,10590],[31.3,10703],[31.3,10809],[31.3,10913],[31.3,11022],[31.3,11129],[31.3,11238],[31.3,11346],[31.3,11453],[31.3,11557],[31.3,11663],[31.3,11767],[31.3,11870],[31.3,11980],[31.3,12098],[31.3,12227],[31.3,12337],[31.3,12444],[31.3,12549],[31.3,12654],[31.3,12758],[31.3,12866],[31.3,12971],[31.3,13076],[31.3,13183],[31.3,13295],[31.3,13405],[31.3,13509],[31.3,13614],[31.3,13722],[31.3,13830],[31.3,13936],[31.3,14040],[31.3,14144],[31.3,14249],[31.3,14358],[31.3,14464],[31.3,14569],[31.3,14674],[31.3,14779],[31.3,14884],[31.3,14995],[31.3,15098],[31.3,15203],[31.3,15308],[31.3,15413],[31.3,15518],[31.3,15622],[31.3,15727],[31.3,15836],[31.3,15939],[31.3,16048],[31.3,16152],[31.3,16263],[31.3,16367],[31.3,16471],[31.3,16575],[31.3,16682],[31.3,16787],[31.3,16895],[31.3,17006],[31.3,17112],[31.3,17221],[31.3,17328],[31.3,17435],[31.3,17539],[31.3,17649],[31.3,17752],[31.3,17858],[31.3,17965],[31.3,18070],[31.3,18181],[30.9,18286],[30.4,18398],[29.2,18502],[27.9,18608],[27.4,18717],[27.4,18827],[27.4,18937],[27.4,19040],[27.4,19146],[27.4,19250],[27.4,19358],[27.4,19463],[27.4,19568],[27.4,19672],[27.4,19780],[27.4,19884],[27.4,19992],[27.4,20096],[27.4,20201],[27.4,20304],[27.4,20409],[27.4,20513],[27.4,20618],[27.4,20723],[27.4,20835],[27.4,20939],[27.4,21042],[27.4,21145],[27.4,21251],[27.4,21360],[27.4,21465],[27.4,21570],[27.4,21676],[27.4,21779],[27.4,21884],[27.4,21988],[27.4,22092],[27.4,22197],[29.1,22306],[32.2,22417],[40.2,22522],[60.6,23298],[60.5,23404],[61.6,23510],[62.7,23618],[62.8,23724],[62.8,23828],[62.8,23937],[62.8,24041],[62.9,24146],[62.9,24250],[63.2,24357],[63.3,24462],[63.8,24568],[64.1,24675],[64.4,24782],[64.4,24886],[64.4,24991],[64.4,25095],[64.4,25199],[64.4,25304],[64.4,25411],[64.4,25518],[64.4,25620],[64.6,25726],[67.4,25833],[67.4,25938],[70.5,26054],[72,26161],[72.1,26266],[72.1,26371],[72.1,26481],[72.1,26585],[72.7,26689],[73.4,26799],[73.8,26904],[74.4,27013],[74.8,27129],[75.1,27236],[75.5,27343],[75.5,27451],[75.5,27556],[75.6,27660],[75.7,27766],[75.7,27876],[76.1,27980],[76.1,28088],[76.1,28192],[76.1,28298],[76.1,28411],[76.1,28516],[76.1,28621],[76.1,28726],[76.1,28839],[76.1,28943],[76.1,29047],[76.1,29153],[76.1,29258],[76.1,29362],[76.1,29473],[76.1,29584],[76.1,29690],[76.1,29795]]",1,0,196.3825,205.0149,42.60416667,5.1083,"[{""rating"":42.604166666666664,""responseTime"":5.108300000011923}]",space,8.0188,,205.0151,All the time,100,205.0172,,,[],,0,0,0,0,1,audio/Narrative13Situation2.wav,audio/Narrative13Situation2.wav,audio/Narrative13Situation2.wav,audio/Narrative13Situation2.wav,2,2,2,2,,,,,,,,,,,,,,,,,,,,,,,,,,,,,,,,,,,,,,,
,,,,,,65ad7ed5d0b12af4dfa05d75,2024-02-08_07h57.01.319,group3.1-3.2-social-tom,2023.2.2,Win32,20.57613169,65c5074098b851296ff0b7ed,65c515d4cc649ae8122ee593,,,,,,,,,,,,,,,,,,,,,,,,,,,,,205.0174,1,audio/Narrative8Situation1.wav,207.3541,space,207.3542,223.3742,"[[999,0],[999,104],[999,208],[999,313],[999,415],[999,517],[999,619],[999,723],[999,826],[999,928],[999,1033],[999,1141],[999,1242],[999,1362],[999,1493],[999,1599],[60.9,1707],[60.9,1811],[60.9,1914],[60.9,2018],[60.9,2139],[60.9,2242],[60.9,2344],[60.9,2450],[60.9,2553],[60.8,2656],[58,2762],[55.7,2866],[53.3,2974],[52,3077],[51.6,3181],[50.7,3285],[50.3,3395],[50.3,3497],[50,3600],[49.7,3703],[49.4,3806],[49.2,3909],[49.2,4015],[49.2,4119],[49.2,4221],[49.2,4324],[49.2,4427],[49.2,4530],[49.2,4633],[49.2,4736],[49.2,4843],[48.4,4947],[47.8,5056],[47.8,5159],[47.8,5261],[47.8,5372],[47.8,5476],[47.8,5579],[47.8,5687],[47.8,5789],[47.8,5892],[47.8,6005],[47.8,6130],[46.6,6234],[45,6337],[42.3,6448],[40.7,6552],[39.7,6655],[39,6765],[38.5,6878],[38,6987],[37.2,7093],[36.7,7201],[35.9,7304],[35.7,7410],[35.7,7515],[35.7,7624],[35.7,7725],[35.7,7827],[35.7,7936],[35.7,8038],[35.7,8140],[35.7,8244],[35.7,8348],[35.7,8458],[35.7,8564],[35.7,8667],[35.7,8770],[35.7,8872],[35.7,8974],[35.7,9085],[35.7,9191],[35.7,9300],[35.7,9405],[35.7,9507],[35.7,9609],[35.7,9712],[35.6,9816],[35.4,9919],[35.1,10023],[35.1,10126],[35,10235],[34.9,10337],[34.7,10452],[34.7,10564],[34.7,10674],[34.7,10779],[34.7,10882],[34.7,10987],[34.7,11089],[34.7,11193],[34.7,11295],[34.7,11401],[34.7,11504],[34.7,11607],[34.7,11711],[34.7,11816],[34.7,11918],[34.7,12024],[34.7,12126],[34.7,12229],[34.7,12332],[34.7,12436],[34.7,12537],[34.7,12640],[34.7,12743],[34.7,12846],[34.7,12949],[34.7,13064],[34.7,13168],[34.7,13272],[34.7,13375],[34.7,13480],[34.7,13582],[34.7,13684],[34.7,13792],[34.7,13894],[34.7,14004],[34.7,14107],[36.5,14210],[42.1,14319],[45.3,14427],[49.4,14536],[52.6,14640],[53.5,14746],[55.8,14858],[57.3,14971],[57.3,15073],[57.3,15178],[57.3,15284],[57.5,15387],[57.8,15490],[58.5,15596],[59,15700],[59.4,15803],[59.8,15910],[60.1,16019]]",1,0,223.3743,230.1009,47.39583333,5.1059,"[{""rating"":47.39583333333333,""responseTime"":5.105900000035774}]",space,6.0732,,230.1009,Half the time,50,230.1023,,,[],,0,1,1,1,1,audio/Narrative7Situation1.wav,audio/Narrative8Situation1.wav,audio/Narrative5Situation1.wav,audio/Narrative6Situation1.wav,2,5,5,2,2.2864,,,,,,,,,,,,,,,,,,,,,,,,,,,,,,,,,,,,,,
,,,,,,65ad7ed5d0b12af4dfa05d75,2024-02-08_07h57.01.319,group3.1-3.2-social-tom,2023.2.2,Win32,20.57613169,65c5074098b851296ff0b7ed,65c515d4cc649ae8122ee593,,,,,,,,,,,,,,,,,,,,,,,,,,,,,230.1024,1,audio/Narrative8Situation2.wav,233.1318,,233.1318,243.2944,"[[999,4],[999,106],[999,208],[999,313],[63,518],[62.9,624],[59.3,735],[54.5,840],[52.7,943],[52,1048],[50.8,1151],[49.5,1262],[49.4,1364],[49.4,1467],[49.4,1570],[49.4,1678],[49.4,1780],[49.4,1883],[49.4,1986],[49.4,2091],[49.4,2195],[49.4,2298],[49.4,2399],[49.4,2502],[49.4,2610],[49.4,2713],[49.4,2822],[49.4,2926],[49.4,3034],[49.4,3135],[49.4,3238],[49.4,3340],[49.4,3447],[49.4,3549],[51.6,3654],[52.6,3758],[52.8,3860],[57.1,3971],[58.9,4075],[58.9,4178],[58.9,4282],[58.9,4385],[58.9,4491],[58.9,4593],[58.9,4697],[58.8,4801],[58.1,4909],[58.1,5018],[58.1,5121],[58.1,5224],[58.1,5328],[58.1,5430],[58.1,5545],[58.1,5664],[58.1,5768],[58.1,5870],[58.1,5973],[58.1,6076],[58.1,6179],[58.1,6291],[59.3,6403],[60.9,6507],[62.2,6607],[63.4,6712],[64.7,6818],[65.2,6924],[65.5,7030],[65.6,7133],[65.7,7235],[65.7,7339],[66.9,7442],[67,7545],[67,7654],[67,7757],[67,7862],[67,7965],[67,8068],[67,8170],[67,8282],[67,8384],[67,8486],[67,8589],[67,8698],[67,8798],[67,8900],[67,9004],[67,9115],[67,9217],[67,9328],[67,9432],[67,9534],[67,9641],[67,9744],[67,9850],[67,9956],[67,10060],[67,10162]]",1,0,243.2945,246.1683,61.66666667,1.9851,"[{""rating"":61.66666666666667,""responseTime"":1.9851000000238628}]",space,2.2621,,246.1683,Half the time,50,251.0065,49.89583333,3.9448,"[{""rating"":49.895833333333336,""responseTime"":3.9448000000119237}]",space,0,2,2,2,1,audio/Narrative7Situation2.wav,audio/Narrative8Situation2.wav,audio/Narrative5Situation2.wav,audio/Narrative6Situation2.wav,3,3,3,3,,,4.1793,,,,,,,,,,,,,,,,,,,,,,,,,,,,,,,,,,,,
,,,,,,65ad7ed5d0b12af4dfa05d75,2024-02-08_07h57.01.319,group3.1-3.2-social-tom,2023.2.2,Win32,20.57613169,65c5074098b851296ff0b7ed,65c515d4cc649ae8122ee593,,,,,,,,,,,,,,,,,,,,,,,,,,,,,251.0067,1,audio/Narrative8Situation3.wav,255.0412,,255.0412,277.5101,"[[53.3,108],[51.9,211],[51.5,321],[49.7,428],[49.7,538],[49.7,644],[49.7,759],[49.7,863],[49.7,965],[49.7,1070],[49.7,1171],[49.7,1277],[49.7,1383],[49.7,1485],[49.7,1595],[49.7,1697],[49.7,1800],[49.7,1907],[49.8,2014],[50,2117],[50.1,2224],[50.2,2327],[50.3,2430],[50.3,2533],[50.3,2637],[50.3,2747],[50.3,2851],[50.3,2953],[50.3,3056],[50.3,3159],[50.3,3266],[50.3,3372],[52.7,3480],[60.6,3584],[60.6,3688],[60.6,3794],[60.6,3899],[60.8,4001],[64.5,4105],[66.4,4210],[66.4,4313],[67.2,4426],[69.5,4529],[72,4635],[73.3,4743],[74.6,4846],[74.9,4950],[75,5052],[75.9,5158],[75.9,5261],[75.9,5362],[75.9,5467],[75.9,5570],[75.9,5674],[75.9,5777],[75.9,5879],[75.9,5989],[75.9,6096],[75.9,6198],[75.9,6303],[75.9,6412],[75.9,6515],[75.9,6619],[75.9,6723],[75.9,6825],[75.9,6931],[75.9,7039],[75.9,7149],[75.9,7254],[75.9,7364],[75.9,7467],[75.9,7569],[75.9,7674],[75.8,7782],[75.5,7888],[75.5,7991],[75.4,8102],[75.4,8209],[75.4,8313],[75.4,8416],[75.4,8519],[75.4,8622],[75.4,8724],[75.4,8827],[75.4,8936],[75.4,9035],[75.4,9147],[75.4,9250],[75.4,9352],[75.4,9455],[75.4,9560],[75.4,9668],[75.4,9770],[75.4,9873],[75.4,9975],[75.4,10078],[75.4,10181],[72.5,10285],[69.6,10389],[68,10493],[65.6,10598],[63.5,10704],[61.4,10807],[59.6,10915],[58.8,11018],[58.2,11123],[58,11231],[58,11343],[58,11446],[58,11551],[58,11663],[58,11766],[58,11870],[58,11973],[58,12077],[58,12189],[58,12299],[58,12401],[58,12504],[58,12612],[58,12717],[58,12818],[58,12922],[58,13025],[58,13133],[58,13235],[58,13338],[58,13441],[58,13544],[58,13647],[58,13754],[58,13857],[58,13960],[58,14063],[58,14173],[58,14274],[58,14379],[58,14481],[58,14583],[58,14688],[58,14790],[58,14896],[58,14998],[58,15106],[58,15207],[58,15310],[58,15412],[58,15515],[58,15617],[58,15723],[58,15825],[58,15932],[58,16036],[58,16138],[58,16244],[58,16351],[58.1,16454],[58.1,16562],[58.2,16668],[58.2,16773],[58.2,16876],[58.4,16979],[58.4,17084],[58.6,17186],[59.1,17290],[59.8,17394],[60.5,17498],[61.1,17604],[61.7,17713],[62.3,17819],[62.7,17929],[63.3,18033],[64.2,18143],[64.9,18250],[65.4,18354],[65.7,18459],[66,18562],[66.4,18669],[66.4,18772],[66.4,18873],[66.4,18977],[66.4,19080],[66.4,19184],[66.4,19290],[66.4,19394],[66.4,19496],[66.4,19599],[66.4,19704],[66.4,19811],[66.4,19917],[66.4,20019],[66.4,20123],[66.4,20229],[66.4,20331],[66.4,20439],[66.4,20541],[66.4,20644],[66.4,20751],[66.4,20855],[66.4,20960],[66.4,21065],[66.4,21170],[66.4,21274],[66.4,21377],[66.4,21479],[66.4,21582],[66.4,21686],[66.4,21793],[66.4,21896],[66.4,22000],[66.4,22103],[66.4,22210],[66.4,22314],[66.4,22417]]",1,0,277.5102,282.497,68.64583333,4.0952,"[{""rating"":68.64583333333334,""responseTime"":4.095199999988097}]",space,4.3812,,282.497,Half the time,50,282.4978,,,[],,0,3,3,3,1,audio/Narrative7Situation3.wav,audio/Narrative8Situation3.wav,audio/Narrative5Situation3.wav,audio/Narrative6Situation3.wav,8,4,3,5,,,,,,,,,,,,,,,,,,,,,,,,,,,,,,,,,,,,,,,
,,,,,,65ad7ed5d0b12af4dfa05d75,2024-02-08_07h57.01.319,group3.1-3.2-social-tom,2023.2.2,Win32,20.57613169,65c5074098b851296ff0b7ed,65c515d4cc649ae8122ee593,,,,,,,,,,,,,,,,,,,,,,,,,,,,,282.4979,1,audio/Narrative8Situation4.wav,285.5054,,285.5055,299.726,"[[999,4],[999,106],[999,209],[999,312],[999,414],[999,516],[999,618],[999,728],[999,830],[999,933],[999,1044],[52.9,1147],[51.6,1251],[50.3,1356],[49.7,1466],[49.7,1568],[49.7,1671],[49.7,1774],[49.7,1885],[49.7,1992],[49.7,2094],[49.7,2197],[49.7,2306],[49.7,2409],[49.7,2511],[49.7,2614],[49.7,2722],[49.7,2827],[49.7,2930],[49.7,3033],[49.7,3142],[49.7,3244],[49.7,3348],[49.7,3451],[49.7,3554],[49.7,3665],[49.7,3772],[49.7,3877],[49.7,3980],[49.7,4088],[49.7,4191],[49.7,4294],[49.7,4397],[49.7,4502],[49.7,4608],[49.7,4710],[49.7,4813],[49.7,4916],[49.7,5026],[49.7,5128],[49.3,5231],[47.6,5335],[46.3,5441],[45,5544],[43.2,5649],[42,5756],[40.3,5861],[38.3,5965],[38.1,6068],[38.1,6174],[38.1,6277],[38.1,6381],[38.1,6485],[38.1,6588],[38.1,6692],[38.1,6805],[38.1,6907],[38.1,7013],[40.5,7118],[45.4,7230],[46.4,7333],[47.3,7439],[49.4,7543],[52.3,7658],[54.4,7760],[55.7,7865],[56.4,7972],[56.9,8076],[58.2,8185],[59.2,8288],[59.8,8398],[59.8,8502],[59.8,8604],[59.9,8708],[61.6,8814],[62.2,8920],[62.2,9023],[62.2,9125],[62.2,9229],[62.2,9331],[62.2,9437],[62.2,9540],[62.2,9644],[62.2,9747],[62.2,9850],[62.2,9958],[62.2,10061],[62.2,10184],[62.2,10303],[62.2,10416],[62.2,10520],[62.2,10623],[62.2,10727],[62.2,10830],[62.2,10941],[62.2,11043],[62.2,11153],[62.5,11264],[62.6,11367],[62.7,11473],[62.7,11576],[62.7,11685],[62.7,11788],[62.7,11896],[62.7,12002],[62.7,12105],[62.7,12208],[62.7,12311],[62.7,12419],[62.7,12522],[62.7,12625],[62.7,12728],[62.7,12834],[62.7,12938],[62.7,13047],[62.7,13154],[62.7,13273],[62.7,13377],[62.7,13487],[62.7,13589],[62.7,13692],[62.7,13802],[62.7,13906],[62.7,14010],[62.7,14116],[62.7,14220]]",1,0,299.7261,302.2682,64.58333333,1.2601,"[{""rating"":64.58333333333334,""responseTime"":1.2600999999642113}]",space,1.884,,302.2682,All the time,100,302.2694,,,[],,0,4,4,4,1,audio/Narrative7Situation4.wav,audio/Narrative8Situation4.wav,audio/Narrative5Situation4.wav,audio/Narrative6Situation4.wav,3,3,1,2,,,,,,,,,,,,,,,,,,,,,,,,,,,,,,,,,,,,,,,
,,,,,,65ad7ed5d0b12af4dfa05d75,2024-02-08_07h57.01.319,group3.1-3.2-social-tom,2023.2.2,Win32,20.57613169,65c5074098b851296ff0b7ed,65c515d4cc649ae8122ee593,,,,,,,,,,,,,,,,,,,,,,,,,,,,,302.2695,1,audio/Narrative8Situation5.wav,304.2929,,304.293,312.6084,"[[999,0],[999,106],[999,209],[999,315],[999,418],[56.9,527],[52.8,631],[50.4,743],[50.2,846],[50.2,949],[50.2,1052],[50.1,1160],[50,1263],[49.9,1366],[49.9,1469],[49.9,1574],[49.9,1680],[49.9,1783],[49.9,1885],[49.9,1988],[49.9,2094],[49.9,2197],[49.9,2302],[49.9,2405],[49.9,2509],[49.9,2612],[50.4,2716],[54.7,2826],[58.1,2929],[61.1,3034],[63,3140],[64.3,3245],[66,3348],[68.3,3458],[69.8,3562],[70.9,3672],[72.1,3775],[73.5,3884],[74.8,3987],[74.8,4095],[74.8,4198],[75.7,4306],[76.5,4411],[77,4514],[77.4,4618],[77.4,4723],[77.4,4829],[77.4,4932],[77.4,5041],[77.4,5145],[77.4,5250],[77.4,5353],[77.4,5456],[77.4,5558],[77.4,5664],[77.4,5771],[77.4,5872],[77.4,5975],[77.4,6081],[77.4,6189],[77.4,6294],[77.4,6402],[77.4,6504],[77.4,6607],[77.4,6710],[77.4,6813],[77.4,6916],[77.4,7020],[77.4,7125],[77.4,7234],[77.4,7336],[77.4,7439],[77.4,7542],[77.4,7644],[77.4,7747],[77.4,7852],[77.4,7954],[77.4,8057],[77.4,8160],[77.4,8263]]",1,0,312.6084,315.2064,71.66666667,1.8758,"[{""rating"":71.66666666666667,""responseTime"":1.8758000000119068}]",space,1.9464,,315.2065,All the time,100,315.2071,,,[],,0,5,5,5,1,audio/Narrative7Situation5.wav,audio/Narrative8Situation5.wav,audio/Narrative5Situation5.wav,audio/Narrative6Situation5.wav,5,2,5,2,,,,,,,,,,,,,,,,,,,,,,,,,,,,,,,,,,,,,,,
,,,,,,65ad7ed5d0b12af4dfa05d75,2024-02-08_07h57.01.319,group3.1-3.2-social-tom,2023.2.2,Win32,20.57613169,65c5074098b851296ff0b7ed,65c515d4cc649ae8122ee593,,,,,,,,,,,,,,,,,,,,,,,,,,,,,315.2073,1,audio/Narrative8Situation6.wav,317.2241,,317.2241,323.7753,"[[999,0],[999,103],[999,209],[999,312],[999,416],[49.3,520],[49,625],[49.3,734],[49.3,837],[49.3,941],[49.3,1044],[49.4,1147],[49.8,1254],[50,1358],[50.1,1466],[50.1,1567],[50.1,1670],[50.1,1777],[50.1,1879],[50.1,1982],[50.1,2085],[52.6,2201],[55.8,2304],[58.9,2415],[60.6,2518],[61.1,2622],[63.9,2730],[65.4,2834],[65.4,2937],[65.4,3040],[65.4,3144],[65.4,3247],[65.4,3353],[65.4,3456],[65.4,3559],[65.4,3665],[65.4,3781],[65.4,3883],[65.4,3988],[65.4,4090],[65.4,4195],[65.4,4299],[65.4,4404],[65.4,4509],[65.4,4613],[65.4,4716],[65.4,4819],[65.4,4923],[65.4,5032],[65.4,5135],[65.4,5243],[65.4,5351],[65.4,5455],[65.4,5561],[65.4,5664],[65.4,5767],[65.4,5870],[65.4,5973],[65.4,6077],[65.4,6180],[65.4,6284],[65.4,6391],[65.4,6495]]",1,0,323.7754,327.6727,62.91666667,1.7612,"[{""rating"":62.916666666666664,""responseTime"":1.7612000000476655}]",space,3.2445,,327.6727,Not at all,0,327.674,,,[],,0,6,6,6,1,audio/Narrative7Situation6.wav,audio/Narrative8Situation6.wav,audio/Narrative5Situation6.wav,audio/Narrative6Situation6.wav,3,2,3,2,,,,,,,,,,,,,,,,,,,,,,,,,,,,,,,,,,,,,,,
,,,,,,65ad7ed5d0b12af4dfa05d75,2024-02-08_07h57.01.319,group3.1-3.2-social-tom,2023.2.2,Win32,20.57613169,65c5074098b851296ff0b7ed,65c515d4cc649ae8122ee593,,,,,,,,,,,,,,,,,,,,,,,,,,,,,327.6741,1,audio/Narrative8Situation7.wav,330.7049,,330.7049,342.8737,"[[999,4],[999,106],[999,210],[999,311],[999,416],[999,519],[999,625],[50.8,731],[50.8,834],[50.8,945],[50.7,1049],[50.6,1153],[50.6,1257],[50.6,1360],[50.6,1466],[50.6,1570],[50.6,1672],[50.6,1775],[50.6,1879],[50.6,1981],[50.6,2086],[50.6,2188],[50.6,2292],[50.6,2395],[50.6,2497],[50.6,2599],[50.6,2717],[50.6,2826],[50.6,2929],[50.6,3036],[47.2,3140],[45.2,3253],[42.8,3357],[36.9,3467],[31.7,3572],[28.5,3681],[27.7,3791],[27.7,3894],[27.7,3997],[27.7,4101],[27.7,4204],[27.7,4308],[28.5,4412],[28.8,4515],[29,4624],[30.7,4727],[32.6,4832],[34.1,4939],[34.6,5043],[34.7,5154],[34.7,5262],[34.7,5364],[34.7,5470],[34.7,5573],[34.7,5679],[34.7,5782],[34.7,5885],[34.7,5990],[34.7,6100],[34.7,6202],[34.7,6304],[34.7,6407],[34.7,6511],[34.7,6615],[34.7,6720],[34.7,6824],[34.7,6927],[34.7,7031],[34.7,7136],[34.7,7239],[34.7,7342],[34.7,7445],[34.7,7548],[34.7,7651],[34.7,7757],[34.7,7869],[34.7,7983],[34.7,8090],[34.7,8193],[34.7,8297],[34.7,8400],[34.7,8507],[34.7,8610],[34.7,8715],[34.7,8826],[34.7,8928],[34.7,9031],[34.7,9134],[34.7,9243],[34.7,9351],[34.7,9457],[34.7,9560],[34.7,9672],[34.7,9789],[34.7,9895],[34.7,10003],[34.7,10113],[41.5,10220],[51.3,10324],[57.8,10429],[64.2,10537],[66,10641],[66.7,10746],[66.7,10856],[66.7,10963],[66.7,11070],[66.7,11176],[66.7,11279],[66.7,11382],[66.7,11490],[66.7,11593],[66.7,11697],[66.7,11800],[66.7,11908],[66.7,12011],[66.7,12117]]",1,0,342.8738,345.7987,47.70833333,1.9937,"[{""rating"":53.541666666666664,""responseTime"":1.268300000011891},{""rating"":47.708333333333336,""responseTime"":1.9936999999880527}]",space,2.2707,,345.7987,Half the time,50,345.7999,,,[],,0,7,7,7,1,audio/Narrative7Situation7.wav,audio/Narrative8Situation7.wav,audio/Narrative5Situation7.wav,audio/Narrative6Situation7.wav,5,3,4,5,,,,,,,,,,,,,,,,,,,,,,,,,,,,,,,,,,,,,,,
,,,,,,65ad7ed5d0b12af4dfa05d75,2024-02-08_07h57.01.319,group3.1-3.2-social-tom,2023.2.2,Win32,20.57613169,65c5074098b851296ff0b7ed,65c515d4cc649ae8122ee593,,,,,,,,,,,,,,,,,,,,,,,,,,,,,345.7999,1,audio/Narrative8Situation8.wav,348.8183,,348.8184,361.7154,"[[52.8,524],[51.3,627],[50.4,734],[49.7,841],[49.7,944],[49.7,1048],[49.7,1150],[49.7,1252],[49.7,1355],[49.7,1459],[49.7,1564],[49.7,1667],[49.7,1770],[49.7,1877],[49.7,1979],[50.5,2083],[50.9,2192],[50.9,2294],[50.9,2397],[50.9,2502],[50.9,2605],[50.9,2709],[50.9,2812],[50.9,2916],[51.9,3020],[56.1,3126],[59.5,3233],[61.7,3337],[63.5,3445],[64.9,3548],[65.1,3653],[65.1,3756],[65.1,3860],[65.1,3967],[65.1,4077],[65.1,4185],[65.1,4288],[65.1,4389],[65.1,4497],[65.1,4600],[65.1,4706],[65.1,4808],[65.1,4916],[65.1,5023],[65.1,5126],[65.1,5228],[65.1,5331],[65.1,5433],[65.1,5536],[65.1,5645],[65.1,5751],[65.1,5855],[65.1,5965],[65.1,6068],[65.1,6171],[65.1,6276],[65.1,6377],[65.1,6480],[65.1,6582],[65.1,6688],[65.1,6793],[65.1,6901],[65.1,7003],[65.1,7113],[65.1,7219],[65.1,7322],[65.1,7424],[65.1,7531],[65.1,7633],[65.1,7736],[65.1,7842],[65.1,7946],[65.1,8051],[65.1,8161],[65.1,8265],[65.1,8369],[65.1,8476],[65.1,8578],[65.1,8688],[65.1,8790],[65.1,8893],[65.1,9004],[65.1,9110],[65.1,9215],[65.1,9318],[65.1,9420],[65.1,9524],[65.1,9626],[65.1,9729],[65.1,9837],[64.8,9952],[63.2,10063],[63,10166],[62.5,10278],[62.2,10381],[62.2,10484],[61.3,10593],[60.7,10697],[60.3,10802],[59,10910],[57.3,11014],[56.7,11118],[55.8,11223],[55.4,11326],[54.8,11430],[54.3,11533],[54.1,11637],[54,11741],[54,11847],[54,11951],[54,12058],[54,12164],[54,12272],[54,12374],[54,12482],[54,12585],[54,12688],[54,12791],[54,12896]]",1,0,361.7155,363.7814,57.08333333,1.2144,"[{""rating"":57.08333333333333,""responseTime"":1.2144000000357664}]",space,1.4618,,363.7815,All the time,100,363.7825,,,[],,0,8,8,8,1,audio/Narrative7Situation8.wav,audio/Narrative8Situation8.wav,audio/Narrative5Situation8.wav,audio/Narrative6Situation8.wav,2,3,3,5,,,,,,,,,,,,,,,,,,,,,,,,,,,,,,,,,,,,,,,
,,,,,,65ad7ed5d0b12af4dfa05d75,2024-02-08_07h57.01.319,group3.1-3.2-social-tom,2023.2.2,Win32,20.57613169,65c5074098b851296ff0b7ed,65c515d4cc649ae8122ee593,,,,,,,,,,,,,,,,,,,,,,,,,,,,,363.7827,1,audio/Narrative8Situation9.wav,366.8149,,366.8149,378.197,"[[55.8,512],[54.8,616],[54.1,723],[54.1,827],[54.1,934],[54.1,1044],[53.3,1146],[52.8,1252],[52.8,1359],[52.8,1461],[52.5,1565],[52.5,1668],[52.5,1771],[52.5,1879],[52.5,1981],[52.5,2084],[52.5,2188],[52.5,2291],[52.5,2394],[52.5,2499],[52.5,2601],[52.5,2704],[52.5,2812],[52.5,2914],[52.5,3017],[52.5,3125],[52.5,3230],[52.5,3333],[52.5,3435],[52.5,3548],[52.5,3656],[52.5,3758],[52.5,3865],[52.5,3969],[52.5,4075],[52.5,4176],[51,4281],[48.6,4394],[46.9,4497],[45.1,4600],[45.1,4703],[45.1,4812],[44.9,4919],[42.5,5023],[42.5,5126],[42.5,5232],[42.5,5334],[42.5,5444],[42.5,5547],[42.5,5649],[42.5,5752],[42.5,5858],[42.5,5961],[42.5,6065],[42.5,6172],[42.5,6275],[42.5,6380],[42.5,6486],[42.5,6592],[42.5,6694],[42.5,6797],[42.5,6902],[42.5,7006],[42.5,7111],[42.5,7214],[42.5,7320],[42.5,7424],[42.5,7528],[42.5,7636],[42.5,7738],[42.5,7843],[42.5,7945],[42.5,8048],[42.5,8151],[42.5,8255],[42.5,8358],[42.5,8461],[42.5,8566],[42.5,8674],[42.5,8779],[42.5,8882],[42.5,8985],[42.5,9088],[42.5,9189],[42.5,9293],[42.5,9396],[42.5,9498],[42.5,9601],[42.5,9708],[42.5,9811],[42.5,9915],[42.5,10023],[42.5,10128],[42.5,10234],[42.5,10340],[42.5,10443],[42.5,10552],[42.5,10656],[42.5,10766],[42.5,10869],[42.5,10971],[42.5,11073],[42.5,11175],[42.5,11278],[42.5,11382]]",1,0,378.1971,381.8476,50.41666667,2.1959,"[{""rating"":50.416666666666664,""responseTime"":2.195900000035749}]",space,2.9942,,381.8476,Not at all,0,381.8487,,,[],,0,9,9,9,1,audio/Narrative7Situation9.wav,audio/Narrative8Situation9.wav,audio/Narrative5Situation9.wav,audio/Narrative6Situation9.wav,2,3,3,4,,,,,,,,,,,,,,,,,,,,,,,,,,,,,,,,,,,,,,,
,,,,,,65ad7ed5d0b12af4dfa05d75,2024-02-08_07h57.01.319,group3.1-3.2-social-tom,2023.2.2,Win32,20.57613169,65c5074098b851296ff0b7ed,65c515d4cc649ae8122ee593,,,,,,,,,,,,,,,,,,,,,,,,,,,,,381.8488,1,audio/Narrative7Situation1.wav,383.8674,,383.8674,439.8237,"[[53.6,929],[50.9,1350],[51,1456],[51.5,1562],[51.5,1667],[51.5,1771],[51.5,1874],[51.5,1979],[51.5,2082],[51.5,2184],[51.1,2288],[50.9,2391],[50.9,2502],[50.9,2608],[50.9,2712],[50.9,2825],[50.9,2928],[50.9,3038],[50.9,3140],[50.9,3247],[50.9,3355],[50.9,3459],[50.9,3563],[50.9,3667],[50.9,3770],[50.9,3875],[50.9,3977],[50.9,4083],[50.9,4190],[50.9,4297],[50.9,4399],[50.9,4502],[50.9,4605],[50.9,4708],[50.9,4810],[50.9,4913],[50.9,5016],[50.9,5119],[50.9,5223],[50.9,5326],[50.9,5429],[49.7,5536],[46.3,5647],[44.3,5758],[42.5,5862],[40.8,5967],[39.7,6071],[39.7,6177],[39.7,6280],[39.7,6383],[39.7,6491],[39.7,6595],[39.7,6699],[39.7,6802],[39.7,6904],[39.7,7007],[39.7,7109],[39.7,7212],[39.7,7315],[39.7,7417],[39.7,7521],[39.7,7623],[39.7,7726],[39.7,7829],[39.7,7937],[39.7,8039],[39.7,8146],[39.7,8250],[39.7,8352],[39.7,8460],[39.7,8568],[39.7,8670],[39.7,8771],[39.7,8875],[39.7,8977],[39.7,9079],[39.7,9182],[39.7,9287],[39.7,9388],[39.7,9494],[39.7,9617],[39.7,9720],[39.7,9822],[39.7,9929],[39.7,10032],[39.7,10150],[39.7,10254],[39.7,10357],[39.7,10460],[39.7,10568],[39.7,10669],[39.7,10772],[39.7,10880],[39.7,10983],[39.7,11092],[39.7,11194],[39.7,11297],[39.7,11400],[39.7,11509],[39.7,11610],[39.7,11713],[39.7,11817],[39.7,11928],[39.7,12030],[39.7,12139],[39.7,12241],[39.7,12344],[39.7,12454],[39.7,12556],[39.7,12659],[39.7,12762],[39.7,12876],[39.7,12980],[39.7,13084],[39.9,13192],[43,13300],[46.5,13403],[47.4,13514],[51.8,13616],[53.4,13725],[53.5,13827],[55.1,13932],[55.1,14039],[55.1,14142],[55.1,14245],[55.1,14352],[55.1,14454],[55.1,14558],[55.1,14664],[55.1,14766],[55.1,14869],[55.1,14973],[55.1,15079],[55.1,15186],[55.1,15291],[55.1,15398],[55.1,15500],[55.1,15603],[56.6,15709],[58,15814],[58,15916],[58,16019],[58,16128],[58,16230],[58,16333],[58,16435],[58,16540],[58,16645],[58,16752],[58,16854],[58,16953],[58,17056],[58,17159],[58,17262],[58,17369],[58,17471],[58,17574],[58,17681],[58,17784],[58,17888],[58,17994],[58,18097],[58,18206],[58,18307],[58,18414],[58,18520],[58,18626],[58,18734],[58,18837],[58,18939],[58,19042],[58,19145],[58,19252],[58,19355],[58,19460],[58,19572],[58,19675],[58,19778],[58,19889],[58,19990],[58,20093],[58,20197],[58,20305],[58,20407],[58,20512],[58,20614],[58,20717],[58,20823],[58,20927],[58,21032],[58,21136],[58,21240],[58,21344],[58,21447],[58,21550],[58,21653],[58,21756],[58,21860],[58,21962],[58,22069],[58,22175],[58,22278],[58,22381],[58,22483],[58,22591],[58,22696],[58,22799],[58,22904],[58,23007],[57.7,23116],[57.5,23219],[57.2,23326],[56.7,23429],[56.6,23534],[56.6,23637],[56.6,23743],[56.6,23851],[56.6,23953],[56.6,24057],[56.6,24168],[56.6,24271],[56.6,24374],[56.6,24477],[56.6,24580],[56.6,24688],[56.6,24790],[56.6,24893],[54.3,25001],[52.3,25106],[50.2,25210],[49.3,25314],[48.4,25419],[46.8,25525],[45.3,25629],[44.3,25740],[42.6,25843],[42,25947],[42,26049],[42,26159],[42,26262],[42,26364],[42,26466],[42,26570],[42,26673],[42,26776],[42,26881],[42,26986],[42,27089],[42,27195],[42,27304],[42,27406],[42,27509],[42,27611],[42,27714],[42,27823],[41.4,27927],[40.6,28033],[40.1,28136],[40.1,28244],[40,28349],[40,28456],[40,28559],[40,28661],[40,28764],[40,28867],[40,28971],[40,29074],[40,29178],[40,29285],[40,29388],[40,29495],[40,29601],[40,29706],[40,29809],[40,29911],[40,30017],[40,30126],[40,30228],[40,30331],[40,30436],[40,30539],[40,30642],[40,30747],[40,30852],[40,30954],[40,31063],[40,31165],[40,31266],[40,31376],[40,31479],[40,31581],[40,31684],[40,31787],[40,31891],[40,31997],[40,32101],[40,32206],[40,32317],[40,32420],[40,32524],[40,32627],[40,32736],[40,32840],[40,32943],[40,33049],[40,33155],[40,33262],[40,33366],[40,33470],[40,33573],[40,33676],[40,33779],[40,33884],[40,33987],[40,34091],[40,34197],[40,34304],[40,34407],[40,34509],[40,34612],[40,34715],[40,34822],[40,34934],[40,35038],[40,35144],[40,35247],[40,35350],[40,35454],[40,35561],[40,35666],[40.1,35770],[42.4,35878],[46.5,35982],[47.8,36088],[50.2,36192],[52,36301],[52.2,36404],[54.7,36509],[58.8,36620],[61,36725],[63.3,36829],[64.7,36933],[64.7,37045],[64.7,37146],[64.7,37252],[64.7,37355],[64.8,37463],[65.4,37568],[65.7,37671],[66.3,37775],[66.6,37880],[66.7,37981],[66.7,38093],[66.7,38195],[66.7,38297],[66.7,38399],[66.7,38506],[66.7,38608],[66.7,38712],[66.7,38816],[66.7,38923],[66.7,39026],[66.7,39129],[66.7,39237],[66.7,39340],[69,39449],[70.2,39552],[70.4,39661],[72.5,39765],[72.6,39868],[73.1,39972],[75.2,40081],[75.6,40183],[75.6,40286],[75.6,40396],[75.6,40504],[75.6,40607],[75.6,40716],[75.6,40818],[75.6,40919],[75.6,41023],[75.6,41125],[75.6,41229],[75.6,41332],[75.6,41435],[75.6,41538],[75.6,41642],[75.6,41745],[75.6,41847],[75.6,41950],[75.6,42061],[75.6,42163],[75.6,42266],[75.6,42371],[75.6,42472],[75.6,42576],[75.6,42678],[75.1,42782],[65.9,42898],[62.5,43007],[56.3,43111],[51.5,43222],[50.2,43330],[50.2,43433],[50.2,43539],[50.1,43644],[45.5,43750],[45.5,43853],[45.5,43955],[45.5,44062],[45.5,44168],[45.5,44278],[45.5,44385],[45.5,44489],[45.5,44593],[45.5,44697],[45.5,44799],[45.5,44902],[45.5,45006],[45.5,45109],[45.5,45211],[45.5,45314],[45.5,45418],[45.5,45521],[45.5,45623],[45.5,45726],[45.5,45831],[45.5,45933],[45.5,46042],[45.5,46145],[45.5,46251],[45.5,46354],[45.5,46457],[45.5,46560],[45.5,46666],[45.5,46768],[45.5,46872],[45.5,46975],[45.5,47085],[45.5,47192],[45.5,47298],[45,47406],[43,47510],[40.9,47620],[38.4,47726],[37.9,47830],[37.9,47934],[37.9,48037],[37.9,48139],[37.9,48247],[37.9,48357],[37.9,48460],[37.9,48562],[37.9,48666],[37.9,48768],[37.9,48882],[37.9,48984],[37.9,49087],[37.9,49190],[37.9,49293],[37.9,49398],[37.9,49501],[37.9,49607],[37.9,49709],[37.9,49816],[37.9,49917],[37.9,50023],[37.9,50125],[37.9,50233],[37.9,50335],[37.9,50438],[37.9,50541],[37.9,50644],[37.9,50750],[37.9,50855],[37.9,50958],[37.9,51061],[37.9,51163],[37.9,51266],[37.9,51370],[37.9,51474],[39.3,51588],[47,51692],[56.1,51801],[60.5,51906],[62.8,52009],[65.4,52113],[67,52221],[67.3,52326],[67.3,52429],[67.3,52532],[67.3,52635],[67.3,52737],[67.3,52841],[67.2,52954],[67.2,53057],[67.2,53163],[67.2,53272],[67.2,53373],[67.2,53476],[67.2,53579],[67.2,53681],[67.2,53785],[67.2,53888],[67.2,53991],[67.2,54094],[67.2,54198],[67.2,54300],[67.2,54404],[67.2,54507],[67.2,54609],[67.2,54711],[67.2,54818],[67.2,54921],[67.2,55024],[67.2,55128],[67.2,55230],[67.2,55334],[67.2,55437],[67.2,55540],[67.2,55642],[67.2,55745],[67.2,55853],[67.2,55956]]",1,0,439.8238,446.9861,53.02083333,6.1175,"[{""rating"":53.02083333333333,""responseTime"":6.117500000000007}]",space,6.5314,,446.9861,Half the time,50,446.9872,,,[],,0,10,10,10,1,audio/Narrative8Situation1.wav,audio/Narrative7Situation1.wav,audio/Narrative6Situation1.wav,audio/Narrative5Situation1.wav,5,2,2,5,,,,,,,,,,,,,,,,,,,,,,,,,,,,,,,,,,,,,,,
,,,,,,65ad7ed5d0b12af4dfa05d75,2024-02-08_07h57.01.319,group3.1-3.2-social-tom,2023.2.2,Win32,20.57613169,65c5074098b851296ff0b7ed,65c515d4cc649ae8122ee593,,,,,,,,,,,,,,,,,,,,,,,,,,,,,446.9873,1,audio/Narrative7Situation2.wav,450.0161,,450.0161,457.5366,"[[999,4],[999,107],[999,211],[49.9,315],[48.9,424],[48.4,527],[48.8,631],[48.8,736],[48.8,841],[48.8,945],[48.8,1050],[48.8,1158],[48.8,1261],[48.8,1363],[48.8,1472],[48.8,1574],[48.8,1677],[48.8,1780],[48.8,1884],[48.8,1990],[48.8,2094],[48.8,2197],[48.8,2301],[49,2405],[55.9,2508],[57,2612],[58.8,2716],[61.4,2826],[63.9,2930],[64.7,3036],[65,3139],[65.2,3243],[65.2,3346],[65.2,3454],[65.2,3558],[65.2,3662],[65.2,3765],[65.2,3867],[65.2,3970],[65.2,4073],[65.2,4177],[65.2,4280],[65.2,4387],[65.2,4489],[65.2,4592],[65.2,4696],[65.2,4799],[65.2,4905],[65.2,5007],[65.2,5110],[65.2,5213],[63.8,5318],[61.3,5422],[59.5,5529],[55.6,5636],[51.5,5740],[47.4,5842],[43.6,5947],[39.4,6052],[36.1,6157],[36,6261],[36,6371],[36,6474],[36,6576],[36,6684],[36,6787],[36,6895],[35.9,6998],[35.9,7103],[35.9,7207],[35.9,7315],[35.9,7417],[35.9,7520]]",1,0,457.5366,461.1652,46.77083333,2.5599,"[{""rating"":46.770833333333336,""responseTime"":2.559899999976153}]",space,3.0097,,461.1652,Half the time,50,461.1659,,,[],,0,11,11,11,1,audio/Narrative8Situation2.wav,audio/Narrative7Situation2.wav,audio/Narrative6Situation2.wav,audio/Narrative5Situation2.wav,3,3,3,3,,,,,,,,,,,,,,,,,,,,,,,,,,,,,,,,,,,,,,,
,,,,,,65ad7ed5d0b12af4dfa05d75,2024-02-08_07h57.01.319,group3.1-3.2-social-tom,2023.2.2,Win32,20.57613169,65c5074098b851296ff0b7ed,65c515d4cc649ae8122ee593,,,,,,,,,,,,,,,,,,,,,,,,,,,,,461.166,1,audio/Narrative7Situation3.wav,469.1855,,469.1856,478.4985,"[[999,4],[999,107],[999,210],[999,313],[999,416],[999,518],[999,620],[999,728],[49.4,831],[49.6,935],[50.2,1045],[50.2,1148],[50.2,1253],[50.2,1358],[50.2,1461],[50.2,1571],[50.2,1673],[50.2,1776],[50.2,1882],[50.2,1988],[50.2,2091],[50.2,2198],[50.2,2307],[50.2,2409],[50.2,2512],[50.2,2615],[50.2,2719],[50.2,2821],[50.2,2925],[50.2,3034],[50.2,3138],[50.2,3243],[50.2,3345],[50.2,3448],[50.2,3555],[50.2,3662],[50.2,3769],[50.2,3875],[50.2,3976],[50.2,4079],[50.2,4182],[50.2,4288],[50.2,4393],[50.2,4496],[50.2,4599],[50.2,4701],[50.2,4806],[50.2,4910],[45.9,5013],[42.1,5118],[40,5225],[38,5329],[37.3,5437],[36.7,5542],[36.6,5646],[35.9,5751],[34.6,5858],[33.6,5970],[33.3,6078],[33.3,6183],[33.2,6292],[33.2,6394],[33.2,6502],[33.2,6604],[33.2,6707],[33.2,6810],[33.2,6913],[33.2,7015],[33.2,7118],[33.2,7221],[33.2,7324],[33.2,7426],[33.2,7531],[33.2,7637],[33.2,7740],[32.4,7850],[30.7,7956],[30.1,8060],[30.1,8164],[30.1,8266],[30.1,8373],[30.1,8478],[30.1,8582],[30.1,8686],[30.1,8790],[30.1,8892],[30.1,9000],[30.1,9105],[30.1,9209],[30.1,9312]]",1,0,478.4986,480.7684,38.64583333,1.0318,"[{""rating"":38.645833333333336,""responseTime"":1.0318000000119127}]",space,1.6318,,480.7684,Not at all,0,480.7694,,,[],,0,12,12,12,1,audio/Narrative8Situation3.wav,audio/Narrative7Situation3.wav,audio/Narrative6Situation3.wav,audio/Narrative5Situation3.wav,4,8,5,3,,,,,,,,,,,,,,,,,,,,,,,,,,,,,,,,,,,,,,,
,,,,,,65ad7ed5d0b12af4dfa05d75,2024-02-08_07h57.01.319,group3.1-3.2-social-tom,2023.2.2,Win32,20.57613169,65c5074098b851296ff0b7ed,65c515d4cc649ae8122ee593,,,,,,,,,,,,,,,,,,,,,,,,,,,,,480.7695,1,audio/Narrative7Situation4.wav,483.8046,,483.8046,495.58,"[[46.6,1347],[50.6,1451],[50.6,1555],[50.1,1658],[50,1765],[50,1867],[50,1971],[50,2073],[50,2176],[50,2282],[50,2390],[50,2492],[50,2596],[50,2709],[50,2815],[50,2921],[50,3029],[50,3134],[50,3240],[50,3348],[50,3454],[50,3562],[50,3674],[50,3787],[50,3897],[49.3,4003],[45.1,4122],[41.4,4232],[39.3,4342],[38.3,4452],[38.3,4567],[38.3,4680],[38.3,4790],[38.3,4896],[38.3,5007],[38.3,5113],[38.3,5221],[38.3,5327],[38.3,5439],[38.3,5550],[38.3,5656],[38.3,5770],[38.3,5878],[38.3,5982],[37.3,6090],[37.3,6199],[37.3,6304],[37.3,6419],[37.3,6523],[37.3,6627],[37.3,6739],[37.3,6850],[37.3,6957],[37.3,7065],[37.3,7173],[37.3,7281],[37.3,7386],[37.3,7496],[37.3,7605],[37.3,7711],[37.3,7819],[37.3,7927],[37.3,8032],[37.3,8138],[37.3,8247],[37.3,8379],[37.3,8510],[37.3,8643],[37.3,8746],[37.3,8857],[37.3,8971],[37.3,9082],[37.3,9189],[37.3,9299],[37.3,9407],[37.3,9517],[37.3,9621],[37.3,9726],[37.3,9832],[37.3,9942],[37.3,10055],[37.3,10166],[37.3,10272],[37.3,10376],[37.3,10482],[37.3,10593],[37.3,10696],[37.3,10804],[37.3,10908],[37.3,11014],[37.3,11130],[37.3,11232],[37.3,11339],[37.3,11453],[37.3,11562],[37.3,11668],[37.3,11775]]",1,0,495.58,497.8132,43.125,0.9401,"[{""rating"":43.125,""responseTime"":0.9401000000238469}]",space,1.5751,,497.8132,Not at all,0,497.8139,,,[],,0,13,13,13,1,audio/Narrative8Situation4.wav,audio/Narrative7Situation4.wav,audio/Narrative6Situation4.wav,audio/Narrative5Situation4.wav,3,3,2,1,,,,,,,,,,,,,,,,,,,,,,,,,,,,,,,,,,,,,,,
,,,,,,65ad7ed5d0b12af4dfa05d75,2024-02-08_07h57.01.319,group3.1-3.2-social-tom,2023.2.2,Win32,20.57613169,65c5074098b851296ff0b7ed,65c515d4cc649ae8122ee593,,,,,,,,,,,,,,,,,,,,,,,,,,,,,497.814,1,audio/Narrative7Situation5.wav,502.8511,,502.8511,511.4006,"[[51.9,725],[56.9,831],[59.8,940],[59.8,1043],[59.8,1148],[59.8,1250],[59.8,1360],[58.2,1464],[56,1568],[54.1,1673],[53,1776],[52.1,1880],[51.8,1983],[51.8,2093],[51.8,2195],[51.8,2299],[51.8,2401],[51.8,2504],[51.8,2608],[51.8,2711],[51.8,2819],[51.8,2922],[51.8,3025],[51.8,3129],[51.8,3237],[52.5,3340],[55.3,3444],[57.8,3557],[61.4,3664],[65,3770],[66,3874],[66.6,3978],[66.6,4080],[66.6,4186],[66.6,4288],[66.6,4397],[66.6,4500],[66.6,4602],[66.6,4710],[66.6,4816],[66.6,4918],[66.6,5023],[66.6,5130],[66.6,5233],[66.6,5337],[66.6,5440],[66.6,5545],[66.6,5647],[66.6,5750],[66.6,5857],[66.6,5982],[66.6,6086],[66.6,6189],[66.6,6295],[66.6,6401],[66.6,6504],[66.6,6611],[66.6,6715],[66.6,6823],[66.6,6925],[66.6,7030],[66.6,7132],[66.6,7239],[66.6,7342],[66.6,7452],[66.6,7555],[66.6,7657],[66.6,7761],[65.8,7869],[61.7,7974],[60.1,8078],[57.5,8183],[55,8287],[54.9,8395],[54.9,8497]]",1,0,511.4007,514.1224,61.25,1.8235,"[{""rating"":57.70833333333334,""responseTime"":1.2100000000000364},{""rating"":61.25000000000001,""responseTime"":1.8234999999999673}]",space,2.063,,514.1224,All the time,100,514.1236,,,[],,0,14,14,14,1,audio/Narrative8Situation5.wav,audio/Narrative7Situation5.wav,audio/Narrative6Situation5.wav,audio/Narrative5Situation5.wav,2,5,2,5,,,,,,,,,,,,,,,,,,,,,,,,,,,,,,,,,,,,,,,
,,,,,,65ad7ed5d0b12af4dfa05d75,2024-02-08_07h57.01.319,group3.1-3.2-social-tom,2023.2.2,Win32,20.57613169,65c5074098b851296ff0b7ed,65c515d4cc649ae8122ee593,,,,,,,,,,,,,,,,,,,,,,,,,,,,,514.1236,1,audio/Narrative7Situation6.wav,517.1543,,517.1543,527.1666,"[[59,1849],[46.6,1955],[45.8,2059],[45.8,2165],[55.4,2275],[64.8,2387],[65.2,2500],[65.2,2614],[65.2,2722],[65.2,2825],[65.2,2929],[65.2,3036],[65.2,3142],[65.2,3248],[65.2,3353],[65.2,3461],[65.2,3563],[65.2,3667],[65.2,3770],[65.2,3873],[65.2,3976],[65.2,4080],[65.2,4183],[65.2,4286],[65.2,4394],[65.2,4498],[65.2,4604],[65.2,4707],[65.2,4810],[65.2,4914],[65.2,5017],[65.2,5126],[65.2,5228],[65.2,5332],[65.2,5435],[65.2,5538],[65.2,5641],[65.2,5748],[65.2,5850],[65.2,5955],[65.2,6059],[65.2,6163],[65.2,6268],[65.3,6371],[65.3,6478],[65.3,6581],[65.3,6685],[65.3,6787],[65.3,6896],[65.3,6998],[65.3,7101],[65.3,7204],[65.3,7314],[65.3,7416],[65.3,7519],[65.3,7628],[65.3,7730],[65.3,7833],[65.4,7936],[65.6,8040],[66,8143],[66.7,8250],[67.2,8354],[67.4,8457],[67.4,8561],[67.4,8665],[67.4,8767],[67.4,8870],[67.4,8977],[67.4,9079],[67.4,9182],[67.4,9285],[67.4,9387],[67.4,9490],[67.4,9594],[67.4,9701],[67.4,9806],[67.4,9908],[67.4,10012]]",1,0,527.1667,531.2465,64.0625,2.4008,"[{""rating"":64.0625,""responseTime"":2.400799999952369}]",space,3.4477,,531.2465,Half the time,50,531.2476,,,[],,0,15,15,15,1,audio/Narrative8Situation6.wav,audio/Narrative7Situation6.wav,audio/Narrative6Situation6.wav,audio/Narrative5Situation6.wav,2,3,2,3,,,,,,,,,,,,,,,,,,,,,,,,,,,,,,,,,,,,,,,
,,,,,,65ad7ed5d0b12af4dfa05d75,2024-02-08_07h57.01.319,group3.1-3.2-social-tom,2023.2.2,Win32,20.57613169,65c5074098b851296ff0b7ed,65c515d4cc649ae8122ee593,,,,,,,,,,,,,,,,,,,,,,,,,,,,,531.2477,1,audio/Narrative7Situation7.wav,536.2905,,536.2905,553.5233,"[[64,1143],[62.7,1566],[62.8,1673],[63.1,1779],[63.3,1885],[63.3,1988],[63.3,2092],[63.3,2205],[63.3,2307],[65,2421],[67.5,2537],[69.5,2642],[70.8,2746],[71.6,2850],[72.9,2953],[73.6,3058],[74.3,3167],[74.8,3271],[74.9,3374],[74.9,3479],[74.9,3584],[74.9,3689],[74.9,3795],[74.9,3902],[74.9,4005],[74.9,4109],[74.9,4212],[74.9,4317],[74.9,4426],[74.9,4530],[74.9,4632],[74.9,4734],[74.9,4843],[74.9,4946],[74.9,5049],[74.9,5153],[74.9,5256],[74.9,5365],[74.9,5467],[74.9,5570],[74.9,5673],[74.9,5777],[74.9,5885],[74.9,5987],[74.9,6090],[74.9,6194],[74.9,6297],[74.9,6400],[74.9,6504],[74.9,6607],[74.9,6716],[74.9,6822],[74.9,6925],[74.9,7027],[74.9,7129],[74.9,7233],[74.9,7340],[74.9,7443],[74.9,7547],[74.9,7651],[74.9,7754],[74.9,7860],[74.9,7962],[74.9,8065],[74.9,8169],[74.9,8271],[74.9,8373],[74.9,8476],[74.9,8582],[74.9,8684],[74.9,8791],[74.9,8895],[74.9,9007],[74.9,9115],[74.9,9217],[74.9,9319],[74.9,9426],[74.9,9535],[74.9,9638],[74.9,9741],[74.9,9850],[74.9,9952],[74.8,10056],[74.1,10167],[72.7,10276],[71.6,10380],[67.6,10496],[59.9,10601],[57.1,10706],[55.2,10810],[54,10915],[53.6,11018],[53.6,11122],[53.4,11229],[48.6,11343],[48.3,11446],[48.3,11552],[47.9,11656],[46.1,11763],[43.9,11868],[43.8,11973],[42.9,12077],[42.8,12192],[42.8,12293],[42.8,12400],[42.8,12503],[42.8,12609],[42.8,12714],[42.8,12816],[42.8,12920],[42.8,13023],[42.8,13126],[42.8,13234],[42.8,13336],[42.8,13447],[42.8,13553],[42.8,13656],[42.8,13758],[42.8,13863],[42.8,13968],[42.8,14072],[42.8,14179],[42.8,14281],[42.8,14386],[42.8,14493],[42.8,14601],[42.8,14704],[42.8,14806],[42.9,14910],[44.1,15018],[45.1,15121],[48.4,15227],[52.7,15341],[54.5,15445],[55.8,15549],[56.4,15656],[56.4,15760],[58,15864],[60.2,15971],[64.4,16076],[71.7,16186],[72.7,16289],[72.7,16396],[72.7,16504],[72.7,16606],[72.7,16708],[72.7,16811],[72.7,16916],[72.7,17018],[72.7,17130],[72.7,17232]]",1,0,553.5234,556.0723,67.1875,1.0006,"[{""rating"":67.1875,""responseTime"":1.0005999999642654}]",space,1.9365,,556.0723,Not at all,0,556.0733,,,[],,0,16,16,16,1,audio/Narrative8Situation7.wav,audio/Narrative7Situation7.wav,audio/Narrative6Situation7.wav,audio/Narrative5Situation7.wav,3,5,5,4,,,,,,,,,,,,,,,,,,,,,,,,,,,,,,,,,,,,,,,
,,,,,,65ad7ed5d0b12af4dfa05d75,2024-02-08_07h57.01.319,group3.1-3.2-social-tom,2023.2.2,Win32,20.57613169,65c5074098b851296ff0b7ed,65c515d4cc649ae8122ee593,,,,,,,,,,,,,,,,,,,,,,,,,,,,,556.0735,1,audio/Narrative7Situation8.wav,558.0837,,558.0838,568.1871,"[[64.4,1031],[60,1136],[59.9,1240],[55,1349],[53.5,1452],[51.9,1558],[50.8,1662],[50.8,1764],[50.8,1871],[50.8,1975],[50.8,2076],[50.8,2180],[50.8,2284],[50.8,2386],[50.8,2489],[50.8,2595],[50.8,2702],[50.8,2808],[50.8,2913],[50.8,3015],[50.7,3119],[52,3226],[54,3331],[55,3435],[56.5,3540],[59.4,3644],[60.8,3748],[61.5,3851],[61.8,3955],[62.3,4061],[62.3,4165],[62.3,4273],[62.3,4376],[62.3,4479],[62.3,4585],[62.3,4693],[62.3,4798],[62.3,4904],[62.3,5007],[62.3,5109],[62.3,5212],[62.3,5316],[62.3,5422],[62.3,5524],[62.3,5628],[62.3,5731],[62.3,5834],[62.3,5936],[62.3,6039],[62.3,6148],[62.3,6251],[62.3,6358],[62.3,6463],[62.3,6566],[62.3,6669],[62.3,6778],[62.3,6884],[62.3,6995],[62.3,7098],[62.3,7201],[62.3,7304],[62.3,7411],[62.3,7516],[62.3,7620],[62.3,7728],[62.3,7831],[62.3,7937],[62.3,8039],[62.3,8144],[62.3,8251],[62.3,8371],[62.3,8475],[62.3,8581],[62.3,8684],[62.3,8791],[62.3,8900],[62.3,9004],[62.3,9106],[62.3,9209],[62.3,9311],[62.3,9416],[62.3,9526],[62.3,9627],[62.3,9734],[62.3,9837],[62.3,9940],[62.3,10052]]",1,0,568.1873,572.974,61.45833333,3.6696,"[{""rating"":61.458333333333336,""responseTime"":3.669599999964248}]",space,4.1251,,572.9741,All the time,100,572.975,,,[],,0,17,17,17,1,audio/Narrative8Situation8.wav,audio/Narrative7Situation8.wav,audio/Narrative6Situation8.wav,audio/Narrative5Situation8.wav,3,2,5,3,,,,,,,,,,,,,,,,,,,,,,,,,,,,,,,,,,,,,,,
,,,,,,65ad7ed5d0b12af4dfa05d75,2024-02-08_07h57.01.319,group3.1-3.2-social-tom,2023.2.2,Win32,20.57613169,65c5074098b851296ff0b7ed,65c515d4cc649ae8122ee593,,,,,,,,,,,,,,,,,,,,,,,,,,,,,572.9751,1,audio/Narrative7Situation9.wav,575.0119,,575.0119,583.6792,"[[61.3,1247],[60.3,1352],[58.4,1456],[58,1560],[58,1664],[58,1768],[55.9,1871],[53.4,1976],[52.4,2080],[52.4,2191],[52.4,2293],[55.6,2405],[57,2512],[58.6,2615],[59.1,2718],[59.1,2822],[59.6,2926],[60.6,3030],[61,3134],[61,3236],[61,3346],[61,3449],[61.7,3551],[65.6,3656],[67.6,3760],[69.8,3864],[71.4,3977],[72.1,4080],[73.8,4190],[73.8,4293],[73.8,4395],[75.3,4503],[77.1,4610],[77.1,4712],[77.1,4818],[77.1,4923],[77.1,5034],[77.1,5147],[77.1,5255],[77.1,5361],[77.1,5467],[77.1,5570],[77.1,5681],[77.1,5783],[77.1,5887],[77.1,5994],[77.1,6098],[77.1,6204],[77.1,6312],[77.1,6421],[77.1,6530],[77.1,6632],[77.1,6734],[77.1,6837],[77.1,6940],[77.1,7046],[77.1,7149],[77.1,7255],[77,7360],[77,7468],[77,7571],[77,7674],[77,7777],[77,7881],[77,7984],[77,8093],[76.7,8201],[76.6,8304],[76.6,8410],[76.6,8513],[76.6,8616]]",1,0,583.6792,586.4979,72.39583333,2.1575,"[{""rating"":72.39583333333334,""responseTime"":2.1575000000000273}]",space,2.1626,,586.4979,Half the time,50,586.4989,,,[],,0,18,18,18,1,audio/Narrative8Situation9.wav,audio/Narrative7Situation9.wav,audio/Narrative6Situation9.wav,audio/Narrative5Situation9.wav,3,2,4,3,,,,,,,,,,,,,,,,,,,,,,,,,,,,,,,,,,,,,,,
,,,,,,65ad7ed5d0b12af4dfa05d75,2024-02-08_07h57.01.319,group3.1-3.2-social-tom,2023.2.2,Win32,20.57613169,65c5074098b851296ff0b7ed,65c515d4cc649ae8122ee593,,,,,,,,,,,,,,,,,,,,,,,,,,,595.6752,598.2393,598.2458,2,audio/Narrative13Situation2.wav,598.2458,,598.2458,628.025,"[[69.9,845],[64.9,950],[63.2,1059],[63.1,1162],[63.1,1264],[63,1367],[62.9,1471],[62.9,1573],[62.9,1675],[62.9,1783],[62.9,1891],[62.9,1994],[62.9,2099],[62.9,2205],[62.9,2312],[62.9,2419],[62.9,2521],[62.9,2623],[62.9,2726],[62.9,2835],[62.9,2937],[58.9,3042],[56.6,3158],[52.5,3276],[50.2,3384],[50,3488],[50,3591],[50,3693],[49.7,3809],[49.2,3912],[48.8,4016],[48.8,4123],[48.8,4233],[48.8,4341],[48.8,4443],[48.8,4551],[48.8,4653],[48.8,4756],[48.8,4865],[48.8,4973],[48.8,5083],[48.8,5185],[48.8,5287],[48.8,5392],[48.8,5500],[48.8,5603],[48.8,5711],[48.6,5815],[48.6,5918],[48.6,6025],[48.6,6128],[48.6,6231],[48.6,6333],[48.6,6441],[48.6,6543],[48.6,6645],[48.6,6748],[48.6,6850],[48.6,6956],[48.6,7063],[48.6,7166],[48.6,7270],[48.6,7374],[48.6,7476],[48.6,7590],[48.6,7695],[48.6,7797],[48.6,7902],[48.6,8005],[48.6,8107],[48.6,8210],[48.6,8314],[48.6,8416],[48.6,8519],[48.6,8622],[48.6,8725],[48.6,8829],[48.6,8931],[48.6,9034],[48.6,9137],[48.6,9241],[48.6,9343],[48.6,9446],[48.6,9550],[48.6,9653],[48.6,9759],[48.6,9866],[48.6,9975],[48.6,10076],[48.6,10181],[48.6,10283],[48.6,10386],[48.6,10497],[48.6,10599],[48.6,10704],[48.6,10806],[48.6,10908],[48.6,11011],[48.6,11115],[48.6,11217],[48.6,11320],[48.6,11423],[48.6,11525],[48.6,11628],[48.6,11731],[48.6,11841],[48.6,11943],[48.6,12045],[48.6,12148],[48.6,12252],[48.6,12360],[48.6,12469],[48.6,12571],[48.6,12674],[48.6,12777],[48.6,12880],[48.6,12983],[48.6,13090],[48.6,13199],[48.6,13306],[48.6,13408],[48.8,13517],[50.8,13626],[52,13736],[52.6,13841],[52.7,13945],[52.7,14058],[53.5,14162],[56.6,14267],[58.5,14376],[58.9,14479],[59.1,14583],[60.9,14687],[61.9,14791],[62.4,14895],[63.6,14999],[64,15103],[64,15206],[64.4,15309],[64.8,15413],[64.8,15517],[64.8,15625],[64.8,15728],[64.8,15831],[64.8,15934],[64.8,16038],[64.8,16145],[64.8,16249],[64.8,16353],[64.8,16460],[64.8,16562],[64.8,16665],[64.8,16769],[64.8,16872],[64.8,16975],[64.8,17077],[64.8,17197],[64.8,17299],[64.8,17401],[64.8,17507],[64.8,17609],[64.8,17712],[64.8,17815],[64.8,17920],[64.8,18023],[64.8,18128],[64.8,18231],[63.3,18338],[60.6,18442],[57.4,18547],[54.1,18652],[51.5,18760],[48.8,18866],[46.8,18971],[44.9,19075],[43.8,19180],[43.8,19286],[43.4,19389],[43.4,19497],[43.4,19600],[43.4,19704],[43.4,19812],[43.4,19914],[43.4,20025],[43.4,20128],[43.4,20232],[43.4,20334],[43.4,20437],[43.4,20546],[43.4,20649],[43.4,20751],[43.4,20855],[43.4,20958],[43.4,21060],[43.4,21166],[43.4,21268],[43.4,21373],[43.4,21476],[46.3,21586],[52.5,21691],[57.8,21796],[64.9,21901],[70.9,22008],[73,22112],[73,22216],[73,22318],[73,22421],[73,22527],[73,22632],[73,22735],[73,22840],[73,22950],[73,23055],[73,23163],[73,23266],[73,23369],[73,23471],[73,23580],[73,23683],[73,23785],[73,23888],[73,23993],[73,24096],[73,24200],[73,24303],[73,24406],[73,24510],[73,24624],[73,24726],[73,24828],[73,24932],[73,25034],[73,25138],[73,25246],[73,25347],[73,25451],[73,25554],[73,25658],[73,25761],[73,25863],[73,25968],[73,26071],[73,26174],[73,26278],[73,26381],[73,26485],[73,26591],[73,26693],[73,26797],[73,26900],[73,27003],[73,27105],[73,27209],[73,27312],[73,27421],[73,27528],[73,27630],[73,27733],[73,27836],[73,27941],[73,28045],[73,28161],[73,28269],[73,28372],[73,28479],[73,28587],[73,28691],[73,28794],[73,28897],[73,29002],[73,29106],[73,29209],[73,29312],[73,29416],[73,29519],[73,29622],[73,29727]]",1,0,628.0251,628.0301,,,[],,,,628.0302,All the time,100,628.031,,,[],,0,0,0,0,1,audio/Narrative13Situation2.wav,audio/Narrative13Situation2.wav,audio/Narrative13Situation2.wav,audio/Narrative13Situation2.wav,2,2,2,2,,,,,586.4994,595.6707,space,8.5931,,,,,,,,,,,,,,,,,,,,,,,,,,,,,,,
,,,,,,65ad7ed5d0b12af4dfa05d75,2024-02-08_07h57.01.319,group3.1-3.2-social-tom,2023.2.2,Win32,20.57613169,65c5074098b851296ff0b7ed,65c515d4cc649ae8122ee593,,,,,,,,,,,,,,,,,,,,,,,,,,,,,628.031,2,audio/Narrative6Situation1.wav,630.0601,,630.0601,656.6926,"[[71.8,1244],[69.3,1349],[67.5,1454],[62.8,1562],[57.6,1666],[55.1,1777],[53.6,1886],[53,1989],[52.7,2094],[52.7,2197],[52.7,2299],[54.8,2408],[55.6,2512],[55.6,2614],[55.6,2723],[55.6,2827],[55.6,2929],[55.6,3032],[55.6,3136],[55.6,3239],[55.6,3344],[55.6,3447],[55.6,3555],[55.6,3658],[55.6,3761],[55.6,3864],[56.9,3970],[67.1,4077],[70.2,4182],[70.5,4285],[73.2,4390],[80.9,4494],[84.7,4599],[84.7,4708],[84.4,4820],[84.2,4923],[84.2,5030],[84.2,5133],[84.2,5236],[84.2,5339],[84.2,5449],[84.2,5556],[84.2,5661],[84.2,5764],[84.2,5868],[84.2,5972],[84.2,6076],[84.2,6179],[84.2,6283],[84.2,6388],[84.2,6495],[84.2,6597],[84.2,6701],[84.2,6803],[84.2,6909],[84.2,7013],[84.2,7115],[84.2,7222],[84.1,7325],[84.1,7428],[84.1,7531],[84.1,7633],[84.1,7735],[84.1,7840],[84.1,7943],[84.1,8046],[84.1,8152],[84.1,8257],[84.1,8360],[84.1,8462],[84.1,8567],[84.1,8670],[84.1,8772],[84.1,8879],[84.1,8980],[84.1,9084],[84.1,9187],[84.1,9291],[84.1,9394],[84.1,9497],[84.1,9600],[84.1,9702],[84.1,9806],[84.1,9913],[84.1,10021],[84.1,10125],[84.1,10232],[84.1,10343],[84.1,10449],[84.1,10560],[84.1,10663],[84.1,10768],[84.1,10870],[84.1,10980],[84.1,11083],[84.1,11186],[84.1,11288],[84.1,11396],[84.1,11498],[84.1,11600],[84.1,11703],[84.1,11806],[84.1,11909],[84.1,12014],[84.1,12121],[84.1,12226],[84.1,12329],[84.1,12432],[84.1,12536],[84.1,12641],[84.1,12744],[84.1,12846],[84.1,12948],[84.1,13058],[84.1,13162],[84.1,13264],[84.1,13369],[84.1,13471],[84.1,13574],[84.1,13677],[84.1,13780],[84.1,13885],[84.1,13988],[84.1,14092],[84.1,14195],[84.1,14301],[84.1,14405],[84.1,14512],[84.1,14615],[84.1,14725],[84.1,14829],[84.1,14931],[84.1,15035],[84.1,15143],[84.1,15245],[84.1,15358],[84.1,15461],[84.1,15569],[84.1,15673],[84.1,15779],[84.1,15887],[84.1,15989],[84.1,16098],[83.9,16204],[83.9,16309],[83.4,16412],[82.9,16516],[82.8,16620],[82.8,16724],[82.8,16827],[82.8,16932],[82.8,17035],[82.8,17139],[82.8,17251],[82.8,17356],[82.8,17464],[82.8,17568],[82.8,17671],[82.8,17773],[82.8,17877],[82.8,17985],[82.8,18088],[82.8,18191],[82.8,18294],[82.8,18405],[82.8,18513],[82.8,18615],[82.8,18718],[82.8,18820],[82.7,18923],[82.3,19028],[82.3,19131],[82.3,19238],[82.3,19348],[82.3,19452],[82.3,19561],[82.3,19663],[82.3,19770],[82.3,19874],[82.3,19977],[82.3,20079],[82.3,20183],[82.3,20287],[82.3,20391],[82.3,20494],[82.3,20597],[82.3,20699],[82.3,20803],[82.3,20906],[82.3,21009],[82.3,21118],[82.3,21221],[82.3,21324],[82.3,21433],[82.3,21541],[82.3,21648],[82.3,21752],[82.3,21863],[82.3,21966],[82.3,22073],[82.3,22176],[82.3,22280],[82.3,22383],[82.3,22486],[82.3,22590],[82.3,22694],[82.3,22799],[82.3,22908],[82.3,23010],[82.3,23115],[82.3,23218],[82.4,23326],[82.7,23435],[83.9,23542],[85,23645],[85.4,23751],[85.4,23857],[85.7,23960],[85.7,24062],[85.7,24175],[85.7,24279],[85.7,24382],[85.7,24485],[85.7,24587],[85.7,24689],[85.7,24795],[85.7,24896],[85.7,25005],[85.7,25115],[85.7,25218],[85.7,25323],[85.7,25431],[85.7,25534],[85.7,25637],[85.7,25740],[85.6,25845],[85.4,25954],[85.2,26059],[85.2,26162],[85.2,26269],[85.2,26375],[85.2,26477],[85.2,26580]]",1,0,656.6926,663.3557,84.0625,2.5737,"[{""rating"":84.0625,""responseTime"":2.57369999998798}]",space,6.0543,,663.3557,All the time,100,663.3605,,,[],,0,1,1,1,1,audio/Narrative7Situation1.wav,audio/Narrative8Situation1.wav,audio/Narrative5Situation1.wav,audio/Narrative6Situation1.wav,2,5,5,2,,,,,,,,,,,,,,,,,,,,,,,,,,,,,,,,,,,,,,,
,,,,,,65ad7ed5d0b12af4dfa05d75,2024-02-08_07h57.01.319,group3.1-3.2-social-tom,2023.2.2,Win32,20.57613169,65c5074098b851296ff0b7ed,65c515d4cc649ae8122ee593,,,,,,,,,,,,,,,,,,,,,,,,,,,,,663.3606,2,audio/Narrative6Situation2.wav,666.3926,,666.3926,694.9702,"[[999,4],[999,112],[999,213],[999,323],[999,426],[999,527],[999,629],[999,738],[999,840],[999,944],[999,1047],[74.7,1151],[74.3,1264],[74.1,1368],[74.1,1471],[74.1,1575],[74.5,1679],[74.6,1782],[74.6,1885],[74.6,1989],[74.6,2092],[74.6,2199],[74.6,2301],[74.6,2404],[74.6,2512],[74.6,2619],[74.6,2733],[74.6,2834],[74.6,2937],[74.6,3043],[74.6,3145],[75.2,3249],[76.5,3356],[76.5,3459],[76.5,3569],[76.5,3675],[76.5,3778],[76.5,3881],[76.5,3988],[76.5,4093],[76.5,4197],[76.5,4301],[76.5,4408],[76.5,4510],[76.5,4613],[76.5,4723],[76.5,4832],[76.5,4938],[76.5,5040],[76.5,5142],[76.5,5245],[76.5,5348],[76.5,5451],[76.5,5561],[76.5,5669],[76.5,5773],[76.5,5886],[76.5,5996],[76.5,6097],[76.5,6200],[76.5,6304],[76,6415],[75.5,6518],[74,6621],[71.9,6725],[70.5,6835],[68.5,6942],[67.3,7045],[67.2,7148],[67.2,7256],[67.2,7358],[67.2,7468],[67.2,7570],[67.2,7679],[67.2,7782],[67.2,7886],[67.2,7990],[67.2,8093],[67.2,8199],[67.2,8305],[67.2,8408],[67.2,8511],[67.2,8617],[67.2,8727],[67.2,8833],[67.2,8935],[67.2,9044],[67.2,9149],[67.2,9256],[67.2,9359],[67.2,9462],[67.2,9564],[67.2,9674],[67.2,9777],[67.2,9886],[67.2,9990],[67.2,10094],[67.2,10197],[67.2,10307],[67.2,10410],[67.2,10512],[67.2,10616],[67.2,10723],[67.2,10826],[67.2,10931],[67.2,11034],[67.2,11137],[67.2,11241],[67.2,11344],[67.2,11454],[67.2,11557],[67.2,11665],[67.2,11768],[67.2,11871],[67.2,11974],[67.2,12077],[67.2,12180],[67.2,12283],[67.2,12388],[67.2,12491],[67.2,12598],[67.2,12700],[67.2,12805],[67.2,12912],[67.2,13016],[67.2,13124],[67.2,13232],[67.2,13335],[67.2,13439],[67.2,13543],[67.2,13646],[67.2,13751],[67.2,13861],[67.2,13965],[67.2,14069],[65.8,14178],[64.9,14289],[64.1,14394],[63.6,14497],[62.4,14602],[61.5,14712],[61.3,14819],[61.3,14921],[61.3,15024],[61.1,15136],[60.6,15239],[60.4,15342],[59.8,15449],[59.3,15555],[58.5,15663],[57.9,15770],[57.8,15875],[57.8,15985],[57.6,16087],[57.2,16191],[56.5,16295],[55.8,16402],[55.5,16512],[55.5,16612],[55.4,16718],[55.2,16823],[55.2,16933],[55.2,17037],[55.2,17140],[55.2,17244],[55.2,17347],[55.2,17451],[55.2,17556],[55.2,17658],[55.2,17762],[55.2,17866],[55.2,17969],[55.2,18077],[55.2,18182],[55.2,18287],[55.2,18393],[55.2,18497],[55.2,18600],[55.2,18703],[55.2,18807],[55.2,18917],[55.2,19020],[55.2,19123],[55.2,19227],[55.2,19330],[55.2,19439],[55.2,19544],[55.2,19647],[55.2,19749],[55.2,19852],[55.2,19955],[55.2,20067],[55.4,20173],[56.9,20282],[57.6,20392],[58.9,20496],[60.4,20602],[62.2,20706],[64.2,20811],[64.6,20917],[65.5,21021],[65.8,21124],[66.8,21231],[67.5,21335],[68.2,21441],[68.2,21544],[68.2,21648],[68.2,21753],[68.2,21856],[68.2,21960],[68.2,22062],[68.2,22166],[68.2,22270],[68.2,22373],[68.2,22476],[68.2,22578],[68.2,22684],[68.2,22791],[68.2,22894],[68.2,22998],[68.2,23106],[68.2,23209],[68.2,23312],[68.2,23416],[68.2,23520],[68.2,23623],[68.2,23726],[68.2,23835],[68.2,23937],[68.2,24040],[68.2,24143],[68.2,24246],[68.2,24351],[68.2,24458],[68.2,24560],[68.2,24663],[68.2,24768],[68.2,24873],[68.2,24975],[68.2,25079],[68.2,25189],[68.2,25292],[68.2,25395],[68.2,25500],[68.2,25603],[68.2,25706],[68.2,25808],[68.2,25911],[65.6,26020],[63.6,26123],[62.3,26227],[61.3,26331],[61.3,26436],[61.3,26541],[61.3,26644],[61.3,26751],[61.3,26855],[61.3,26957],[61.3,27062],[61.3,27166],[61.3,27269],[61.3,27375],[61.3,27478],[61.3,27583],[61.3,27686],[61.3,27793],[61.3,27896],[61.3,28000],[61.3,28103],[61.3,28206],[61.3,28309],[61.3,28419],[61.3,28523]]",1,0,694.9702,697.252,67.08333333,1.604,"[{""rating"":67.08333333333334,""responseTime"":1.6039999999999281}]",space,1.6214,,697.2521,Half the time,50,702.5389,49.6875,3.4455,"[{""rating"":49.6875,""responseTime"":3.4454999999999245}]",space,0,2,2,2,1,audio/Narrative7Situation2.wav,audio/Narrative8Situation2.wav,audio/Narrative5Situation2.wav,audio/Narrative6Situation2.wav,3,3,3,3,,,4.637,,,,,,,,,,,,,,,,,,,,,,,,,,,,,,,,,,,,
,,,,,,65ad7ed5d0b12af4dfa05d75,2024-02-08_07h57.01.319,group3.1-3.2-social-tom,2023.2.2,Win32,20.57613169,65c5074098b851296ff0b7ed,65c515d4cc649ae8122ee593,,,,,,,,,,,,,,,,,,,,,,,,,,,,,702.5391,2,audio/Narrative6Situation3.wav,707.5904,,707.5904,720.2477,"[[999,4],[999,108],[999,211],[999,313],[999,418],[999,519],[999,623],[999,729],[999,835],[999,936],[999,1038],[999,1140],[999,1244],[999,1346],[64.7,1450],[64.1,1558],[63.5,1663],[63.5,1773],[63.5,1876],[63.5,1979],[63.5,2082],[63.5,2188],[63.5,2297],[63.5,2408],[63.5,2511],[63.5,2617],[63.5,2727],[63.5,2830],[63.5,2939],[63.5,3049],[63.5,3159],[63.5,3262],[63.5,3366],[63.5,3468],[63.5,3574],[63.5,3678],[63.5,3781],[63.5,3889],[64.6,3998],[67.2,4102],[70.4,4210],[73.2,4317],[75.2,4427],[77.3,4531],[80.5,4635],[80.8,4744],[80.8,4852],[80.8,4954],[80.8,5057],[80.8,5158],[80.8,5271],[80.8,5373],[80.8,5477],[80.8,5580],[80.8,5684],[80.8,5791],[80.8,5894],[80.8,5997],[80.8,6100],[80.8,6208],[80.8,6311],[80.8,6418],[80.8,6527],[80.8,6629],[80.8,6732],[80.8,6839],[80.8,6947],[80.8,7051],[80.8,7153],[80.8,7260],[80.8,7363],[80.8,7471],[80.8,7574],[80.8,7679],[80.8,7781],[80.8,7884],[80.8,7988],[80.8,8092],[80.8,8194],[80.8,8297],[81.6,8405],[81.7,8514],[81.7,8622],[81.7,8731],[81.9,8833],[82,8937],[82.1,9040],[82.7,9144],[82.9,9252],[82.9,9362],[82.9,9469],[82.9,9572],[82.9,9675],[82.9,9784],[82.9,9888],[82.9,9991],[82.9,10097],[82.9,10200],[82.9,10304],[82.9,10408],[82.9,10511],[82.9,10614],[82.9,10722],[82.9,10825],[82.9,10928],[84,11037],[85.9,11156],[87.5,11267],[87.8,11377],[87.8,11482],[87.8,11586],[87.5,11704],[87.5,11813],[87.5,11915],[87.5,12022],[87.5,12126],[87.5,12236],[87.5,12344],[87.5,12449],[87.5,12554],[87.5,12657]]",1,0,720.2477,722.1296,82.39583333,1.4395,"[{""rating"":82.39583333333333,""responseTime"":1.4394999999999527}]",space,1.2236,,722.1296,All the time,100,722.1306,,,[],,0,3,3,3,1,audio/Narrative7Situation3.wav,audio/Narrative8Situation3.wav,audio/Narrative5Situation3.wav,audio/Narrative6Situation3.wav,8,4,3,5,,,,,,,,,,,,,,,,,,,,,,,,,,,,,,,,,,,,,,,
,,,,,,65ad7ed5d0b12af4dfa05d75,2024-02-08_07h57.01.319,group3.1-3.2-social-tom,2023.2.2,Win32,20.57613169,65c5074098b851296ff0b7ed,65c515d4cc649ae8122ee593,,,,,,,,,,,,,,,,,,,,,,,,,,,,,722.1307,2,audio/Narrative6Situation4.wav,724.145,,724.145,736.8051,"[[81.5,2064],[80.2,2168],[79.9,2274],[79.9,2378],[79.9,2481],[79.9,2584],[80.5,2688],[80.6,2792],[80.6,2894],[80.6,2998],[80.6,3103],[80.6,3208],[80.6,3315],[80.6,3423],[80.6,3526],[80.4,3634],[78.9,3738],[77,3847],[75.9,3952],[74.4,4056],[73.3,4160],[72.3,4287],[72.1,4397],[71.4,4502],[70.9,4606],[70.9,4709],[70.9,4812],[70.9,4915],[70.9,5018],[70.9,5125],[70.9,5229],[70.9,5332],[70.9,5437],[70.9,5540],[70.9,5644],[70.9,5748],[70.9,5854],[70.9,5960],[70.9,6062],[70.9,6165],[71.4,6270],[72.8,6374],[73,6478],[74.6,6589],[75,6692],[76.7,6797],[77.3,6900],[77.3,7003],[77.3,7112],[77.3,7217],[77.3,7319],[77.3,7426],[77.3,7534],[77.3,7639],[77.3,7745],[77.3,7848],[77.3,7951],[77.3,8060],[77.3,8163],[77.3,8271],[77.3,8373],[77.3,8477],[77.3,8581],[77.3,8684],[77.3,8788],[77.3,8890],[77.3,8993],[77.3,9096],[77.3,9206],[77.3,9313],[77.3,9419],[77.3,9522],[77.3,9626],[77.3,9735],[78.5,9839],[79.6,9943],[80.9,10048],[81,10150],[81,10253],[81,10361],[81,10467],[81,10571],[81,10677],[81,10781],[81,10884],[81,10986],[81,11090],[81,11197],[81,11301],[81.4,11405],[84.1,11509],[84.2,11616],[84.2,11719],[84.2,11822],[84.2,11925],[84.2,12030],[84.2,12133],[84.2,12243],[84.2,12346],[84.2,12449],[84.2,12556],[84.2,12659]]",1,0,736.8052,739.7927,82.39583333,1.051,"[{""rating"":82.39583333333333,""responseTime"":1.0510000000000446}]",space,2.3293,,739.7927,Not at all,0,739.7938,,,[],,0,4,4,4,1,audio/Narrative7Situation4.wav,audio/Narrative8Situation4.wav,audio/Narrative5Situation4.wav,audio/Narrative6Situation4.wav,3,3,1,2,,,,,,,,,,,,,,,,,,,,,,,,,,,,,,,,,,,,,,,
,,,,,,65ad7ed5d0b12af4dfa05d75,2024-02-08_07h57.01.319,group3.1-3.2-social-tom,2023.2.2,Win32,20.57613169,65c5074098b851296ff0b7ed,65c515d4cc649ae8122ee593,,,,,,,,,,,,,,,,,,,,,,,,,,,,,739.7939,2,audio/Narrative6Situation5.wav,741.8053,,741.8053,749.8108,"[[81.9,105],[81.7,208],[81.5,311],[81.1,415],[80.9,522],[80.6,631],[79.9,741],[77.9,847],[77.2,956],[77.1,1057],[77,1162],[76.8,1265],[76.8,1371],[76.8,1475],[76.8,1579],[76.8,1681],[76.8,1783],[76.8,1892],[76.8,1994],[76.8,2098],[76.8,2202],[76.8,2308],[76.8,2411],[76.8,2515],[76.8,2619],[76.8,2723],[76.8,2826],[76.8,2930],[76.8,3033],[76.8,3136],[76.8,3244],[76.8,3348],[76.8,3452],[76.8,3556],[76.8,3659],[76.8,3766],[76.8,3868],[76.8,3972],[76.8,4078],[76.8,4182],[76.8,4285],[76.8,4389],[76.8,4492],[76.8,4605],[76.8,4709],[76.8,4817],[76.8,4921],[76.8,5025],[76.8,5131],[76.8,5234],[76.8,5337],[76.8,5441],[76.8,5544],[76.8,5652],[76.8,5755],[76.8,5859],[76.8,5961],[76.8,6067],[76.8,6172],[76.8,6279],[76.8,6382],[76.8,6490],[76.8,6597],[76.8,6699],[76.8,6803],[76.8,6908],[76.8,7013],[76.8,7115],[76.8,7219],[76.8,7322],[75.7,7427],[71.7,7536],[70.2,7639],[69.7,7745],[65.5,7850],[62.6,7954]]",1,0,749.8109,751.3708,67.1875,1.1616,"[{""rating"":67.1875,""responseTime"":1.16159999996421}]",space,0.9043,,751.3708,Half the time,50,751.3719,,,[],,0,5,5,5,1,audio/Narrative7Situation5.wav,audio/Narrative8Situation5.wav,audio/Narrative5Situation5.wav,audio/Narrative6Situation5.wav,5,2,5,2,,,,,,,,,,,,,,,,,,,,,,,,,,,,,,,,,,,,,,,
,,,,,,65ad7ed5d0b12af4dfa05d75,2024-02-08_07h57.01.319,group3.1-3.2-social-tom,2023.2.2,Win32,20.57613169,65c5074098b851296ff0b7ed,65c515d4cc649ae8122ee593,,,,,,,,,,,,,,,,,,,,,,,,,,,,,751.3719,2,audio/Narrative6Situation6.wav,753.3818,,753.3818,764.5154,"[[72,828],[72.1,1144],[72,1249],[72,1357],[71.8,1464],[71.6,1567],[71.6,1670],[71.6,1775],[71.6,1879],[71.6,1988],[71.6,2090],[71.6,2194],[71.6,2297],[71.6,2404],[71.6,2512],[71.6,2620],[71.6,2723],[71.6,2826],[71.6,2931],[72.3,3034],[74.4,3138],[74.4,3248],[74.4,3350],[74.4,3456],[74.4,3560],[74.4,3663],[74.4,3768],[74.4,3871],[74.4,3971],[74.4,4075],[74.4,4178],[74.4,4288],[74.4,4391],[74.4,4505],[74.4,4610],[74.4,4713],[74.4,4817],[74.4,4922],[74.4,5030],[74.4,5133],[74.4,5236],[74.4,5338],[74.4,5441],[74.4,5546],[74.4,5652],[74.4,5755],[74.4,5860],[74.4,5964],[73.6,6073],[72.5,6176],[71,6283],[69.1,6393],[66.9,6501],[65.4,6604],[63.8,6713],[62.1,6817],[61.8,6922],[61.8,7026],[61.8,7129],[61.8,7240],[61.8,7341],[61.8,7444],[61.8,7547],[60.3,7655],[56.6,7779],[56.3,7886],[56.3,7989],[56.3,8092],[56.3,8195],[56.3,8302],[56.3,8405],[56.3,8512],[56.3,8616],[56.3,8720],[56.3,8823],[56.3,8926],[56.3,9029],[56.3,9137],[56.3,9240],[56.3,9344],[56.7,9447],[61.5,9553],[64.6,9658],[65.7,9764],[67.6,9868],[68,9972],[68,10075],[69.6,10188],[69.7,10291],[69.7,10393],[69.7,10498],[69.7,10601],[69.7,10717],[69.7,10825],[69.7,10927],[69.7,11030],[69.7,11133]]",1,0,764.5155,767.4612,66.77083333,1.2729,"[{""rating"":66.77083333333333,""responseTime"":1.2729000000357473}]",space,2.2807,,767.4613,Half the time,50,767.4619,,,[],,0,6,6,6,1,audio/Narrative7Situation6.wav,audio/Narrative8Situation6.wav,audio/Narrative5Situation6.wav,audio/Narrative6Situation6.wav,3,2,3,2,,,,,,,,,,,,,,,,,,,,,,,,,,,,,,,,,,,,,,,
,,,,,,65ad7ed5d0b12af4dfa05d75,2024-02-08_07h57.01.319,group3.1-3.2-social-tom,2023.2.2,Win32,20.57613169,65c5074098b851296ff0b7ed,65c515d4cc649ae8122ee593,,,,,,,,,,,,,,,,,,,,,,,,,,,,,767.462,2,audio/Narrative6Situation7.wav,772.4712,,772.4712,797.3825,"[[64.5,416],[68.9,519],[68.9,629],[68.9,737],[68.9,846],[68.9,955],[68.9,1057],[68.9,1160],[68.9,1264],[68.9,1368],[68.9,1473],[68.9,1576],[68.9,1680],[68.9,1796],[68.9,1899],[68.9,2002],[68.9,2113],[68.9,2224],[68.9,2329],[68.9,2432],[68.9,2540],[66,2644],[64.1,2750],[62.5,2856],[60.1,2971],[58.1,3087],[57.8,3189],[57.8,3294],[57.8,3397],[57.8,3506],[57.8,3614],[57.8,3716],[57.8,3823],[57.8,3931],[57.8,4034],[57.8,4137],[57.8,4240],[57.8,4344],[57.8,4448],[57.8,4554],[57.8,4657],[57.8,4765],[60.6,4874],[63,4983],[64.6,5095],[65.1,5205],[66,5310],[66.8,5419],[67.4,5526],[67.8,5630],[68.3,5736],[68.9,5845],[69.5,5949],[69.9,6055],[70.8,6165],[72,6287],[73.5,6395],[75.3,6500],[77.2,6612],[78.3,6716],[78.6,6820],[79.1,6924],[79.6,7036],[79.8,7144],[80.2,7252],[80.3,7354],[80.3,7456],[80.3,7559],[80.3,7662],[80.3,7770],[80.3,7873],[80.3,7976],[80.3,8079],[80.3,8182],[80.3,8291],[80.3,8394],[80.3,8498],[80.3,8602],[80.3,8710],[80.3,8822],[80.3,8928],[80.3,9031],[80.3,9134],[80.3,9242],[80.3,9344],[80.3,9461],[80.3,9564],[80.3,9673],[80.3,9775],[80.3,9878],[80.3,9982],[80.3,10086],[80.3,10188],[80.3,10293],[80.3,10396],[80.3,10502],[80.3,10605],[80.3,10709],[80.3,10815],[80.3,10918],[80.3,11020],[80.3,11123],[80.3,11226],[80.3,11330],[80.3,11434],[80.3,11537],[80.3,11640],[80.3,11744],[80.3,11851],[80.3,11957],[80.3,12059],[80.3,12164],[80.3,12268],[80.3,12370],[80.3,12474],[80.3,12579],[80.3,12681],[80.3,12784],[80.3,12887],[80.3,12992],[80.3,13100],[80.3,13203],[80.3,13307],[80.3,13410],[80.3,13514],[80.3,13617],[80.3,13722],[80.3,13826],[80.3,13928],[80.3,14032],[80.3,14135],[80.3,14239],[80.3,14347],[80.3,14450],[80.3,14552],[80.3,14656],[80.3,14758],[80.3,14862],[80.3,14967],[80.3,15078],[80.3,15189],[80.3,15299],[80.3,15405],[80.3,15511],[80.3,15616],[80.3,15719],[80.3,15822],[80.3,15931],[80.3,16034],[80.3,16136],[80.3,16244],[80.2,16348],[80.2,16455],[80.2,16558],[80.2,16661],[80.2,16764],[80.2,16872],[80.2,16976],[80.2,17079],[80.2,17182],[80.2,17286],[80.2,17390],[80.2,17499],[80.2,17605],[80.1,17713],[80.1,17815],[80.1,17921],[80,18028],[80,18132],[80,18235],[80,18338],[80,18442],[80,18545],[80,18648],[80,18756],[79.9,18862],[79.9,18964],[79.9,19072],[79.9,19174],[79.9,19276],[79.9,19380],[79.9,19483],[79.9,19595],[79.9,19697],[79.9,19800],[79.9,19907],[79.9,20016],[79.9,20124],[79.9,20227],[79.9,20337],[79.9,20439],[79.9,20541],[79.9,20645],[79.9,20749],[79.9,20851],[79.9,20954],[79.9,21058],[79.9,21161],[79.9,21264],[79.9,21374],[79.9,21477],[79.9,21580],[79.9,21683],[79.9,21788],[79.9,21895],[79.9,21997],[79.9,22101],[77.2,22209],[76.9,22314],[76.9,22418],[76.9,22522],[76.9,22625],[76.9,22728],[75.7,22832],[74.1,22954],[74.1,23063],[74.1,23167],[74.1,23271],[74.1,23380],[74.1,23483],[74.1,23586],[74.1,23694],[74.1,23802],[74.1,23909],[74.1,24015],[74.1,24118],[74.1,24222],[74.1,24324],[74.1,24431],[73.8,24539],[73.8,24647],[73.8,24753],[73.6,24859]]",1,0,797.3826,802.7775,74.27083333,3.2107,"[{""rating"":74.27083333333333,""responseTime"":3.210699999988151}]",space,4.7865,,802.7775,Half the time,50,802.7781,,,[],,0,7,7,7,1,audio/Narrative7Situation7.wav,audio/Narrative8Situation7.wav,audio/Narrative5Situation7.wav,audio/Narrative6Situation7.wav,5,3,4,5,,,,,,,,,,,,,,,,,,,,,,,,,,,,,,,,,,,,,,,
,,,,,,65ad7ed5d0b12af4dfa05d75,2024-02-08_07h57.01.319,group3.1-3.2-social-tom,2023.2.2,Win32,20.57613169,65c5074098b851296ff0b7ed,65c515d4cc649ae8122ee593,,,,,,,,,,,,,,,,,,,,,,,,,,,,,802.7782,2,audio/Narrative6Situation8.wav,807.819,,807.819,814.716,"[[999,4],[999,109],[999,211],[999,317],[999,420],[999,522],[999,625],[999,734],[999,841],[73.1,967],[72.2,1077],[72.2,1179],[72.2,1283],[72.2,1387],[71.8,1491],[66.5,1604],[64.8,1710],[63,1814],[62,1919],[58.6,2029],[57.4,2135],[57.4,2241],[57.4,2344],[57.4,2448],[57.4,2552],[57.4,2656],[57.4,2759],[57.4,2863],[57.4,2970],[57.4,3073],[57.4,3185],[57.4,3288],[57.4,3393],[57.4,3496],[57.4,3600],[57.4,3704],[57.4,3811],[57.4,3915],[57.4,4019],[57.4,4123],[57.4,4226],[57.4,4331],[57.4,4435],[57.4,4540],[56.5,4643],[55.1,4752],[54.1,4856],[53.4,4960],[53.4,5064],[53.4,5167],[53.4,5271],[53.4,5375],[53.1,5479],[50.9,5589],[50.7,5693],[50.2,5796],[49.2,5901],[49.2,6005],[49.2,6113],[49.2,6216],[49.2,6323],[49.2,6426],[49.2,6530],[49.2,6640],[49.2,6741],[49.2,6845]]",1,0,814.7161,818.5952,54.0625,1.1123,"[{""rating"":54.0625,""responseTime"":1.1123000000118282}]",space,3.224,,818.5953,Not at all,0,818.6005,,,[],,0,8,8,8,1,audio/Narrative7Situation8.wav,audio/Narrative8Situation8.wav,audio/Narrative5Situation8.wav,audio/Narrative6Situation8.wav,2,3,3,5,,,,,,,,,,,,,,,,,,,,,,,,,,,,,,,,,,,,,,,
,,,,,,65ad7ed5d0b12af4dfa05d75,2024-02-08_07h57.01.319,group3.1-3.2-social-tom,2023.2.2,Win32,20.57613169,65c5074098b851296ff0b7ed,65c515d4cc649ae8122ee593,,,,,,,,,,,,,,,,,,,,,,,,,,,,,818.6006,2,audio/Narrative6Situation9.wav,822.6027,,822.6027,832.6148,"[[53.6,935],[53.3,1040],[53.3,1147],[53.9,1250],[53.9,1355],[53.9,1458],[53.9,1561],[53.9,1667],[53.9,1778],[53.9,1881],[53.9,1984],[53.9,2091],[53.9,2201],[53.9,2303],[53.9,2411],[53.9,2513],[53.9,2617],[53.9,2719],[53.9,2826],[53.9,2935],[53.9,3038],[53.9,3142],[53.9,3246],[53.9,3349],[53.9,3452],[53.9,3556],[53.9,3660],[53.9,3763],[53.9,3866],[53.9,3970],[53.9,4079],[53.9,4182],[53.9,4287],[53.9,4389],[53.9,4491],[53.9,4595],[53.9,4699],[53.9,4808],[53.9,4915],[53.9,5019],[53.9,5122],[53.9,5230],[53.9,5333],[53.8,5442],[53.8,5550],[53.8,5653],[53.8,5755],[53.8,5859],[53.9,5963],[56.1,6072],[57.1,6178],[57.6,6281],[59.3,6385],[60.3,6490],[61.3,6594],[61.5,6697],[61.5,6800],[62.6,6908],[62.7,7012],[62.7,7114],[62.7,7218],[62.7,7326],[62.7,7428],[62.7,7537],[62.7,7646],[62.7,7759],[62.7,7863],[62.7,7966],[62.7,8079],[62.7,8187],[62.7,8290],[62.7,8392],[62.7,8500],[62.7,8606],[62.7,8707],[62.7,8811],[62.7,8915],[62.7,9017],[62.7,9121],[62.7,9229],[62.7,9333],[62.7,9436],[62.7,9546],[62.7,9650],[62.7,9752],[62.7,9856],[62.7,9960]]",1,0,832.6149,834.1859,63.64583333,1.0615,"[{""rating"":63.645833333333336,""responseTime"":1.0615000000000236}]",space,0.9657,,834.186,Not at all,0,834.1865,,,[],,0,9,9,9,1,audio/Narrative7Situation9.wav,audio/Narrative8Situation9.wav,audio/Narrative5Situation9.wav,audio/Narrative6Situation9.wav,2,3,3,4,,,,,,,,,,,,,,,,,,,,,,,,,,,,,,,,,,,,,,,
,,,,,,65ad7ed5d0b12af4dfa05d75,2024-02-08_07h57.01.319,group3.1-3.2-social-tom,2023.2.2,Win32,20.57613169,65c5074098b851296ff0b7ed,65c515d4cc649ae8122ee593,,,,,,,,,,,,,,,,,,,,,,,,,,,,,834.1866,2,audio/Narrative5Situation1.wav,839.2196,,839.2196,852.5772,"[[62.7,838],[60.9,942],[60.4,1046],[59.1,1151],[59,1253],[57,1366],[53.9,1477],[52.9,1580],[52.2,1685],[50.9,1792],[49.7,1902],[49.6,2007],[49.6,2109],[49.6,2228],[49.6,2335],[49.6,2444],[49.6,2547],[49.6,2656],[49.6,2759],[49.6,2866],[49.6,2971],[49.6,3074],[49.6,3177],[49.6,3280],[49.6,3383],[49.6,3487],[49.6,3596],[49.6,3699],[49.6,3803],[49.6,3906],[49.6,4009],[49.6,4114],[49.6,4214],[49.6,4320],[49.6,4423],[49.6,4527],[49.6,4637],[49.6,4745],[49.6,4856],[49.6,4960],[47,5065],[44.6,5176],[44.5,5283],[44.2,5390],[42.7,5494],[42.6,5603],[42.6,5705],[42.6,5815],[42.6,5925],[42.6,6029],[42.6,6131],[42.6,6236],[42.6,6341],[42.6,6444],[42.6,6549],[42.6,6653],[42.6,6760],[42.6,6865],[42.6,6968],[42.6,7072],[42.6,7182],[43.6,7286],[50.7,7392],[55,7503],[55,7610],[55,7713],[55,7816],[55,7924],[55,8029],[55,8131],[55,8235],[55,8338],[54.6,8443],[52.8,8548],[51.9,8658],[51.8,8763],[51.5,8866],[51.1,8971],[51,9075],[51,9179],[50.8,9282],[50.6,9391],[50.6,9493],[50.6,9597],[50.6,9700],[50.6,9805],[50.2,9909],[50,10012],[50,10115],[50,10219],[50,10324],[50,10427],[50,10531],[50,10634],[50,10738],[50,10843],[50,10950],[50,11052],[50,11156],[50,11266],[50,11369],[50,11474],[49,11578],[47.9,11682],[46,11787],[44.1,11892],[42.5,11996],[41.1,12101],[40.2,12206],[39.9,12310],[39.5,12413],[39.5,12519],[39.4,12625],[39.4,12730],[39.4,12834],[39.4,12937],[39.4,13041],[39.4,13145],[39.4,13250],[39.4,13357]]",1,0,852.5772,855.0227,47.29166667,1.4431,"[{""rating"":47.291666666666664,""responseTime"":1.4431000000238328}]",space,1.7924,,855.0228,Not at all,0,855.0234,,,[],,0,10,10,10,1,audio/Narrative8Situation1.wav,audio/Narrative7Situation1.wav,audio/Narrative6Situation1.wav,audio/Narrative5Situation1.wav,5,2,2,5,,,,,,,,,,,,,,,,,,,,,,,,,,,,,,,,,,,,,,,
,,,,,,65ad7ed5d0b12af4dfa05d75,2024-02-08_07h57.01.319,group3.1-3.2-social-tom,2023.2.2,Win32,20.57613169,65c5074098b851296ff0b7ed,65c515d4cc649ae8122ee593,,,,,,,,,,,,,,,,,,,,,,,,,,,,,855.0234,2,audio/Narrative5Situation2.wav,858.056,,858.0561,887.5931,"[[47,841],[46.7,946],[46.7,1050],[46.7,1157],[46.7,1263],[46.7,1371],[46.7,1477],[46.7,1580],[46.7,1685],[46.7,1792],[44.9,1898],[44.1,2006],[43,2111],[40.6,2220],[39.7,2325],[39.7,2428],[38.5,2537],[37.5,2645],[37.4,2747],[37.4,2852],[37.4,2956],[37.4,3060],[37.4,3164],[37.4,3266],[37.4,3371],[37.4,3475],[37.4,3578],[37.4,3683],[37.4,3786],[37.4,3897],[37.4,4002],[37.4,4105],[37.4,4212],[37.4,4322],[37.4,4426],[39,4532],[44.4,4637],[46.5,4742],[47.5,4851],[50.1,4963],[52.3,5071],[53.4,5174],[54.1,5282],[54.5,5387],[55.5,5490],[55.7,5594],[55.7,5704],[55.7,5811],[56,5929],[56,6032],[56.9,6143],[57.8,6248],[58.2,6360],[58.8,6465],[59.2,6579],[59.2,6681],[59.7,6786],[60.1,6891],[60.2,6994],[60.2,7097],[60.2,7201],[60.4,7306],[60.8,7415],[60.9,7519],[60.9,7622],[60.9,7727],[60.9,7830],[60.9,7934],[60.9,8037],[60.9,8141],[60.9,8244],[60.9,8355],[60.9,8460],[60.9,8565],[60.9,8667],[60.9,8773],[60.9,8876],[60.9,8984],[60.9,9086],[60.9,9190],[60.9,9298],[60.9,9401],[60.9,9504],[60.9,9609],[60.9,9712],[60.9,9819],[60.9,9923],[60.9,10027],[60.9,10131],[60.9,10238],[60.9,10345],[60.9,10448],[60.9,10552],[60.9,10656],[60.9,10759],[60.9,10866],[60.9,10975],[60.9,11078],[60.9,11181],[60.9,11289],[60.9,11392],[60.9,11496],[60.9,11598],[60.9,11705],[60.9,11815],[60.9,11925],[60.9,12033],[60.9,12136],[60.9,12243],[60.9,12349],[60.9,12452],[60.9,12556],[60.9,12659],[60.9,12762],[60.9,12872],[60.9,12976],[60.9,13085],[60.9,13188],[60.9,13291],[60.9,13401],[60.9,13505],[60.9,13607],[60.9,13714],[60.9,13818],[61.9,13931],[62.9,14038],[63.3,14142],[64.7,14246],[65.9,14351],[67.2,14456],[67.3,14559],[67.3,14662],[67.3,14766],[67.3,14869],[67.3,14979],[67.3,15086],[67.3,15189],[67.3,15292],[67.3,15399],[67.3,15503],[67.3,15607],[67.3,15710],[67.3,15817],[67.3,15920],[67.3,16033],[67.3,16136],[67.3,16243],[67.3,16352],[67.3,16460],[67.3,16562],[67.3,16665],[67.3,16768],[67.3,16873],[67,16981],[66.9,17085],[66.6,17189],[66,17300],[65.7,17403],[65.4,17508],[65.1,17612],[65.1,17719],[65.1,17831],[65,17934],[64.9,18038],[64.7,18144],[64.5,18248],[64.5,18351],[64.5,18458],[64.5,18561],[64.5,18666],[64.5,18776],[64.5,18879],[64.5,18985],[64.5,19089],[64.5,19199],[64.5,19303],[64.5,19407],[64.5,19509],[64.5,19612],[64.5,19722],[64.5,19825],[64.5,19929],[64.5,20037],[64.5,20146],[64.5,20251],[64.5,20354],[64.5,20456],[64.5,20560],[64.5,20665],[64.5,20769],[64.5,20871],[64.5,20976],[64.5,21079],[64.5,21181],[64.5,21292],[64.5,21394],[64.5,21500],[64.5,21612],[64.5,21718],[64.5,21827],[64.5,21933],[64.5,22043],[64.5,22155],[64.5,22269],[64.5,22384],[64.5,22495],[64.5,22604],[64.5,22716],[64.5,22824],[64.5,22931],[64.5,23039],[64.5,23147],[64.5,23250],[64.5,23357],[70.1,24218],[69.8,24321],[69.3,24426],[69.1,24531],[69.1,24636],[69.1,24740],[69.1,24842],[69.1,24946],[69.1,25048],[69.1,25160],[69.1,25263],[69.1,25370],[69.1,25477],[69.1,25585],[69.1,25689],[69.1,25795],[69.1,25904],[69.1,26006],[69.1,26114],[69.1,26221],[69.1,26329],[68.8,26432],[67.8,26536],[67.1,26640],[66.3,26744],[65,26849],[64.1,26959],[63.8,27062],[63.3,27168],[62.8,27271],[62.5,27375],[62.4,27479],[62.4,27585],[62.4,27688],[62.4,27797],[62.4,27900],[62.4,28009],[62.4,28114],[62.4,28217],[62.4,28325],[62.4,28428],[62.4,28532],[62.4,28636],[62.4,28744],[62.4,28847],[62.4,28955],[62.4,29058],[62.4,29161],[62.4,29265],[62.4,29373],[62.4,29485]]",1,0,887.5932,890.7671,59.375,1.3864,"[{""rating"":59.375,""responseTime"":1.3863999999761063}]",space,2.5683,,890.7672,Half the time,50,890.7682,,,[],,0,11,11,11,1,audio/Narrative8Situation2.wav,audio/Narrative7Situation2.wav,audio/Narrative6Situation2.wav,audio/Narrative5Situation2.wav,3,3,3,3,,,,,,,,,,,,,,,,,,,,,,,,,,,,,,,,,,,,,,,
,,,,,,65ad7ed5d0b12af4dfa05d75,2024-02-08_07h57.01.319,group3.1-3.2-social-tom,2023.2.2,Win32,20.57613169,65c5074098b851296ff0b7ed,65c515d4cc649ae8122ee593,,,,,,,,,,,,,,,,,,,,,,,,,,,,,890.7683,2,audio/Narrative5Situation3.wav,893.7836,,893.7836,907.7461,"[[999,0],[999,102],[999,207],[999,311],[999,416],[999,517],[999,620],[999,737],[999,839],[999,943],[999,1050],[999,1153],[999,1254],[999,1357],[54.8,1459],[54,1564],[53.9,1668],[53.6,1776],[53.4,1880],[53.4,1987],[53.4,2091],[53.4,2193],[53.4,2302],[53.4,2405],[53.4,2508],[53.4,2612],[53.4,2713],[53.4,2817],[53.4,2920],[57.8,3024],[61.9,3129],[61.9,3236],[62.7,3340],[63.1,3445],[63.1,3551],[63.1,3655],[64.1,3762],[65.2,3867],[66.7,3975],[68,4080],[68,4185],[68,4293],[68,4395],[68,4500],[68,4603],[68,4706],[68,4808],[68,4927],[68,5041],[68,5144],[68,5249],[68,5351],[68,5455],[68,5559],[68,5662],[68,5772],[68,5875],[68,5980],[68,6083],[68,6186],[68,6289],[68,6393],[68,6496],[68,6599],[68,6706],[68,6812],[68,6915],[68,7021],[68,7124],[68,7230],[68,7335],[68,7440],[68,7543],[68,7647],[68,7753],[68,7858],[68,7962],[68,8065],[68,8168],[68,8276],[68,8379],[68,8483],[68,8587],[68,8691],[68,8792],[68,8897],[68,9000],[68,9106],[68,9210],[68,9312],[68,9420],[68,9523],[68,9626],[68,9729],[68,9832],[68,9938],[68,10041],[68,10145],[68,10248],[68,10351],[68,10465],[68,10569],[68,10672],[68,10778],[68,10881],[68,10983],[68,11086],[68,11189],[68,11298],[68,11406],[68,11510],[68,11612],[68,11715],[68,11817],[68.2,11925],[68.2,12028],[68.2,12136],[68.2,12243],[68.3,12346],[69.4,12451],[70.1,12555],[70.6,12661],[71.8,12764],[73.3,12870],[73.3,12975],[73.3,13078],[73.3,13180],[73.3,13290],[73.3,13394],[73.3,13498],[73.3,13601],[73.3,13703],[73.3,13806],[73.3,13910]]",1,0,907.7462,910.6678,71.04166667,1.7035,"[{""rating"":71.04166666666667,""responseTime"":1.7034999999999627}]",space,2.2654,,910.6679,Half the time,50,910.6685,,,[],,0,12,12,12,1,audio/Narrative8Situation3.wav,audio/Narrative7Situation3.wav,audio/Narrative6Situation3.wav,audio/Narrative5Situation3.wav,4,8,5,3,,,,,,,,,,,,,,,,,,,,,,,,,,,,,,,,,,,,,,,
,,,,,,65ad7ed5d0b12af4dfa05d75,2024-02-08_07h57.01.319,group3.1-3.2-social-tom,2023.2.2,Win32,20.57613169,65c5074098b851296ff0b7ed,65c515d4cc649ae8122ee593,,,,,,,,,,,,,,,,,,,,,,,,,,,,,910.6686,2,audio/Narrative5Situation4.wav,911.6749,,911.6749,932.1078,"[[71.5,615],[69.7,728],[69.1,832],[69.1,934],[69.1,1044],[69.1,1152],[69.1,1264],[69.1,1366],[69.1,1470],[69.1,1572],[69.1,1676],[69.1,1779],[69.1,1882],[69.4,1986],[69.6,2090],[70.3,2197],[70.7,2300],[70.7,2406],[70.7,2515],[70.7,2621],[70.7,2731],[70.7,2840],[70.7,2942],[70.7,3051],[70.7,3153],[70.7,3256],[70.7,3360],[70.7,3463],[70.7,3566],[70.7,3671],[70.7,3779],[70.7,3883],[70.7,3987],[70.7,4097],[70.7,4200],[70.7,4305],[70.7,4410],[70.6,4513],[70.6,4617],[70.6,4720],[69.6,4828],[68.5,4932],[67.9,5041],[67.8,5148],[67.3,5256],[66.6,5363],[65.6,5468],[64.6,5574],[64.2,5683],[63.5,5786],[62.5,5893],[61.6,5997],[60.7,6101],[60.2,6206],[59.9,6310],[59.5,6415],[59,6519],[58.4,6628],[58.4,6731],[58.4,6839],[56.7,6952],[55.8,7056],[54.7,7160],[54.2,7264],[54.1,7368],[54.1,7473],[54.1,7577],[54.1,7683],[54.1,7790],[54.1,7894],[54.1,7998],[54.1,8101],[54.1,8205],[54.1,8309],[54.1,8417],[54.1,8519],[54.1,8622],[54.1,8725],[54.1,8830],[54.1,8935],[54.1,9038],[54.1,9142],[54.1,9245],[54.1,9348],[54.1,9451],[54.1,9559],[54.1,9661],[54.1,9765],[54.1,9874],[54.1,9980],[54.1,10082],[54.1,10185],[54.1,10292],[54.1,10395],[54.1,10500],[54.1,10602],[54.1,10716],[54.1,10818],[54.1,10921],[54.1,11025],[54.1,11130],[54.1,11234],[54.1,11336],[54.1,11440],[54.1,11545],[54.1,11650],[54.1,11753],[54.1,11857],[51.7,11967],[45.4,12079],[42.5,12184],[42,12292],[42,12395],[42,12498],[42,12601],[42,12704],[42,12807],[42,12912],[42,13019],[42,13127],[42,13229],[42,13332],[42,13437],[42,13540],[42,13643],[42,13747],[42,13850],[42,13954],[42,14058],[42,14162],[42,14265],[42,14368],[42,14479],[42,14581],[42,14689],[42,14806],[42,14912],[42,15023],[42,15131],[42,15238],[42,15342],[42,15447],[42,15551],[42,15654],[42,15758],[42,15866],[42,15968],[42,16073],[42.3,16182],[42.3,16289],[42.3,16394],[42.8,16499],[44.3,16603],[45.7,16707],[46.6,16811],[47.3,16918],[48,17022],[49,17128],[49.8,17232],[50.3,17337],[50.7,17446],[51.7,17549],[52.7,17653],[53.6,17758],[54.4,17863],[55.7,17970],[56.9,18073],[58.2,18180],[59.1,18284],[59.1,18388],[59.2,18493],[59.6,18598],[59.7,18705],[59.7,18809],[59.7,18912],[59.7,19021],[59.7,19124],[59.7,19227],[59.7,19335],[59.7,19437],[59.7,19541],[59.7,19648],[59.7,19754],[59.7,19857],[59.7,19961],[59.7,20064],[59.7,20173],[59.7,20278],[59.7,20381]]",1,0,932.1079,935.51,54.16666667,2.2271,"[{""rating"":54.166666666666664,""responseTime"":2.227099999964139}]",space,2.7962,,935.5101,Not at all,0,935.5111,,,[],,0,13,13,13,1,audio/Narrative8Situation4.wav,audio/Narrative7Situation4.wav,audio/Narrative6Situation4.wav,audio/Narrative5Situation4.wav,3,3,2,1,,,,,,,,,,,,,,,,,,,,,,,,,,,,,,,,,,,,,,,
,,,,,,65ad7ed5d0b12af4dfa05d75,2024-02-08_07h57.01.319,group3.1-3.2-social-tom,2023.2.2,Win32,20.57613169,65c5074098b851296ff0b7ed,65c515d4cc649ae8122ee593,,,,,,,,,,,,,,,,,,,,,,,,,,,,,935.5112,2,audio/Narrative5Situation5.wav,940.5271,,940.5271,956.0198,"[[50,1141],[55.7,1244],[57.2,1357],[57.3,1460],[55.5,1571],[52.6,1682],[52.4,1790],[52,1895],[51.7,2004],[51.7,2111],[51.7,2214],[51.7,2319],[51.7,2426],[51.7,2529],[51.7,2632],[51.7,2737],[51.7,2840],[51.7,2944],[51.7,3050],[51.7,3151],[51.7,3256],[51.7,3359],[51.7,3462],[51.7,3565],[51.7,3668],[51.7,3776],[51.7,3879],[51.7,3985],[51.7,4088],[51.7,4192],[51.7,4295],[51.7,4399],[51.7,4503],[52.2,4608],[57.4,4728],[61.4,4832],[64.2,4937],[65.8,5043],[69.2,5148],[70,5252],[70,5356],[70,5461],[70,5564],[70,5669],[70,5777],[70,5879],[70,5987],[70,6091],[70,6201],[70,6310],[70,6414],[70,6517],[70,6620],[70,6724],[70,6827],[70,6932],[70,7042],[70,7150],[70,7254],[70,7357],[70,7466],[70,7569],[70.2,7680],[70.4,7783],[70.9,7887],[71.1,7990],[71.1,8094],[71.1,8197],[71.1,8304],[71.1,8407],[71.1,8514],[71.1,8616],[71.1,8720],[71.1,8823],[71.1,8932],[71.1,9040],[71.1,9146],[71.1,9249],[71.1,9353],[71.1,9456],[71.1,9560],[71.1,9664],[70.9,9769],[70.8,9874],[70.8,9977],[70.6,10084],[70.6,10187],[70.6,10290],[70.6,10393],[70.6,10501],[70.6,10604],[70.6,10707],[70.6,10816],[70.6,10922],[70.6,11025],[70.6,11135],[70.6,11242],[70.6,11346],[70.6,11452],[70.6,11554],[70.6,11658],[70.6,11762],[70.6,11867],[70.6,11972],[70.6,12076],[70.6,12180],[70.6,12283],[70.6,12386],[70.6,12490],[71.5,12597],[72.9,12701],[72.9,12809],[72.9,12911],[73.2,13020],[73.9,13124],[75.2,13229],[76.3,13333],[76.9,13439],[77.5,13544],[77.8,13649],[77.8,13753],[77.8,13865],[77.8,13975],[77.8,14078],[77.8,14182],[77.8,14286],[77.8,14393],[77.8,14495],[77.8,14605],[77.8,14708],[77.8,14811],[77.8,14915],[77.8,15023],[77.8,15129],[77.8,15234],[77.8,15337],[77.7,15441]]",1,0,956.0198,957.9769,75,1.0578,"[{""rating"":75,""responseTime"":1.05780000001198}]",space,1.3007,,957.977,All the time,100,957.978,,,[],,0,14,14,14,1,audio/Narrative8Situation5.wav,audio/Narrative7Situation5.wav,audio/Narrative6Situation5.wav,audio/Narrative5Situation5.wav,2,5,2,5,,,,,,,,,,,,,,,,,,,,,,,,,,,,,,,,,,,,,,,
,,,,,,65ad7ed5d0b12af4dfa05d75,2024-02-08_07h57.01.319,group3.1-3.2-social-tom,2023.2.2,Win32,20.57613169,65c5074098b851296ff0b7ed,65c515d4cc649ae8122ee593,,,,,,,,,,,,,,,,,,,,,,,,,,,,,957.9781,2,audio/Narrative5Situation6.wav,961.0192,,961.0193,966.7518,"[[72.7,516],[63.8,623],[58.2,739],[56,843],[53,948],[52.8,1052],[52.8,1155],[52.8,1258],[56.7,1365],[59.3,1469],[59.8,1573],[59.8,1677],[59.8,1782],[59.8,1890],[59.8,1994],[59.8,2097],[59.8,2200],[59.8,2310],[59.8,2412],[59.8,2514],[59.8,2622],[59.8,2731],[60.4,2835],[60.9,2942],[61.8,3048],[61.8,3155],[61.8,3258],[61.8,3369],[61.8,3472],[61.8,3578],[61.8,3681],[61.8,3787],[61.8,3890],[61.8,3993],[61.8,4097],[61.8,4199],[61.8,4302],[61.8,4406],[61.8,4513],[61.8,4616],[61.8,4721],[61.8,4840],[61.8,4945],[61.8,5048],[61.8,5154],[61.8,5257],[61.8,5365],[61.8,5471],[61.7,5574],[61.7,5678]]",1,0,966.7518,968.7597,56.875,1.1158,"[{""rating"":56.875,""responseTime"":1.1158000000119728}]",space,1.4031,,968.7598,Half the time,50,968.7607,,,[],,0,15,15,15,1,audio/Narrative8Situation6.wav,audio/Narrative7Situation6.wav,audio/Narrative6Situation6.wav,audio/Narrative5Situation6.wav,2,3,2,3,,,,,,,,,,,,,,,,,,,,,,,,,,,,,,,,,,,,,,,
,,,,,,65ad7ed5d0b12af4dfa05d75,2024-02-08_07h57.01.319,group3.1-3.2-social-tom,2023.2.2,Win32,20.57613169,65c5074098b851296ff0b7ed,65c515d4cc649ae8122ee593,,,,,,,,,,,,,,,,,,,,,,,,,,,,,968.7609,2,audio/Narrative5Situation7.wav,972.8013,,972.8013,993.933,"[[64.1,516],[63.2,621],[61.6,729],[61.3,833],[61.3,938],[61.3,1043],[61.3,1147],[61.3,1254],[61.3,1357],[61.3,1459],[61.3,1563],[61.3,1666],[61.3,1769],[61.3,1879],[61.3,1981],[61.3,2085],[61.3,2190],[61.3,2296],[61.3,2399],[61.3,2502],[61.3,2608],[61.3,2712],[61.4,2817],[61.7,2921],[61.7,3024],[61.7,3127],[61.7,3235],[61.7,3340],[61.7,3446],[61.7,3549],[61.7,3651],[61.7,3759],[61.7,3864],[61.7,3968],[61.7,4074],[61.7,4177],[61.7,4281],[61.7,4385],[61.7,4489],[61.7,4592],[61.7,4697],[61.7,4800],[61.7,4903],[61.7,5009],[61.7,5115],[61.7,5219],[61.7,5322],[61.7,5425],[61.7,5532],[61.7,5636],[61.7,5740],[61.7,5843],[61.7,5946],[61.7,6057],[61.7,6158],[61.7,6262],[61.7,6366],[61.7,6475],[61.7,6583],[61.7,6693],[61.7,6795],[61.7,6902],[60.7,7013],[60.2,7114],[59.8,7223],[59.5,7331],[59.4,7434],[59.4,7539],[59.4,7643],[59.4,7748],[59.4,7851],[59.4,7954],[59.4,8059],[59.4,8164],[59.4,8273],[59.4,8382],[59.4,8485],[59.4,8588],[59.2,8692],[59,8802],[58.9,8905],[58.5,9010],[58,9114],[55.1,9219],[51.4,9324],[48.8,9428],[46.5,9535],[44.8,9661],[44.2,9768],[44.1,9877],[44.1,9980],[44.1,10083],[44.1,10192],[44.1,10295],[44.1,10399],[44.1,10502],[44.1,10612],[44.1,10714],[44.1,10817],[44.1,10921],[44.1,11025],[44.1,11128],[44.1,11232],[44.1,11337],[44.1,11443],[44.1,11550],[44.1,11655],[44.1,11763],[44.1,11869],[44.1,11972],[44.1,12076],[44.1,12179],[44.1,12281],[44.1,12385],[44.1,12493],[44.1,12600],[44.1,12703],[44.1,12806],[44.1,12910],[44.1,13014],[44.1,13117],[44.1,13227],[44.1,13330],[44.1,13436],[44.1,13540],[44.1,13672],[44.1,13776],[44.1,13882],[44.1,13988],[44.1,14091],[44.1,14195],[44.1,14298],[44.1,14405],[44.1,14513],[44.1,14619],[44.1,14722],[44.1,14826],[44.1,14935],[44.1,15038],[44.1,15144],[44.1,15250],[44.1,15355],[44.1,15463],[44.1,15566],[44.1,15672],[44.1,15779],[44.1,15884],[44.1,15992],[44.1,16094],[44.1,16198],[44.1,16301],[44.1,16407],[44.1,16510],[44.1,16618],[44.1,16727],[44.1,16831],[44.1,16935],[44.1,17039],[44.1,17146],[44.1,17250],[44.1,17360],[44.1,17467],[44.1,17575],[44.1,17678],[44.1,17783],[44.1,17887],[44.1,17990],[44.1,18094],[44.1,18197],[44.1,18306],[44.1,18408],[44.1,18512],[44.1,18616],[44.1,18719],[44.1,18821],[44.1,18924],[44.1,19029],[44.1,19133],[44.1,19235],[44.1,19347],[44.1,19449],[44.1,19552],[44.1,19664],[44.1,19773],[44.1,19876],[44.1,19980],[44.1,20082],[44.1,20187],[44.1,20290],[44.1,20394],[44.1,20500],[44.1,20603],[44.1,20707],[44.1,20810],[44.1,20913],[44.1,21025],[44.1,21131]]",1,0,993.9331,996.2863,44.16666667,1.3376,"[{""rating"":44.166666666666664,""responseTime"":1.3376000000238264}]",space,1.7393,,996.2863,Half the time,50,996.2869,,,[],,0,16,16,16,1,audio/Narrative8Situation7.wav,audio/Narrative7Situation7.wav,audio/Narrative6Situation7.wav,audio/Narrative5Situation7.wav,3,5,5,4,,,,,,,,,,,,,,,,,,,,,,,,,,,,,,,,,,,,,,,
,,,,,,65ad7ed5d0b12af4dfa05d75,2024-02-08_07h57.01.319,group3.1-3.2-social-tom,2023.2.2,Win32,20.57613169,65c5074098b851296ff0b7ed,65c515d4cc649ae8122ee593,,,,,,,,,,,,,,,,,,,,,,,,,,,,,996.287,2,audio/Narrative5Situation8.wav,999.2938,,999.2938,1008.1524,"[[54.7,411],[54.7,518],[54.7,621],[54,732],[53.9,836],[51.5,943],[50.7,1052],[50.7,1159],[50.7,1263],[50.7,1366],[50.7,1471],[50.7,1581],[51,1685],[51.4,1790],[51.5,1894],[51.9,1999],[52.9,2103],[53.6,2213],[53.9,2318],[53.9,2422],[53.9,2525],[53.9,2629],[53.9,2737],[53.9,2840],[53.9,2947],[53.9,3051],[53.9,3158],[54,3269],[54.1,3379],[54.4,3484],[54.5,3587],[54.6,3691],[54.7,3798],[54.7,3901],[54.7,4004],[54.7,4108],[54.7,4211],[54.7,4314],[54.7,4418],[54.7,4522],[54.7,4626],[54.7,4731],[54.7,4833],[54.7,4939],[54.7,5046],[54.7,5150],[54.7,5255],[54.7,5358],[54.7,5461],[54.7,5564],[54.7,5668],[54.7,5776],[54.7,5879],[54.7,5982],[54.9,6090],[57.9,6195],[58.3,6300],[58.4,6404],[58.4,6507],[58.4,6610],[58.4,6712],[58.4,6820],[58.4,6924],[58.4,7028],[58.4,7131],[58.4,7235],[58.2,7339],[57.8,7446],[57.2,7551],[56.8,7655],[56.8,7759],[56.8,7863],[56.8,7966],[56.8,8069],[56.8,8174],[56.8,8284],[56.8,8387],[56.8,8492],[56.8,8599],[56.8,8702],[56.8,8806]]",1,0,1008.1525,1010.5587,56.5625,0.9427,"[{""rating"":56.56250000000001,""responseTime"":0.9427000000476937}]",space,1.7493,,1010.5587,All the time,100,1010.5596,,,[],,0,17,17,17,1,audio/Narrative8Situation8.wav,audio/Narrative7Situation8.wav,audio/Narrative6Situation8.wav,audio/Narrative5Situation8.wav,3,2,5,3,,,,,,,,,,,,,,,,,,,,,,,,,,,,,,,,,,,,,,,
,,,,,,65ad7ed5d0b12af4dfa05d75,2024-02-08_07h57.01.319,group3.1-3.2-social-tom,2023.2.2,Win32,20.57613169,65c5074098b851296ff0b7ed,65c515d4cc649ae8122ee593,,,,,,,,,,,,,,,,,,,,,,,,,,,,,1010.5597,2,audio/Narrative5Situation9.wav,1013.5822,,1013.5822,1053.1531,"[[999,0],[999,102],[999,205],[999,307],[999,411],[999,517],[999,621],[999,732],[62,841],[60.9,950],[60.3,1053],[58.5,1166],[57.2,1269],[56.4,1377],[55.3,1487],[54.7,1591],[54.3,1694],[53.6,1801],[52.9,1913],[52.4,2016],[52.1,2118],[52.1,2221],[52.1,2325],[52.1,2431],[51.7,2534],[49.8,2638],[49.5,2742],[49.5,2846],[49.5,2951],[49.5,3054],[49.5,3158],[49.5,3263],[49.5,3368],[49.5,3471],[49.5,3581],[49.5,3684],[49.5,3794],[49.5,3903],[49.5,4005],[49.5,4113],[49.5,4216],[49.5,4319],[49.5,4432],[49.5,4536],[49.5,4645],[49.5,4749],[49.5,4853],[49.5,4956],[49.5,5061],[49.5,5175],[49.5,5287],[49.4,5393],[48.6,5505],[48.6,5619],[48.4,5722],[48.4,5826],[46.5,5930],[44.4,6038],[43.4,6142],[42.5,6246],[41.7,6350],[41.3,6454],[40.5,6559],[40.1,6662],[38.5,6767],[38.4,6871],[38.4,6978],[38.4,7087],[38.4,7189],[38.4,7295],[38.4,7398],[38.4,7503],[38.4,7605],[38.4,7710],[38.4,7818],[38.4,7924],[38.4,8026],[38.4,8130],[38.4,8237],[38.4,8344],[38.4,8452],[38.4,8559],[38.4,8663],[38.4,8766],[38.4,8868],[38.4,8973],[38.4,9079],[38.4,9188],[38.4,9291],[38.4,9394],[38.4,9498],[38.4,9602],[38.4,9705],[38.4,9808],[38.4,9912],[38.4,10021],[38.4,10125],[38.4,10226],[38.4,10335],[38.4,10439],[38.4,10542],[38.4,10648],[38.4,10755],[38.4,10857],[38.4,10961],[38.4,11064],[38.4,11167],[38.4,11270],[38.4,11377],[38.4,11482],[38.4,11585],[38.4,11694],[38.4,11797],[38.4,11900],[38.4,12003],[38.4,12108],[38.4,12212],[38.4,12314],[38.4,12418],[38.4,12523],[38.4,12629],[38.4,12732],[38.4,12835],[38.4,12941],[38.4,13043],[38.4,13151],[38.4,13254],[38.4,13364],[38.4,13467],[38.4,13573],[38.4,13676],[38.8,13790],[39.3,13900],[40.4,14006],[41.7,14110],[42.3,14214],[42.9,14324],[43.5,14428],[44,14532],[44.7,14635],[45.7,14743],[46.9,14858],[48,14966],[49.1,15070],[50.2,15174],[51.3,15278],[51.8,15391],[52.2,15494],[52.8,15598],[53.5,15703],[54.3,15810],[54.8,15919],[55.3,16025],[55.8,16134],[56.4,16237],[56.8,16341],[57.2,16445],[57.6,16553],[57.6,16654],[57.6,16759],[57.6,16862],[57.6,16967],[57.6,17073],[57.6,17182],[57.6,17289],[57.6,17393],[57.6,17495],[57.6,17599],[57.6,17708],[57.6,17811],[57.6,17914],[57.6,18019],[57.6,18124],[57.6,18230],[57.6,18334],[57.6,18442],[57.6,18545],[57.6,18649],[57.6,18753],[57.6,18856],[57.6,18968],[57.6,19071],[57.6,19177],[57.6,19280],[57.6,19383],[57.6,19486],[57.6,19590],[57.6,19695],[57.6,19798],[57.6,19901],[57.6,20004],[57.6,20107],[57.6,20211],[57.6,20319],[57.6,20423],[57.6,20526],[57.6,20635],[57.6,20739],[57.6,20841],[57.6,20949],[57.6,21053],[57.6,21156],[57.6,21258],[57.6,21361],[57.6,21465],[57.6,21576],[57.6,21679],[57.6,21783],[57.6,21889],[57.6,21992],[57.6,22098],[57.6,22205],[57.6,22308],[57.6,22415],[57.6,22517],[58,22621],[62.4,23358],[62.6,23463],[64.1,23568],[64.3,23678],[65.6,23789],[66,23891],[66.4,23998],[67.3,24105],[68.3,24209],[68.3,24312],[69.7,24419],[70.7,24523],[71.9,24631],[72.7,24737],[73.4,24840],[73.4,24944],[73.4,25048],[73.4,25151],[73.4,25256],[73.4,25362],[73.4,25465],[73.4,25575],[73.4,25681],[73.4,25785],[73.4,25891],[73.4,25994],[73.4,26102],[73.4,26204],[73.4,26309],[73.4,26423],[73.4,26530],[73.4,26633],[73.4,26740],[73.4,26844],[73.4,26947],[73.4,27049],[73.4,27153],[73.4,27256],[73.4,27360],[73.4,27468],[73.4,27573],[73.4,27675],[73.4,27779],[73.4,27883],[73.4,27986],[73.4,28090],[73.4,28196],[73.4,28299],[73.4,28402],[73.4,28510],[73.4,28619],[73.4,28725],[73.4,28831],[73.4,28935],[73.4,29043],[73.4,29146],[73.4,29250],[73.4,29354],[73.4,29457],[73.4,29560],[73.4,29664],[73.4,29774],[73.4,29877],[73.4,29984],[73.4,30087],[73.4,30199],[73.4,30302],[73.4,30406],[73.4,30509],[73.4,30612],[73.4,30722],[73.4,30832],[73.4,30942],[73.4,31045],[73.4,31148],[73.4,31252],[73.4,31355],[73.4,31459],[73.4,31562],[73.4,31666],[73.4,31769],[73.4,31876],[73.4,31983],[73.4,32089],[73.4,32192],[73.4,32296],[73.4,32409],[73.4,32514],[73.4,32616],[73.4,32720],[73.4,32843],[73.4,32950],[73.4,33056],[73.4,33160],[73.4,33269],[73.4,33373],[73.4,33476],[73.4,33585],[73.4,33692],[73.4,33796],[73.4,33902],[73.4,34019],[73.4,34124],[73.4,34232],[73.4,34335],[73.4,34438],[73.4,34542],[73.4,34652],[73.4,34755],[73.4,34858],[73.4,34966],[73.4,35071],[73.4,35178],[73.4,35280],[73.4,35384],[73.4,35486],[73.4,35596],[73.4,35698],[73.4,35808],[73.4,35911],[73.4,36013],[73.4,36116],[73.4,36219],[73.4,36323],[73.4,36425],[73.4,36527],[73.4,36638],[73.4,36741],[73.4,36847],[73.4,36949],[73.4,37052],[73.4,37158],[73.4,37261],[73.4,37364],[73.4,37467],[73.4,37570],[73.4,37680],[73.4,37783],[73.4,37891],[73.4,37994],[73.4,38100],[73.4,38205],[73.4,38307],[73.2,38410],[73.2,38518],[73.2,38623],[73.2,38725],[73.2,38830],[73.2,38935],[73.2,39041],[73.2,39150],[73.2,39258],[73.2,39361],[73.2,39468],[73.2,39570]]",1,0,1053.1532,1056.0081,68.4375,1.0043,"[{""rating"":68.4375,""responseTime"":1.004299999952309}]",space,2.2228,,1056.0081,Half the time,50,1056.0092,,,[],,0,18,18,18,1,audio/Narrative8Situation9.wav,audio/Narrative7Situation9.wav,audio/Narrative6Situation9.wav,audio/Narrative5Situation9.wav,3,2,4,3,,,,,,,,,,,,,,,,,,,,,,,,,,,,,,,,,,,,,,,
,,,,,,65ad7ed5d0b12af4dfa05d75,2024-02-08_07h57.01.319,group3.1-3.2-social-tom,2023.2.2,Win32,20.57613169,65c5074098b851296ff0b7ed,65c515d4cc649ae8122ee593,,,,,,,,,,,,,,,,,,,,,,,,,,,,,,,,,,,,,,,,,,,,,,,,,,,,,,,,,,,,,,,,,,,,,,,,1056.0093,1065.4843,space,8.9008,,1065.4846,1082.0127,space,16.1402,,,,,,,,,,,,,,,,,,,,,,,,,,
