exp_question,consent.started,consent.stopped,consentResponse.keys,consentResponse.rt,consentResponse.duration,participantID,date,expName,psychopyVersion,OS,frameRate,STUDY_ID,SESSION_ID,opening1.started,opening1.stopped,keyEndingOpening1.keys,keyEndingOpening1.rt,keyEndingOpening1.duration,volumeAdjust.started,volumeAdjust.stopped,endingAdjust.keys,endingAdjust.rt,endingAdjust.duration,opening2.started,opening2.stopped,keyEndingOpening.keys,keyEndingOpening.rt,keyEndingOpening.duration,mouse.x,mouse.y,mouse.leftButton,mouse.midButton,mouse.rightButton,mouse.time,instructionLoop.thisRepN,instructionLoop.thisTrialN,instructionLoop.thisN,instructionLoop.thisIndex,instructionLoop.ran,readyForAudio.started,readyForAudio.stopped,fixation.started,run,audio_played,fixation.stopped,endPractice.keys,audioPre.started,audioPre.stopped,continuousResponses_audio,continuousSlider.response,continuousSlider.rt,intRating.started,intRating.stopped,intQuestionSlider.response,intQuestionSlider.rt,intQuestionSlider.history,confirmResponse.keys,confirmResponse.rt,confirmResponse.duration,catchQuestion.started,catch_label,catch_value,catchQuestion.stopped,catchQuestionSlider.response,catchQuestionSlider.rt,catchQuestionSlider.history,confirmResponse_2.keys,audioRunLoop.thisRepN,audioRunLoop.thisTrialN,audioRunLoop.thisN,audioRunLoop.thisIndex,audioRunLoop.ran,conditions1_1,conditions2_1,conditions1_2,conditions2_2,dur1_1,dur2_1,dur1_2,dur2_2,endPractice.rt,endPractice.duration,confirmResponse_2.rt,confirmResponse_2.duration,runIntervalBreak.started,runIntervalBreak.stopped,endingBreakKey.keys,endingBreakKey.rt,endingBreakKey.duration,connection.started,connection.stopped,connectionEnding.keys,connectionEnding.rt,connectionEnding.duration,readyForText.started,readyForText.stopped,textPre.started,run_dup,textPre.stopped,continuousResponses_text,textRunLoop.thisRepN,textRunLoop.thisTrialN,textRunLoop.thisN,textRunLoop.thisIndex,textRunLoop.ran,text1_1,text1_2,text2_1,text2_2,runBreakText.started,runBreakText.stopped,endingBreakKey_2.keys,endingBreakKey_2.rt,endingBreakKey_2.duration,ending.started,ending.stopped,endingEnding.keys,endingEnding.rt,endingEnding.duration
tom,0,23.593,y,23.281,,65ad66e598dfe7e971227a1e,2024-02-08_15h03.51.431,group3.1-3.2-social-tom,2023.2.2,MacIntel,33.33333333,65c5074098b851296ff0b7ed,65c54185963a750c5bb343da,,,,,,,,,,,,,,,,,,,,,,,,,,,,,,,,,,,,,,,,,,,,,,,,,,,,,,,,,,,,,,,,,,,,,,,,,,,,,,,,,,,,,,,,,,,,,,,,,,,,,,,,,,
,,,,,,65ad66e598dfe7e971227a1e,2024-02-08_15h03.51.431,group3.1-3.2-social-tom,2023.2.2,MacIntel,33.33333333,65c5074098b851296ff0b7ed,65c54185963a750c5bb343da,23.593,40.294,space,16.678,,,,,,,,,,,,,,,,,,,,,,,,,,,,,,,,,,,,,,,,,,,,,,,,,,,,,,,,,,,,,,,,,,,,,,,,,,,,,,,,,,,,,,,,,,,,,,,,,,,,,,
,,,,,,65ad66e598dfe7e971227a1e,2024-02-08_15h03.51.431,group3.1-3.2-social-tom,2023.2.2,MacIntel,33.33333333,65c5074098b851296ff0b7ed,65c54185963a750c5bb343da,,,,,,40.294,53.459,space,12.853,,,,,,,,,,,,,,,,,,,,,,,,,,,,,,,,,,,,,,,,,,,,,,,,,,,,,,,,,,,,,,,,,,,,,,,,,,,,,,,,,,,,,,,,,,,,,,,,,
,,,,,,65ad66e598dfe7e971227a1e,2024-02-08_15h03.51.431,group3.1-3.2-social-tom,2023.2.2,MacIntel,33.33333333,65c5074098b851296ff0b7ed,65c54185963a750c5bb343da,,,,,,,,,,,53.465,67.838,space,14.347,,[],[],[],[],[],[],0,0,0,0,1,,,,,,,,,,,,,,,,,,,,,,,,,,,,,,,,,,,,,,,,,,,,,,,,,,,,,,,,,,,,,,,,,,,,,,,,,,,,,,,,
,,,,,,65ad66e598dfe7e971227a1e,2024-02-08_15h03.51.431,group3.1-3.2-social-tom,2023.2.2,MacIntel,33.33333333,65c5074098b851296ff0b7ed,65c54185963a750c5bb343da,,,,,,,,,,,67.841,98.794,space,30.88,,[],[],[],[],[],[],1,0,1,0,1,,,,,,,,,,,,,,,,,,,,,,,,,,,,,,,,,,,,,,,,,,,,,,,,,,,,,,,,,,,,,,,,,,,,,,,,,,,,,,,,
,,,,,,65ad66e598dfe7e971227a1e,2024-02-08_15h03.51.431,group3.1-3.2-social-tom,2023.2.2,MacIntel,33.33333333,65c5074098b851296ff0b7ed,65c54185963a750c5bb343da,,,,,,,,,,,98.794,110.228,space,11.404,,[],[],[],[],[],[],2,0,2,0,1,,,,,,,,,,,,,,,,,,,,,,,,,,,,,,,,,,,,,,,,,,,,,,,,,,,,,,,,,,,,,,,,,,,,,,,,,,,,,,,,
,,,,,,65ad66e598dfe7e971227a1e,2024-02-08_15h03.51.431,group3.1-3.2-social-tom,2023.2.2,MacIntel,33.33333333,65c5074098b851296ff0b7ed,65c54185963a750c5bb343da,,,,,,,,,,,110.229,131.614,space,21.361,,[],[],[],[],[],[],3,0,3,0,1,,,,,,,,,,,,,,,,,,,,,,,,,,,,,,,,,,,,,,,,,,,,,,,,,,,,,,,,,,,,,,,,,,,,,,,,,,,,,,,,
,,,,,,65ad66e598dfe7e971227a1e,2024-02-08_15h03.51.431,group3.1-3.2-social-tom,2023.2.2,MacIntel,33.33333333,65c5074098b851296ff0b7ed,65c54185963a750c5bb343da,,,,,,,,,,,131.614,144.899,space,13.264,,[],[],[],[],[],[],4,0,4,0,1,,,,,,,,,,,,,,,,,,,,,,,,,,,,,,,,,,,,,,,,,,,,,,,,,,,,,,,,,,,,,,,,,,,,,,,,,,,,,,,,
,,,,,,65ad66e598dfe7e971227a1e,2024-02-08_15h03.51.431,group3.1-3.2-social-tom,2023.2.2,MacIntel,33.33333333,65c5074098b851296ff0b7ed,65c54185963a750c5bb343da,,,,,,,,,,,,,,,,,,,,,,,,,,,144.902,147.484,147.503,1,audio/Narrative13Situation2.wav,149.506,,149.507,179.25,"[[34.3,2068],[39.7,2117],[45.1,2169],[48.4,2218],[50.2,2269],[50.9,2319],[51,2371],[51.2,2420],[51.3,2468],[51.3,2519],[51.3,2569],[51.3,2619],[51.3,2670],[51.2,2718],[50.9,2770],[50.8,2819],[50.8,2870],[50.8,2919],[50.7,2969],[50.7,3020],[50.7,3069],[50.7,3120],[50.7,3170],[50.7,3218],[50.7,3270],[50.7,3319],[50.7,3370],[50.7,3420],[50.7,3468],[50.7,3520],[50.7,3569],[50.7,3620],[50.7,3670],[50.7,3719],[50.7,3770],[50.7,3820],[50.7,3871],[50.7,3920],[50.7,3969],[50.7,4021],[50.7,4070],[50.7,4120],[50.7,4170],[50.7,4219],[50.7,4270],[50.7,4319],[50.7,4371],[50.7,4420],[50.7,4471],[50.7,4520],[50.7,4570],[50.7,4621],[50.7,4670],[50.7,4719],[50.7,4771],[50.7,4819],[50.7,4871],[50.7,4920],[50.7,4969],[50.7,5021],[50.7,5069],[50.7,5121],[50.7,5170],[50.7,5221],[50.7,5271],[50.7,5320],[50.7,5375],[50.7,5420],[50.7,5469],[50.7,5520],[50.7,5570],[50.7,5621],[50.7,5670],[50.7,5721],[50.7,5772],[50.7,5820],[50.7,5871],[50.7,5920],[50.7,5971],[50.7,6021],[50.7,6070],[50.7,6121],[50.7,6170],[50.7,6221],[50.7,6270],[50.7,6320],[50.7,6371],[50.7,6420],[50.7,6471],[50.7,6521],[50.7,6566],[50.7,6605],[50.7,6653],[50.7,6694],[50.7,6738],[50.7,6780],[50.7,6825],[50.7,6870],[50.7,6913],[50.7,6956],[50.7,6997],[50.7,7036],[50.7,7084],[50.7,7126],[50.7,7170],[50.7,7218],[50.7,7260],[50.7,7305],[50.7,7349],[50.7,7395],[50.7,7438],[50.7,7485],[50.7,7530],[50.7,7575],[50.7,7617],[50.7,7665],[50.7,7709],[50.7,7752],[50.7,7795],[50.7,7837],[50.7,7881],[50.7,7920],[50.7,7965],[50.7,8008],[50.7,8054],[50.7,8097],[50.7,8139],[50.7,8182],[50.7,8226],[50.7,8274],[50.7,8314],[50.7,8360],[50.7,8402],[50.7,8444],[50.7,8488],[50.7,8530],[50.7,8574],[50.7,8617],[50.7,8664],[50.7,8706],[50.7,8748],[50.7,8789],[50.7,8837],[50.7,8881],[50.7,8925],[50.7,8968],[50.7,9012],[50.7,9052],[50.7,9091],[50.7,9128],[50.7,9164],[50.7,9203],[50.7,9240],[50.7,9283],[50.7,9328],[50.7,9366],[50.7,9407],[50.7,9456],[50.7,9498],[50.7,9542],[50.7,9584],[50.7,9628],[50.7,9669],[50.7,9712],[50.7,9754],[50.7,9798],[50.7,9842],[50.7,9887],[50.7,9930],[50.7,9973],[50.7,10010],[50.7,10055],[50.7,10098],[50.7,10141],[50.7,10188],[50.7,10233],[50.7,10275],[50.7,10324],[50.7,10365],[50.7,10411],[50.7,10455],[50.7,10500],[50.7,10542],[50.7,10591],[50.7,10632],[50.7,10676],[50.7,10718],[50.7,10765],[50.7,10807],[50.7,10851],[50.7,10896],[50.7,10936],[50.7,10978],[50.7,11021],[50.7,11064],[50.7,11110],[50.7,11156],[50.7,11200],[50.7,11241],[50.7,11290],[50.7,11331],[50.7,11377],[50.7,11414],[50.7,11463],[50.7,11507],[50.7,11551],[50.7,11593],[50.7,11643],[50.7,11686],[50.7,11729],[50.7,11772],[50.7,11820],[50.7,11865],[50.7,11909],[50.7,11956],[50.7,12001],[50.7,12045],[50.7,12090],[50.7,12138],[50.7,12177],[50.7,12223],[50.7,12266],[50.7,12310],[50.7,12352],[50.7,12395],[50.7,12438],[50.7,12483],[50.7,12527],[50.7,12570],[50.7,12608],[50.7,12646],[50.7,12683],[50.7,12721],[50.7,12758],[50.7,12795],[50.7,12831],[50.7,12876],[50.7,12921],[50.7,12965],[50.7,13013],[50.7,13057],[50.7,13101],[50.7,13144],[50.7,13185],[50.7,13227],[50.7,13270],[50.7,13313],[50.7,13359],[50.7,13401],[50.7,13445],[50.7,13488],[50.7,13532],[50.7,13574],[50.7,13617],[50.7,13661],[50.7,13704],[50.7,13747],[50.7,13789],[50.7,13835],[50.7,13873],[50.7,13912],[50.7,13950],[50.7,13986],[50.7,14025],[50.7,14062],[50.7,14102],[50.7,14145],[50.7,14188],[50.7,14230],[50.7,14274],[50.7,14314],[50.7,14363],[50.7,14405],[50.7,14450],[50.7,14495],[50.7,14538],[50.7,14581],[50.7,14629],[50.7,14671],[50.7,14715],[50.7,14756],[50.7,14801],[50.7,14843],[50.7,14889],[50.7,14933],[50.7,14976],[50.7,15020],[50.7,15063],[50.7,15110],[50.7,15152],[50.7,15197],[50.7,15241],[50.7,15282],[50.7,15330],[50.7,15372],[50.7,15415],[50.7,15459],[50.7,15502],[50.7,15540],[50.7,15581],[50.7,15626],[50.7,15669],[50.7,15712],[50.7,15756],[50.7,15801],[50.7,15844],[50.7,15888],[50.7,15931],[50.7,15972],[50.7,16020],[50.7,16063],[50.7,16108],[50.7,16151],[50.7,16198],[50.7,16240],[50.7,16284],[50.7,16329],[50.7,16369],[50.7,16418],[50.7,16460],[50.7,16503],[50.7,16545],[50.7,16587],[50.7,16633],[50.7,16676],[50.7,16724],[50.7,16764],[50.7,16810],[50.7,16854],[50.7,16900],[50.7,16943],[50.7,16986],[50.7,17024],[50.7,17069],[50.7,17113],[50.7,17156],[50.7,17205],[50.7,17245],[50.7,17288],[50.7,17331],[50.7,17372],[50.7,17417],[50.7,17460],[50.7,17503],[50.7,17542],[50.7,17585],[50.7,17629],[50.7,17671],[50.7,17721],[50.7,17760],[50.7,17804],[50.7,17847],[50.7,17891],[50.7,17935],[50.7,17978],[50.7,18021],[50.7,18063],[50.7,18107],[50.7,18152],[50.7,18192],[50.7,18229],[50.7,18266],[50.7,18304],[50.7,18342],[50.7,18382],[50.7,18426],[50.7,18468],[50.7,18516],[50.7,18557],[50.7,18604],[50.7,18647],[50.7,18693],[50.7,18736],[50.7,18781],[50.7,18829],[50.7,18870],[50.7,18914],[50.7,18958],[50.7,19000],[50.7,19037],[50.7,19074],[50.7,19111],[50.7,19149],[50.7,19187],[50.7,19224],[50.7,19271],[50.7,19316],[50.7,19359],[50.7,19407],[50.7,19449],[50.7,19492],[50.7,19531],[50.7,19580],[50.7,19622],[50.7,19664],[50.7,19706],[50.7,19744],[50.7,19788],[50.7,19837],[50.7,19881],[50.7,19925],[50.7,19970],[50.7,20014],[50.7,20056],[50.7,20097],[50.7,20145],[50.7,20186],[50.7,20230],[50.7,20275],[50.7,20317],[50.7,20367],[50.7,20413],[50.7,20453],[50.7,20497],[50.7,20540],[50.7,20584],[50.7,20628],[50.7,20671],[50.7,20714],[50.7,20756],[50.7,20801],[50.8,20845],[50.9,20889],[51,20931],[51,20974],[51.2,21016],[51.2,21062],[51.2,21105],[51.2,21149],[51.2,21188],[51.2,21236],[51.2,21277],[51.2,21320],[51.3,21360],[52.1,21408],[53.4,21459],[54.1,21504],[55,21555],[55.6,21605],[55.9,21655],[56,21700],[56.3,21745],[56.5,21789],[56.6,21831],[56.8,21877],[56.9,21929],[56.9,21968],[56.9,22012],[56.9,22057],[56.9,22105],[56.9,22151],[56.9,22191],[56.9,22238],[56.9,22289],[56.9,22331],[56.9,22376],[56.9,22420],[56.9,22464],[56.9,22507],[56.9,22552],[56.9,22598],[56.9,22645],[56.9,22687],[56.9,22724],[56.9,22763],[56.9,22800],[56.9,22837],[56.9,22873],[56.9,22918],[56.9,22962],[56.9,23009],[56.9,23056],[56.9,23102],[56.9,23146],[56.9,23191],[56.9,23235],[56.9,23274],[56.9,23322],[56.9,23365],[57.1,23408],[57.9,23450],[59,23500],[60.1,23551],[60.5,23599],[60.8,23643],[61,23691],[61.1,23735],[61.2,23778],[61.3,23822],[61.5,23866],[62,23913],[62.8,23964],[63.4,24014],[63.5,24063],[63.7,24108],[63.7,24149],[63.7,24194],[63.7,24239],[63.7,24283],[63.7,24327],[63.7,24376],[63.7,24415],[63.7,24461],[63.7,24500],[63.7,24537],[63.7,24575],[63.7,24611],[63.7,24649],[63.7,24693],[63.7,24735],[63.7,24783],[63.7,24827],[63.7,24871],[63.7,24912],[63.7,24950],[63.7,24986],[63.7,25022],[63.7,25068],[63.7,25113],[63.7,25156],[63.7,25200],[63.7,25246],[63.7,25289],[63.7,25331],[63.7,25372],[63.7,25420],[63.7,25461],[63.7,25503],[63.7,25546],[63.7,25590],[63.7,25634],[63.7,25680],[63.7,25724],[63.7,25768],[63.7,25811],[63.7,25855],[63.7,25894],[63.7,25943],[63.7,25985],[63.7,26025],[63.7,26064],[63.7,26113],[63.7,26156],[63.7,26200],[63.7,26247],[63.7,26289],[63.7,26335],[63.7,26378],[63.7,26420],[63.7,26464],[63.7,26508],[63.7,26551],[63.7,26599],[63.7,26639],[63.7,26682],[63.7,26726],[63.7,26769],[63.7,26813],[63.7,26854],[63.7,26893],[63.7,26936],[63.7,26980],[63.7,27022],[63.7,27072],[63.7,27115],[63.7,27158],[63.7,27199],[63.7,27244],[63.7,27287],[63.7,27329],[63.7,27377],[63.7,27426],[63.7,27466],[63.7,27514],[63.7,27557],[63.7,27601],[63.7,27640],[63.7,27683],[63.7,27727],[63.7,27770],[63.7,27811],[63.7,27855],[63.7,27894],[63.7,27938],[63.7,27983],[63.7,28026],[63.7,28069],[63.7,28111],[63.7,28156],[63.7,28199],[63.7,28238],[63.7,28275],[63.7,28313],[63.7,28349],[63.7,28388],[63.7,28426],[63.7,28473],[63.7,28518],[63.7,28567],[63.7,28607],[63.7,28655],[63.7,28698],[63.7,28741],[63.7,28782],[63.7,28827],[63.7,28871],[63.7,28913],[63.7,28956],[63.7,29001],[63.7,29048],[63.7,29093],[63.7,29138],[63.7,29181],[63.7,29223],[63.7,29268],[63.7,29313],[63.7,29355],[64.2,29399],[65.9,29447],[67.2,29497],[68.1,29546],[68.4,29597],[68.5,29641],[68.8,29676],[69.2,29726]]",1,0,179.252,189.969,51.04166667,9.573,"[{""rating"":83.10185185185186,""responseTime"":6.091000000000008},{""rating"":48.842592592592595,""responseTime"":8.539999999999992},{""rating"":51.041666666666664,""responseTime"":9.573000000000008}]",space,10.193,,189.97,Not at all,0,189.977,,,[],,0,0,0,0,1,audio/Narrative13Situation2.wav,audio/Narrative13Situation2.wav,audio/Narrative13Situation2.wav,audio/Narrative13Situation2.wav,2,2,2,2,,,,,,,,,,,,,,,,,,,,,,,,,,,,,,,,,,,,,,,
,,,,,,65ad66e598dfe7e971227a1e,2024-02-08_15h03.51.431,group3.1-3.2-social-tom,2023.2.2,MacIntel,33.33333333,65c5074098b851296ff0b7ed,65c54185963a750c5bb343da,,,,,,,,,,,,,,,,,,,,,,,,,,,,,189.978,1,audio/Narrative8Situation1.wav,192.62,space,192.62,208.537,"[[999,1],[999,42],[999,90],[999,134],[999,174],[999,217],[999,266],[999,310],[999,337],[999,387],[999,435],[999,477],[999,526],[999,569],[999,611],[999,651],[999,695],[999,739],[999,787],[999,830],[999,873],[999,915],[999,959],[999,1007],[999,1051],[999,1097],[999,1143],[999,1188],[999,1237],[999,1281],[999,1325],[999,1376],[999,1425],[52.1,1475],[47.5,2634],[47.3,2685],[47.1,2734],[46.6,2784],[45.9,2835],[45.8,2885],[45.8,2932],[45.8,2978],[46.1,3022],[46.5,3067],[47.6,3115],[48.8,3164],[49.7,3213],[50,3264],[50,3307],[50,3353],[50,3395],[50,3433],[50,3480],[50,3526],[50,3562],[50,3610],[50,3652],[50,3698],[50,3745],[50,3787],[50,3831],[50,3875],[50,3915],[50,3962],[50,4007],[50,4045],[50,4088],[50,4133],[50,4177],[50,4222],[50,4265],[50,4307],[50,4352],[50,4397],[50,4443],[50,4486],[50,4528],[50,4569],[50,4615],[50,4658],[50,4700],[50,4736],[50,4775],[50,4813],[50,4849],[50,4893],[50,4936],[50,4981],[50,5025],[50,5069],[50,5115],[50,5158],[50,5195],[50,5239],[50,5283],[50,5325],[50,5369],[50,5412],[50,5450],[50,5492],[50,5539],[50,5584],[50,5623],[50,5669],[50,5712],[50,5754],[50,5799],[50,5842],[50,5882],[50,5925],[50,5968],[50,6015],[50,6061],[50,6104],[50,6147],[50,6189],[50,6233],[50,6276],[50,6319],[50,6359],[50,6395],[50,6432],[50,6471],[50,6507],[50,6551],[50,6593],[50,6633],[50,6670],[50,6707],[50,6746],[50,6783],[50,6819],[50,6858],[50,6896],[50,6944],[50,6989],[50,7033],[50,7073],[50,7121],[50,7164],[50,7207],[50,7252],[50,7301],[50,7343],[50,7388],[50,7438],[50,7480],[50,7522],[50,7572],[50,7614],[50,7658],[50,7706],[50,7748],[50,7788],[50,7834],[50,7877],[50,7921],[50,7962],[50,8006],[50,8050],[50,8091],[50,8129],[50,8167],[50,8204],[50,8242],[50,8278],[50,8316],[50,8363],[50,8408],[50,8454],[50,8497],[50,8539],[50,8582],[50,8626],[50,8669],[50,8707],[50,8745],[50,8783],[50,8819],[50,8858],[50,8895],[50,8932],[50,8968],[50,9013],[50,9057],[50,9099],[50,9143],[50,9186],[50,9230],[50,9270],[50,9316],[50,9360],[50,9405],[50,9449],[50,9492],[50,9539],[50,9581],[50,9626],[50,9670],[50,9716],[50,9756],[50,9805],[50,9848],[50,9890],[50,9931],[50,9980],[50,10021],[50,10066],[50,10109],[50,10157],[50,10201],[50,10246],[50,10288],[50,10336],[50,10377],[50,10423],[50,10461],[50,10503],[50,10546],[50,10594],[50,10639],[50,10683],[50,10723],[50,10771],[50,10818],[50,10864],[50,10909],[50,10954],[50,10997],[50,11046],[50,11097],[50,11146],[50,11197],[50,11247],[50,11296],[50,11348],[50,11397],[50,11448],[50,11498],[50,11548],[50,11598],[50,11647],[50,11698],[50,11748],[50,11798],[50,11847],[50,11897],[50,11948],[50,11998],[50,12048],[50,12098],[50,12147],[50,12198],[50,12248],[50,12298],[50,12349],[50,12399],[50,12449],[50,12498],[50,12548],[50,12599],[50,12649],[50,12699],[50,12748],[50,12799],[50,12849],[50,12899],[50,12949],[50,13000],[50,13050],[50,13099],[50,13150],[50,13199],[50,13250],[50,13300],[50,13349],[50,13400],[50,13449],[50,13500],[50,13550],[50,13599],[50,13649],[50,13699],[50,13750],[50,13799],[50,13849],[50,13899],[50,13950],[50,13998],[50,14049],[50,14099],[50,14150],[50,14200],[50,14250],[50,14300],[50,14349],[50,14400],[50,14449],[50,14500],[50,14550],[50,14599],[50,14650],[50,14700],[50,14750],[50,14800],[50,14849],[50,14900],[50,14950],[50.3,14998],[51.3,15050],[52.4,15099],[53,15150],[53.4,15200],[53.6,15250],[54.1,15300],[54.6,15349],[55.4,15400],[56,15450],[56.7,15500],[57.3,15550],[57.9,15599],[58.3,15650],[58.7,15700],[59.1,15750],[59.7,15800],[60.1,15832],[60.6,15883]]",1,0,208.538,217.016,88.19444444,7.185,"[{""rating"":88.19444444444444,""responseTime"":7.185000000000002}]",space,7.942,,217.016,All the time,100,217.025,,,[],,0,1,1,1,1,audio/Narrative7Situation1.wav,audio/Narrative8Situation1.wav,audio/Narrative5Situation1.wav,audio/Narrative6Situation1.wav,2,5,5,2,2.628,,,,,,,,,,,,,,,,,,,,,,,,,,,,,,,,,,,,,,
,,,,,,65ad66e598dfe7e971227a1e,2024-02-08_15h03.51.431,group3.1-3.2-social-tom,2023.2.2,MacIntel,33.33333333,65c5074098b851296ff0b7ed,65c54185963a750c5bb343da,,,,,,,,,,,,,,,,,,,,,,,,,,,,,217.026,1,audio/Narrative8Situation2.wav,220.033,,220.033,230.155,"[[999,1],[999,39],[999,85],[999,132],[999,175],[999,222],[999,270],[999,310],[999,342],[999,391],[999,431],[999,477],[999,519],[999,561],[999,599],[999,637],[999,674],[999,711],[999,747],[999,793],[999,838],[999,883],[999,924],[999,972],[999,1013],[999,1058],[999,1103],[999,1146],[999,1189],[999,1234],[999,1278],[999,1319],[999,1361],[999,1406],[999,1448],[999,1493],[999,1538],[999,1582],[999,1626],[999,1668],[999,1712],[999,1757],[999,1800],[999,1843],[999,1885],[999,1930],[999,1973],[999,2019],[999,2056],[999,2099],[999,2150],[999,2189],[999,2234],[999,2278],[999,2319],[999,2363],[999,2406],[999,2450],[999,2494],[999,2536],[999,2579],[999,2623],[999,2674],[999,2715],[999,2763],[999,2808],[999,2850],[999,2896],[999,2942],[999,2984],[999,3026],[999,3068],[999,3113],[999,3156],[999,3199],[999,3242],[999,3286],[999,3330],[999,3378],[999,3423],[999,3467],[999,3510],[999,3555],[999,3597],[999,3645],[999,3688],[999,3732],[999,3776],[999,3822],[999,3866],[999,3912],[999,3954],[999,3997],[999,4042],[999,4091],[999,4132],[999,4176],[999,4222],[999,4265],[999,4308],[999,4353],[999,4399],[999,4436],[999,4474],[999,4512],[999,4549],[999,4586],[999,4625],[999,4662],[999,4698],[999,4738],[999,4787],[999,4829],[999,4875],[999,4919],[999,4962],[999,5006],[999,5044],[999,5081],[999,5120],[999,5156],[999,5193],[999,5231],[999,5269],[999,5317],[999,5358],[999,5406],[999,5453],[999,5495],[999,5543],[999,5586],[999,5632],[999,5674],[999,5716],[999,5759],[999,5807],[999,5853],[999,5895],[999,5938],[999,5982],[999,6027],[999,6073],[999,6114],[999,6158],[999,6201],[999,6245],[999,6290],[999,6334],[999,6371],[999,6408],[999,6447],[999,6484],[999,6520],[999,6566],[999,6606],[999,6650],[999,6695],[999,6738],[999,6787],[999,6828],[999,6870],[999,6913],[999,6960],[999,7006],[999,7051],[999,7097],[999,7144],[999,7183],[999,7222],[999,7269],[999,7313],[999,7359],[999,7402],[999,7448],[999,7486],[999,7525],[999,7562],[999,7599],[999,7638],[999,7675],[999,7723],[999,7764],[999,7810],[999,7853],[999,7896],[999,7942],[999,7986],[999,8031],[999,8073],[999,8115],[999,8159],[999,8203],[999,8246],[999,8287],[999,8332],[999,8379],[999,8421],[999,8471],[999,8512],[999,8555],[999,8598],[999,8643],[999,8692],[999,8732],[999,8776],[999,8820],[999,8863],[999,8912],[999,8953],[999,8995],[999,9038],[999,9081],[999,9126],[999,9165],[999,9204],[999,9241],[999,9281],[999,9326],[999,9369],[999,9417],[999,9460],[999,9502],[999,9546],[999,9588],[999,9633],[999,9677],[999,9722],[999,9764],[999,9807],[999,9851],[999,9894],[999,9938],[999,9982],[999,10010],[999,10058],[999,10104]]",1,0,230.155,234.905,85.30092593,3.76,"[{""rating"":85.30092592592592,""responseTime"":3.7600000000000193}]",space,4.222,,234.905,Not at all,0,234.912,,,[],,0,2,2,2,1,audio/Narrative7Situation2.wav,audio/Narrative8Situation2.wav,audio/Narrative5Situation2.wav,audio/Narrative6Situation2.wav,3,3,3,3,,,,,,,,,,,,,,,,,,,,,,,,,,,,,,,,,,,,,,,
,,,,,,65ad66e598dfe7e971227a1e,2024-02-08_15h03.51.431,group3.1-3.2-social-tom,2023.2.2,MacIntel,33.33333333,65c5074098b851296ff0b7ed,65c54185963a750c5bb343da,,,,,,,,,,,,,,,,,,,,,,,,,,,,,234.912,1,audio/Narrative8Situation3.wav,238.915,,238.915,261.288,"[[999,0],[999,48],[999,96],[999,139],[999,185],[999,229],[999,268],[999,305],[999,328],[999,375],[999,420],[999,465],[999,509],[999,558],[999,602],[999,645],[999,693],[999,738],[999,781],[999,824],[999,869],[999,915],[999,960],[999,1004],[999,1045],[999,1093],[999,1140],[999,1182],[999,1221],[999,1259],[999,1298],[999,1344],[999,1389],[999,1433],[999,1475],[999,1522],[999,1566],[999,1611],[999,1656],[999,1701],[999,1740],[999,1792],[999,1835],[999,1881],[999,1926],[999,1971],[999,2014],[999,2063],[999,2106],[999,2155],[999,2195],[999,2239],[999,2281],[999,2329],[999,2373],[999,2415],[999,2459],[999,2500],[999,2544],[999,2593],[999,2637],[999,2679],[999,2721],[999,2764],[999,2806],[999,2852],[999,2895],[999,2933],[999,2977],[999,3021],[999,3064],[999,3108],[999,3156],[999,3197],[999,3242],[999,3286],[999,3329],[999,3367],[999,3405],[999,3442],[999,3479],[999,3522],[999,3566],[999,3611],[999,3656],[999,3704],[999,3745],[999,3793],[999,3846],[999,3887],[999,3929],[999,3973],[999,4018],[999,4058],[999,4096],[999,4133],[999,4170],[999,4209],[999,4251],[999,4294],[999,4336],[999,4381],[999,4424],[999,4469],[999,4512],[999,4556],[999,4602],[999,4645],[999,4689],[999,4733],[999,4777],[999,4819],[999,4869],[999,4911],[999,4953],[999,4998],[999,5039],[999,5084],[999,5128],[999,5173],[999,5215],[999,5256],[999,5304],[999,5344],[999,5393],[999,5435],[999,5477],[999,5519],[999,5562],[999,5606],[999,5650],[999,5695],[999,5738],[999,5782],[999,5825],[999,5867],[999,5915],[999,5957],[999,6002],[999,6042],[999,6088],[999,6131],[999,6176],[999,6222],[999,6272],[999,6316],[999,6359],[999,6406],[999,6455],[999,6502],[999,6544],[999,6587],[999,6628],[999,6675],[999,6715],[999,6760],[999,6804],[999,6847],[999,6897],[999,6942],[999,6985],[999,7027],[999,7070],[999,7114],[999,7161],[999,7204],[999,7247],[999,7290],[999,7340],[999,7382],[999,7424],[999,7468],[999,7518],[999,7564],[999,7606],[999,7651],[999,7697],[999,7739],[999,7782],[999,7826],[999,7876],[999,7919],[999,7965],[999,8008],[999,8052],[999,8095],[999,8140],[999,8186],[999,8229],[999,8273],[999,8325],[999,8366],[999,8412],[999,8460],[999,8503],[999,8545],[999,8590],[999,8633],[999,8677],[999,8722],[999,8765],[999,8811],[999,8861],[999,8907],[999,8950],[999,8994],[999,9037],[999,9080],[999,9123],[999,9167],[999,9207],[999,9254],[999,9294],[999,9343],[999,9386],[999,9429],[999,9472],[999,9509],[999,9546],[999,9583],[999,9631],[999,9674],[999,9717],[999,9760],[999,9801],[999,9847],[999,9890],[999,9939],[999,9982],[999,10025],[999,10068],[999,10111],[999,10150],[999,10188],[999,10225],[999,10265],[999,10311],[999,10355],[999,10400],[999,10443],[999,10489],[999,10532],[999,10576],[999,10619],[999,10667],[999,10708],[999,10753],[999,10795],[999,10837],[999,10876],[999,10914],[999,10950],[999,10989],[999,11027],[999,11073],[999,11117],[999,11160],[999,11208],[999,11249],[999,11294],[999,11337],[999,11381],[999,11426],[999,11477],[999,11527],[999,11576],[999,11628],[999,11676],[999,11727],[999,11777],[999,11826],[999,11878],[999,11926],[999,11977],[999,12027],[999,12078],[999,12128],[999,12177],[999,12227],[999,12278],[999,12328],[999,12378],[999,12429],[999,12477],[999,12528],[999,12578],[999,12628],[999,12679],[999,12729],[999,12778],[999,12828],[999,12878],[999,12929],[999,12979],[999,13028],[999,13080],[999,13128],[999,13179],[999,13229],[999,13280],[999,13328],[999,13379],[999,13429],[999,13479],[999,13530],[999,13580],[999,13629],[999,13679],[999,13729],[999,13780],[999,13830],[999,13879],[999,13929],[999,13979],[999,14030],[999,14080],[999,14128],[999,14179],[999,14229],[999,14280],[999,14330],[999,14381],[999,14429],[999,14480],[999,14530],[999,14580],[999,14629],[999,14679],[999,14729],[999,14780],[999,14830],[999,14881],[999,14929],[999,14980],[999,15030],[999,15080],[999,15129],[999,15179],[999,15232],[999,15280],[999,15330],[999,15379],[999,15431],[999,15479],[999,15530],[999,15580],[999,15631],[999,15681],[999,15729],[999,15780],[999,15830],[999,15881],[999,15931],[999,15980],[999,16030],[999,16080],[999,16131],[999,16179],[999,16229],[999,16280],[999,16330],[999,16381],[999,16431],[999,16479],[999,16530],[999,16580],[999,16631],[999,16679],[999,16730],[999,16780],[999,16830],[999,16881],[999,16931],[999,16979],[999,17030],[999,17080],[999,17129],[999,17179],[999,17230],[999,17280],[999,17330],[999,17379],[999,17431],[999,17480],[999,17530],[999,17580],[999,17631],[999,17679],[999,17729],[999,17780],[999,17830],[999,17881],[999,17931],[999,17980],[999,18030],[999,18080],[999,18131],[999,18179],[999,18229],[999,18282],[999,18330],[999,18381],[999,18431],[999,18479],[999,18530],[999,18580],[999,18631],[999,18679],[999,18729],[999,18780],[999,18830],[999,18881],[999,18924],[999,18968],[999,19010],[999,19056],[999,19099],[999,19143],[999,19186],[999,19234],[999,19277],[999,19323],[999,19369],[999,19407],[999,19455],[999,19501],[999,19544],[999,19587],[999,19626],[999,19676],[999,19718],[999,19761],[999,19799],[999,19845],[999,19893],[999,19934],[999,19984],[999,20030],[999,20068],[999,20112],[999,20158],[999,20203],[999,20246],[999,20289],[999,20330],[999,20376],[999,20419],[999,20462],[999,20506],[999,20554],[999,20597],[999,20641],[999,20683],[999,20728],[999,20771],[999,20813],[999,20859],[999,20902],[999,20943],[999,20987],[999,21033],[999,21076],[999,21121],[999,21164],[999,21208],[999,21247],[999,21295],[999,21335],[999,21372],[999,21410],[999,21448],[999,21486],[999,21521],[999,21561],[999,21597],[999,21635],[999,21671],[999,21717],[999,21760],[999,21809],[999,21849],[999,21895],[999,21938],[999,21982],[999,22025],[999,22068],[999,22111],[999,22157],[999,22200],[999,22244],[999,22271],[999,22311],[999,22357]]",1,0,261.288,268.107,37.26851852,5.43,"[{""rating"":37.26851851851852,""responseTime"":5.430000000000007}]",space,6.29,,268.107,All the time,100,268.114,,,[],,0,3,3,3,1,audio/Narrative7Situation3.wav,audio/Narrative8Situation3.wav,audio/Narrative5Situation3.wav,audio/Narrative6Situation3.wav,8,4,3,5,,,,,,,,,,,,,,,,,,,,,,,,,,,,,,,,,,,,,,,
,,,,,,65ad66e598dfe7e971227a1e,2024-02-08_15h03.51.431,group3.1-3.2-social-tom,2023.2.2,MacIntel,33.33333333,65c5074098b851296ff0b7ed,65c54185963a750c5bb343da,,,,,,,,,,,,,,,,,,,,,,,,,,,,,268.114,1,audio/Narrative8Situation4.wav,271.127,,271.128,285.294,"[[999,0],[999,40],[999,89],[999,136],[999,182],[999,225],[999,265],[999,308],[999,338],[999,384],[999,435],[58.9,906]]",1,0,285.294,302.443,43.1712963,16.121,"[{""rating"":56.481481481481474,""responseTime"":12.891999999999996},{""rating"":43.1712962962963,""responseTime"":16.12099999999998}]",space,16.616,,302.443,Not at all,0,302.451,,,[],,0,4,4,4,1,audio/Narrative7Situation4.wav,audio/Narrative8Situation4.wav,audio/Narrative5Situation4.wav,audio/Narrative6Situation4.wav,3,3,1,2,,,,,,,,,,,,,,,,,,,,,,,,,,,,,,,,,,,,,,,
,,,,,,65ad66e598dfe7e971227a1e,2024-02-08_15h03.51.431,group3.1-3.2-social-tom,2023.2.2,MacIntel,33.33333333,65c5074098b851296ff0b7ed,65c54185963a750c5bb343da,,,,,,,,,,,,,,,,,,,,,,,,,,,,,302.451,1,audio/Narrative8Situation5.wav,304.465,,304.465,312.704,[],1,0,312.704,318.217,31.59722222,1.983,"[{""rating"":31.59722222222222,""responseTime"":1.983000000000004}]",space,4.986,,318.217,Not at all,0,318.22,,,[],,0,5,5,5,1,audio/Narrative7Situation5.wav,audio/Narrative8Situation5.wav,audio/Narrative5Situation5.wav,audio/Narrative6Situation5.wav,5,2,5,2,,,,,,,,,,,,,,,,,,,,,,,,,,,,,,,,,,,,,,,
,,,,,,65ad66e598dfe7e971227a1e,2024-02-08_15h03.51.431,group3.1-3.2-social-tom,2023.2.2,MacIntel,33.33333333,65c5074098b851296ff0b7ed,65c54185963a750c5bb343da,,,,,,,,,,,,,,,,,,,,,,,,,,,,,318.22,1,audio/Narrative8Situation6.wav,320.225,,320.225,326.683,"[[999,1],[999,43],[999,88],[999,134],[999,174],[999,218],[999,262],[999,302],[999,333],[999,379],[999,420],[999,465],[999,506],[999,548],[999,593],[999,638],[999,680],[999,723],[999,769],[999,813],[999,854],[999,898],[999,943],[999,985],[999,1033],[999,1074],[999,1119],[999,1162],[999,1206],[999,1250],[999,1293],[999,1343],[999,1386],[999,1430],[999,1475],[999,1519],[999,1567],[999,1608],[999,1652],[999,1696],[999,1737],[999,1783],[999,1825],[999,1869],[999,1912],[999,1956],[999,2000],[999,2040],[999,2088],[999,2134],[999,2177],[999,2225],[999,2266],[999,2311],[999,2355],[999,2399],[999,2448],[999,2490],[999,2535],[999,2574],[999,2619],[999,2663],[999,2704],[999,2746],[999,2793],[999,2843],[999,2893],[999,2944],[51,2994],[51,3043],[50.9,3093],[50.8,3144],[50.7,3194],[50.6,3242],[50.5,3292],[50.5,3336],[50.5,3379],[50.5,3427],[50.5,3473],[50.5,3516],[50.5,3564],[50.5,3610],[50.5,3657],[50.5,3700],[50.5,3745],[50.5,3790],[50.5,3840],[50.5,3884],[50.5,3930],[50.5,3973],[50.5,4016],[50.5,4064],[50.5,4108],[50.5,4146],[50.5,4184],[50.5,4223],[50.5,4271],[50.5,4322],[50.5,4362],[50.5,4410],[50.5,4453],[50.5,4496],[50.5,4540],[50.5,4588],[50.5,4629],[50.5,4670],[50.5,4715],[50.5,4758],[50.5,4802],[50.5,4845],[50.5,4884],[50.5,4922],[50.5,4959],[50.5,4997],[50.5,5033],[50.5,5073],[50.5,5117],[50.5,5158],[50.5,5200],[50.5,5246],[50.5,5293],[50.5,5334],[50.5,5370],[50.5,5408],[50.5,5446],[50.5,5483],[50.5,5523],[50.5,5569],[50.5,5613],[50.5,5658],[50.5,5708],[50.5,5752],[50.5,5793],[50.5,5838],[50.5,5879],[50.5,5920],[50.5,5963],[50.5,6012],[50.5,6055],[50.5,6098],[50.5,6141],[50.5,6182],[50.5,6227],[50.5,6270],[50.5,6312],[50.5,6353],[50.5,6396],[50.5,6443]]",1,0,326.683,332.724,12.61574074,4.862,"[{""rating"":26.38888888888889,""responseTime"":2.416999999999973},{""rating"":22.10648148148148,""responseTime"":3.3139999999999645},{""rating"":12.615740740740739,""responseTime"":4.861999999999966}]",space,5.514,,332.724,Not at all,0,332.729,,,[],,0,6,6,6,1,audio/Narrative7Situation6.wav,audio/Narrative8Situation6.wav,audio/Narrative5Situation6.wav,audio/Narrative6Situation6.wav,3,2,3,2,,,,,,,,,,,,,,,,,,,,,,,,,,,,,,,,,,,,,,,
,,,,,,65ad66e598dfe7e971227a1e,2024-02-08_15h03.51.431,group3.1-3.2-social-tom,2023.2.2,MacIntel,33.33333333,65c5074098b851296ff0b7ed,65c54185963a750c5bb343da,,,,,,,,,,,,,,,,,,,,,,,,,,,,,332.729,1,audio/Narrative8Situation7.wav,335.732,,335.732,347.809,"[[999,0],[999,45],[999,88],[999,132],[999,175],[999,220],[999,264],[999,305],[999,335],[999,379],[999,423],[999,467],[999,504],[999,552],[999,596],[999,639],[999,680],[999,723],[999,766],[999,809],[999,852],[999,895],[999,937],[999,980],[999,1024],[999,1067],[999,1112],[999,1151],[999,1189],[999,1225],[999,1269],[999,1316],[999,1360],[999,1400],[999,1444],[999,1485],[999,1521],[999,1568],[999,1608],[999,1656],[999,1699],[999,1742],[999,1786],[999,1829],[999,1870],[999,1919],[999,1961],[999,2007],[999,2052],[999,2095],[999,2138],[999,2181],[999,2223],[999,2266],[999,2311],[999,2353],[999,2396],[999,2441],[999,2483],[999,2531],[999,2574],[999,2617],[999,2658],[999,2701],[999,2744],[999,2788],[999,2836],[999,2879],[999,2922],[999,2968],[999,3014],[999,3057],[999,3105],[999,3146],[999,3194],[999,3237],[999,3278],[999,3323],[999,3365],[999,3408],[999,3451],[999,3501],[999,3542],[999,3583],[999,3631],[999,3670],[999,3718],[999,3763],[999,3806],[999,3848],[999,3891],[999,3937],[999,3980],[999,4025],[999,4072],[999,4115],[999,4165],[999,4206],[999,4250],[999,4295],[999,4335],[999,4377],[999,4420],[999,4463],[999,4508],[999,4550],[999,4598],[999,4641],[999,4685],[999,4725],[999,4774],[999,4817],[999,4860],[999,4901],[999,4946],[999,4989],[999,5030],[999,5074],[999,5120],[999,5165],[999,5208],[999,5257],[999,5297],[999,5340],[999,5383],[999,5425],[999,5470],[999,5514],[999,5555],[999,5600],[999,5645],[999,5689],[999,5740],[999,5783],[999,5833],[999,5876],[999,5920],[999,5966],[999,6011],[999,6054],[999,6098],[999,6141],[999,6184],[999,6223],[999,6261],[999,6298],[999,6335],[999,6381],[999,6431],[999,6475],[999,6516],[999,6562],[999,6608],[999,6651],[999,6694],[999,6745],[999,6790],[999,6830],[999,6877],[999,6923],[999,6973],[999,7023],[999,7074],[999,7113],[999,7155],[999,7201],[999,7244],[999,7282],[999,7319],[999,7355],[999,7394],[999,7432],[999,7471],[999,7509],[999,7556],[999,7605],[999,7658],[999,7699],[999,7744],[999,7785],[999,7829],[999,7872],[999,7915],[999,7959],[999,8004],[999,8048],[999,8095],[999,8139],[999,8182],[999,8232],[999,8271],[999,8319],[999,8370],[999,8413],[999,8455],[999,8497],[999,8540],[999,8581],[999,8626],[999,8670],[999,8715],[999,8758],[999,8800],[999,8846],[999,8884],[999,8923],[999,8961],[999,8997],[999,9035],[999,9073],[999,9112],[999,9158],[999,9201],[999,9244],[999,9292],[999,9334],[999,9379],[999,9417],[999,9460],[999,9502],[999,9545],[999,9588],[999,9629],[999,9673],[999,9720],[999,9763],[999,9807],[999,9852],[999,9896],[999,9939],[999,9989],[999,10028],[999,10074],[999,10117],[999,10158],[999,10201],[999,10242],[999,10285],[999,10328],[999,10371],[999,10419],[999,10461],[999,10504],[999,10548],[999,10591],[999,10636],[999,10681],[999,10723],[999,10766],[999,10811],[999,10855],[999,10899],[999,10942],[999,10980],[999,11019],[999,11056],[999,11093],[999,11131],[999,11168],[999,11206],[999,11242],[999,11286],[999,11336],[999,11379],[999,11423],[999,11468],[999,11511],[999,11559],[999,11603],[999,11648],[999,11687],[999,11733],[999,11775],[999,11819],[999,11860],[999,11910],[999,11949],[999,11982],[999,12028],[999,12076]]",1,0,347.809,352.842,44.21296296,3.933,"[{""rating"":33.91203703703704,""responseTime"":3.3980000000000246},{""rating"":44.21296296296296,""responseTime"":3.9329999999999927}]",space,4.504,,352.842,Not at all,0,352.846,,,[],,0,7,7,7,1,audio/Narrative7Situation7.wav,audio/Narrative8Situation7.wav,audio/Narrative5Situation7.wav,audio/Narrative6Situation7.wav,5,3,4,5,,,,,,,,,,,,,,,,,,,,,,,,,,,,,,,,,,,,,,,
,,,,,,65ad66e598dfe7e971227a1e,2024-02-08_15h03.51.431,group3.1-3.2-social-tom,2023.2.2,MacIntel,33.33333333,65c5074098b851296ff0b7ed,65c54185963a750c5bb343da,,,,,,,,,,,,,,,,,,,,,,,,,,,,,352.846,1,audio/Narrative8Situation8.wav,355.86,,355.86,368.701,"[[999,1],[999,43],[999,88],[999,133],[999,174],[999,218],[999,262],[999,303],[999,329],[999,371],[999,420],[999,463],[999,509],[999,552],[999,595],[999,638],[999,687],[999,727],[999,772],[999,815],[999,859],[999,903],[999,945],[999,989],[999,1031],[999,1074],[999,1118],[999,1161],[999,1209],[999,1256],[999,1299],[999,1342],[999,1385],[999,1429],[999,1471],[999,1508],[999,1547],[999,1596],[999,1639],[999,1683],[999,1724],[999,1768],[999,1811],[999,1855],[999,1898],[999,1942],[999,1982],[999,2026],[999,2071],[999,2112],[999,2161],[999,2205],[999,2253],[999,2295],[999,2340],[999,2385],[999,2424],[999,2462],[999,2499],[999,2537],[999,2574],[999,2612],[999,2661],[999,2704],[999,2754],[999,2793],[999,2842],[999,2885],[999,2927],[999,2971],[999,3017],[999,3062],[999,3105],[999,3147],[999,3192],[999,3237],[999,3279],[999,3322],[999,3368],[999,3411],[999,3455],[999,3501],[999,3545],[999,3587],[999,3629],[999,3673],[999,3718],[999,3757],[999,3804],[999,3847],[999,3890],[999,3934],[999,3976],[999,4019],[999,4063],[999,4107],[999,4149],[999,4199],[999,4240],[999,4283],[999,4326],[999,4375],[999,4416],[999,4459],[999,4503],[999,4547],[999,4593],[999,4636],[999,4677],[999,4721],[999,4764],[999,4808],[999,4848],[999,4892],[999,4935],[999,4977],[999,5021],[999,5063],[999,5108],[999,5153],[999,5196],[999,5239],[999,5280],[999,5322],[999,5367],[999,5411],[999,5454],[999,5497],[999,5538],[999,5580],[999,5623],[999,5667],[999,5710],[999,5755],[999,5804],[999,5847],[999,5891],[999,5932],[999,5976],[999,6021],[999,6062],[999,6111],[999,6155],[999,6197],[999,6244],[999,6282],[999,6324],[999,6366],[999,6417],[999,6460],[999,6503],[999,6545],[999,6594],[999,6638],[999,6681],[999,6726],[999,6775],[999,6818],[999,6862],[999,6903],[999,6941],[999,6988],[999,7033],[999,7076],[999,7125],[999,7165],[999,7210],[999,7253],[999,7295],[999,7333],[999,7370],[999,7407],[999,7447],[999,7498],[999,7541],[999,7584],[999,7630],[999,7673],[999,7718],[999,7762],[999,7805],[999,7849],[999,7893],[999,7933],[999,7970],[999,8008],[999,8045],[999,8083],[999,8129],[999,8173],[999,8216],[999,8259],[999,8308],[999,8349],[999,8393],[999,8436],[999,8480],[999,8522],[999,8565],[999,8609],[999,8652],[999,8691],[999,8728],[999,8766],[999,8803],[999,8843],[999,8888],[999,8932],[999,8975],[999,9016],[999,9059],[999,9107],[999,9148],[999,9193],[999,9237],[999,9277],[999,9321],[999,9365],[999,9408],[999,9453],[999,9496],[999,9545],[999,9586],[999,9628],[999,9670],[999,9714],[999,9757],[999,9800],[999,9847],[999,9889],[999,9934],[999,9979],[999,10024],[999,10067],[999,10116],[999,10156],[999,10200],[999,10245],[999,10287],[999,10329],[999,10374],[999,10420],[999,10463],[999,10505],[999,10548],[999,10592],[999,10635],[999,10677],[999,10718],[999,10760],[999,10804],[999,10848],[999,10895],[999,10938],[999,10983],[999,11028],[999,11071],[999,11114],[999,11162],[999,11205],[999,11248],[999,11292],[999,11335],[999,11376],[999,11423],[999,11464],[999,11509],[999,11553],[999,11593],[999,11642],[999,11684],[999,11727],[999,11771],[999,11820],[999,11861],[999,11903],[999,11946],[999,11990],[999,12030],[999,12079],[999,12124],[999,12167],[999,12215],[999,12256],[999,12300],[999,12345],[999,12388],[999,12431],[999,12475],[999,12521],[999,12565],[999,12609],[999,12655],[999,12698],[999,12737],[999,12775],[999,12825]]",1,0,368.701,372.587,16.2037037,3.083,"[{""rating"":16.203703703703702,""responseTime"":3.083000000000027}]",space,3.366,,372.587,All the time,100,372.594,,,[],,0,8,8,8,1,audio/Narrative7Situation8.wav,audio/Narrative8Situation8.wav,audio/Narrative5Situation8.wav,audio/Narrative6Situation8.wav,2,3,3,5,,,,,,,,,,,,,,,,,,,,,,,,,,,,,,,,,,,,,,,
,,,,,,65ad66e598dfe7e971227a1e,2024-02-08_15h03.51.431,group3.1-3.2-social-tom,2023.2.2,MacIntel,33.33333333,65c5074098b851296ff0b7ed,65c54185963a750c5bb343da,,,,,,,,,,,,,,,,,,,,,,,,,,,,,372.594,1,audio/Narrative8Situation9.wav,375.595,,375.595,386.898,"[[999,1],[999,45],[999,91],[999,134],[999,175],[999,218],[999,264],[999,307],[999,336],[999,381],[999,423],[999,468],[999,509],[999,552],[999,593],[999,637],[999,682],[999,725],[999,773],[999,814],[999,857],[999,907],[999,953],[999,997],[999,1038],[999,1085],[999,1137],[999,1179],[999,1222],[999,1263],[999,1307],[999,1357],[999,1401],[999,1442],[999,1490],[999,1533],[999,1576],[999,1617],[999,1662],[999,1705],[999,1747],[999,1790],[999,1835],[999,1878],[999,1920],[999,1963],[999,2007],[999,2050],[999,2093],[999,2137],[999,2179],[999,2220],[999,2269],[999,2309],[999,2355],[999,2396],[999,2441],[999,2483],[999,2526],[999,2569],[999,2612],[999,2658],[999,2701],[999,2745],[999,2788],[999,2833],[999,2877],[999,2919],[999,2968],[999,3009],[999,3057],[999,3100],[999,3143],[999,3185],[999,3223],[999,3259],[999,3298],[999,3335],[999,3372],[999,3420],[999,3467],[999,3514],[999,3557],[999,3603],[999,3648],[999,3691],[999,3739],[999,3783],[999,3824],[999,3867],[999,3912],[999,3954],[999,4002],[999,4052],[999,4096],[999,4134],[999,4173],[999,4211],[999,4247],[999,4286],[999,4324],[999,4372],[999,4415],[999,4456],[999,4499],[999,4542],[999,4586],[999,4632],[999,4677],[999,4720],[999,4764],[999,4807],[999,4853],[999,4899],[999,4943],[999,4987],[999,5032],[999,5076],[999,5119],[999,5162],[999,5208],[999,5253],[999,5298],[999,5345],[999,5395],[999,5437],[999,5482],[999,5531],[999,5576],[999,5620],[999,5663],[999,5711],[999,5758],[999,5802],[999,5846],[999,5891],[999,5939],[999,5984],[999,6028],[999,6071],[999,6116],[999,6163],[999,6206],[999,6247],[999,6292],[999,6336],[999,6384],[999,6430],[999,6475],[999,6521],[999,6564],[999,6612],[999,6656],[999,6701],[999,6746],[999,6786],[999,6829],[999,6872],[999,6917],[999,6959],[999,7002],[999,7043],[999,7081],[999,7119],[999,7163],[999,7208],[999,7254],[999,7300],[999,7343],[999,7384],[999,7429],[999,7475],[999,7520],[999,7564],[999,7608],[999,7650],[999,7693],[999,7735],[999,7786],[999,7830],[999,7870],[999,7918],[999,7968],[999,8009],[999,8052],[999,8093],[999,8145],[999,8189],[999,8233],[999,8280],[999,8324],[999,8370],[999,8417],[999,8461],[999,8500],[999,8548],[999,8595],[999,8638],[999,8681],[999,8725],[999,8768],[999,8812],[999,8855],[999,8898],[999,8935],[999,8982],[999,9025],[999,9069],[999,9119],[999,9163],[999,9208],[999,9252],[999,9295],[999,9338],[999,9384],[999,9423],[999,9460],[999,9497],[999,9535],[999,9573],[999,9609],[999,9653],[999,9696],[999,9740],[999,9790],[999,9834],[999,9879],[999,9923],[999,9968],[999,10012],[999,10055],[999,10093],[999,10134],[999,10185],[999,10226],[999,10269],[999,10312],[999,10354],[999,10400],[999,10437],[999,10484],[999,10528],[999,10573],[999,10615],[999,10663],[999,10705],[999,10749],[999,10795],[999,10843],[999,10891],[999,10932],[999,10982],[999,11025],[999,11068],[999,11110],[999,11153],[999,11199],[999,11235],[999,11286]]",1,0,386.898,391.749,80.32407407,3.712,"[{""rating"":13.425925925925924,""responseTime"":1.7620000000000005},{""rating"":80.32407407407408,""responseTime"":3.711999999999989}]",space,4.314,,391.749,All the time,100,391.754,,,[],,0,9,9,9,1,audio/Narrative7Situation9.wav,audio/Narrative8Situation9.wav,audio/Narrative5Situation9.wav,audio/Narrative6Situation9.wav,2,3,3,4,,,,,,,,,,,,,,,,,,,,,,,,,,,,,,,,,,,,,,,
,,,,,,65ad66e598dfe7e971227a1e,2024-02-08_15h03.51.431,group3.1-3.2-social-tom,2023.2.2,MacIntel,33.33333333,65c5074098b851296ff0b7ed,65c54185963a750c5bb343da,,,,,,,,,,,,,,,,,,,,,,,,,,,,,391.755,1,audio/Narrative7Situation1.wav,393.759,,393.759,449.645,"[[80.4,17014],[80.4,17056],[80.4,17099],[80.4,17143],[80.4,17187],[80.4,17227],[80.4,17274],[80.6,17316],[80.6,17361],[80.6,17406],[80.6,17450],[80.6,17493],[80.6,17537],[80.6,17581],[80.7,17626],[80.8,17665],[81.1,17709],[81.4,17755],[81.5,17806],[81.5,17856],[81.4,17906],[81.4,17955],[81.4,17999],[81.4,18042],[81.4,18084],[81.4,18124],[81.4,18168],[81.4,18215],[81.4,18259],[81.4,18303],[81.4,18345],[81.4,18389],[81.4,18428],[81.4,18477],[81.4,18520],[81.4,18563],[81.4,18607],[81.4,18650],[81.4,18693],[81.4,18737],[81.4,18780],[81.4,18821],[81.4,18859],[81.4,18896],[81.4,18934],[81.4,18971],[81.4,19009],[81.4,19046],[81.4,19090],[81.4,19134],[81.4,19178],[81.4,19223],[81.4,19267],[81.4,19310],[81.4,19359],[81.4,19399],[81.4,19444],[81.4,19488],[81.4,19530],[81.4,19573],[81.4,19618],[81.4,19660],[81.4,19704],[81.4,19748],[81.4,19793],[81.4,19838],[81.4,19881],[81.4,19925],[81.4,19970],[81.4,20015],[81.4,20061],[81.4,20105],[81.4,20148],[81.4,20191],[81.4,20236],[81.4,20281],[81.4,20326],[81.4,20369],[81.4,20417],[81.4,20460],[81.4,20504],[81.4,20548],[81.4,20597],[81.4,20637],[81.4,20682],[81.4,20725],[81.4,20769],[81.4,20811],[81.4,20860],[81.4,20902],[81.4,20946],[81.4,20990],[81.4,21033],[81.4,21072],[81.4,21109],[81.4,21146],[81.4,21184],[81.4,21230],[81.4,21273],[81.4,21315],[81.4,21360],[81.4,21405],[81.4,21448],[81.4,21491],[81.4,21539],[81.4,21582],[81.4,21625],[81.4,21669],[81.4,21711],[81.4,21754],[81.4,21797],[81.4,21841],[81.4,21884],[81.4,21925],[81.4,21969],[81.4,22013],[81.4,22054],[81.4,22096],[81.4,22140],[81.4,22183],[81.4,22228],[81.4,22273],[81.4,22321],[81.4,22362],[81.4,22405],[81.4,22447],[81.4,22491],[81.4,22535],[81.4,22589],[81.4,22634],[81.4,22672],[81.4,22721],[81.4,22764],[81.4,22804],[81.4,22847],[81.4,22889],[81.4,22933],[81.4,22976],[81.4,23019],[81.4,23061],[81.4,23104],[81.4,23148],[81.4,23190],[81.4,23239],[81.4,23282],[81.4,23325],[81.4,23369],[81.4,23412],[81.4,23454],[81.4,23502],[81.4,23546],[81.4,23589],[81.4,23632],[81.4,23675],[81.4,23719],[81.4,23762],[81.4,23805],[81.4,23848],[81.4,23892],[81.4,23936],[81.4,23976],[81.4,24013],[81.4,24051],[81.4,24088],[81.4,24126],[81.4,24163],[81.4,24200],[81.4,24248],[81.4,24290],[81.4,24335],[81.4,24379],[81.4,24423],[81.4,24471],[81.4,24512],[81.4,24555],[81.4,24598],[81.4,24641],[81.4,24685],[81.4,24730],[81.4,24773],[81.4,24816],[81.4,24864],[81.4,24907],[81.4,24950],[81.4,24994],[81.4,25037],[81.4,25078],[81.4,25127],[81.4,25171],[81.4,25214],[81.4,25264],[81.4,25304],[81.4,25347],[81.4,25390],[81.4,25433],[81.4,25478],[81.4,25523],[81.4,25562],[81.4,25607],[81.4,25648],[81.4,25691],[81.4,25734],[81.4,25777],[81.4,25821],[81.4,25866],[81.4,25909],[81.4,25952],[81.4,25995],[81.4,26038],[81.4,26082],[81.4,26125],[81.4,26168],[81.4,26211],[81.4,26254],[81.4,26299],[81.4,26341],[81.4,26384],[81.4,26428],[81.4,26470],[81.4,26515],[81.4,26558],[81.4,26607],[81.4,26649]]",1,0,449.645,452.761,8.912037037,1.802,"[{""rating"":8.912037037037035,""responseTime"":1.802000000000021}]",space,2.57,,452.761,All the time,100,452.767,,,[],,0,10,10,10,1,audio/Narrative8Situation1.wav,audio/Narrative7Situation1.wav,audio/Narrative6Situation1.wav,audio/Narrative5Situation1.wav,5,2,2,5,,,,,,,,,,,,,,,,,,,,,,,,,,,,,,,,,,,,,,,
,,,,,,65ad66e598dfe7e971227a1e,2024-02-08_15h03.51.431,group3.1-3.2-social-tom,2023.2.2,MacIntel,33.33333333,65c5074098b851296ff0b7ed,65c54185963a750c5bb343da,,,,,,,,,,,,,,,,,,,,,,,,,,,,,452.767,1,audio/Narrative7Situation2.wav,455.77,,455.77,463.249,"[[999,0],[999,48],[999,95],[999,134],[999,180],[999,225],[999,262],[999,305],[999,336],[999,382],[999,425],[999,463],[999,497],[999,538],[999,584],[999,632],[999,677],[999,720],[999,764],[999,810],[999,853],[999,898],[999,939],[999,985],[999,1024],[999,1072],[999,1115],[999,1158],[999,1206],[999,1248],[999,1293],[999,1336],[999,1377],[999,1423],[999,1468],[999,1510],[999,1555],[999,1598],[999,1644],[999,1685],[999,1725],[999,1762],[999,1810],[999,1857],[999,1899],[999,1942],[999,1985],[999,2028],[999,2072],[999,2120],[999,2163],[999,2211],[999,2252],[999,2302],[999,2341],[999,2389],[999,2430],[999,2477],[999,2516],[999,2552],[999,2590],[999,2629],[999,2675],[999,2720],[999,2762],[999,2812],[999,2862],[999,2906],[999,2951],[999,2992],[999,3040],[999,3088],[999,3132],[999,3182],[999,3223],[999,3271],[999,3322],[999,3364],[999,3406],[999,3449],[999,3495],[999,3540],[999,3588],[999,3632],[999,3675],[999,3723],[999,3764],[999,3809],[999,3853],[999,3898],[999,3944],[999,3987],[999,4033],[999,4076],[999,4120],[999,4163],[999,4208],[999,4252],[999,4295],[999,4345],[999,4384],[999,4432],[999,4475],[999,4519],[999,4562],[999,4608],[999,4653],[999,4696],[999,4739],[999,4783],[999,4822],[999,4867],[999,4911],[999,4951],[999,4990],[999,5028],[999,5069],[999,5120],[999,5167],[999,5206],[999,5245],[999,5292],[999,5338],[999,5379],[999,5423],[999,5466],[999,5514],[999,5559],[999,5605],[999,5653],[999,5699],[999,5745],[999,5785],[999,5829],[999,5875],[999,5925],[999,5975],[999,6024],[999,6074],[999,6125],[999,6175],[999,6225],[999,6276],[999,6326],[999,6376],[999,6425],[999,6475],[999,6526],[999,6576],[999,6626],[999,6675],[999,6725],[999,6776],[999,6826],[999,6877],[999,6925],[999,6975],[999,7026],[999,7076],[999,7127],[999,7175],[999,7225],[999,7276],[999,7326],[999,7363],[999,7410],[999,7461]]",1,0,463.249,468.815,10.53240741,4.787,"[{""rating"":10.532407407407407,""responseTime"":4.786999999999978}]",space,5.031,,468.815,All the time,100,468.821,,,[],,0,11,11,11,1,audio/Narrative8Situation2.wav,audio/Narrative7Situation2.wav,audio/Narrative6Situation2.wav,audio/Narrative5Situation2.wav,3,3,3,3,,,,,,,,,,,,,,,,,,,,,,,,,,,,,,,,,,,,,,,
,,,,,,65ad66e598dfe7e971227a1e,2024-02-08_15h03.51.431,group3.1-3.2-social-tom,2023.2.2,MacIntel,33.33333333,65c5074098b851296ff0b7ed,65c54185963a750c5bb343da,,,,,,,,,,,,,,,,,,,,,,,,,,,,,468.821,1,audio/Narrative7Situation3.wav,476.828,,476.829,486.095,"[[999,0],[999,38],[999,85],[999,127],[999,171],[999,221],[999,269],[999,312],[999,342],[999,387],[999,435],[999,483],[999,526],[999,570],[999,612],[999,656],[999,701],[999,742],[999,786],[999,822],[999,860],[999,899],[999,935],[999,972],[999,1012],[999,1062],[999,1108],[999,1152],[999,1192],[999,1239],[999,1284],[999,1328],[999,1370],[999,1415],[999,1465],[999,1510],[999,1551],[999,1593],[999,1637],[999,1680],[999,1724],[999,1767],[999,1810],[999,1853],[999,1897],[999,1944],[999,1984],[999,2032],[999,2075],[999,2117],[999,2161],[999,2205],[999,2243],[999,2281],[999,2318],[999,2354],[999,2399],[999,2444],[999,2493],[999,2534],[999,2576],[999,2620],[999,2662],[999,2709],[999,2746],[999,2789],[999,2832],[999,2875],[999,2919],[999,2965],[999,3007],[999,3049],[999,3092],[999,3137],[999,3181],[999,3221],[999,3266],[999,3310],[999,3359],[999,3400],[999,3443],[999,3486],[999,3529],[999,3572],[999,3615],[999,3659],[999,3703],[999,3742],[999,3786],[999,3828],[999,3871],[999,3915],[999,3964],[999,4004],[999,4049],[999,4094],[999,4144],[999,4187],[999,4231],[999,4271],[999,4317],[999,4360],[999,4401],[999,4445],[999,4490],[999,4531],[999,4567],[999,4611],[999,4656],[999,4699],[999,4745],[999,4789],[999,4832],[999,4875],[999,4914],[999,4954],[999,4997],[999,5041],[999,5086],[999,5137],[999,5180],[999,5223],[999,5271],[999,5312],[999,5361],[999,5406],[999,5449],[999,5495],[999,5538],[999,5582],[999,5625],[999,5664],[999,5702],[999,5739],[999,5776],[999,5814],[999,5851],[999,5894],[999,5937],[999,5981],[999,6024],[999,6072],[999,6113],[999,6161],[999,6210],[999,6262],[999,6312],[999,6363],[999,6411],[999,6462],[999,6512],[999,6562],[999,6613],[999,6662],[999,6712],[999,6763],[999,6812],[999,6863],[999,6912],[999,6964],[999,7012],[999,7062],[999,7113],[999,7162],[999,7212],[999,7262],[999,7312],[999,7363],[999,7412],[999,7464],[999,7512],[999,7562],[999,7613],[999,7663],[999,7714],[999,7763],[999,7813],[999,7863],[999,7912],[999,7964],[999,8014],[999,8064],[999,8113],[999,8163],[999,8214],[999,8264],[999,8314],[999,8363],[999,8413],[999,8464],[999,8514],[999,8563],[999,8613],[999,8663],[999,8714],[999,8764],[999,8814],[999,8863],[999,8914],[999,8964],[999,9014],[999,9064],[999,9113],[999,9150],[999,9197],[999,9247]]",1,0,486.095,491.41,61.57407407,4.461,"[{""rating"":61.57407407407407,""responseTime"":4.460999999999956}]",space,4.774,,491.41,All the time,100,491.417,,,[],,0,12,12,12,1,audio/Narrative8Situation3.wav,audio/Narrative7Situation3.wav,audio/Narrative6Situation3.wav,audio/Narrative5Situation3.wav,4,8,5,3,,,,,,,,,,,,,,,,,,,,,,,,,,,,,,,,,,,,,,,
,,,,,,65ad66e598dfe7e971227a1e,2024-02-08_15h03.51.431,group3.1-3.2-social-tom,2023.2.2,MacIntel,33.33333333,65c5074098b851296ff0b7ed,65c54185963a750c5bb343da,,,,,,,,,,,,,,,,,,,,,,,,,,,,,491.417,1,audio/Narrative7Situation4.wav,494.42,,494.42,506.149,"[[999,2],[999,49],[999,100],[999,150],[999,200],[999,249],[999,299],[999,332],[999,382],[999,433],[999,482],[999,532],[999,583],[999,633],[999,682],[999,733],[999,782],[999,833],[999,883],[999,933],[999,983],[999,1032],[999,1084],[999,1133],[999,1183],[999,1232],[999,1273],[999,1320],[999,1370],[999,1420],[999,1470],[999,1520],[999,1570],[999,1620],[999,1670],[999,1720],[999,1770],[999,1820],[999,1870],[999,1920],[999,1970],[999,2020],[999,2070],[999,2121],[999,2170],[999,2220],[999,2270],[999,2320],[999,2370],[999,2420],[999,2470],[999,2519],[999,2570],[999,2620],[999,2669],[999,2720],[999,2770],[999,2823],[999,2870],[999,2920],[999,2970],[999,3020],[999,3071],[999,3120],[999,3170],[999,3220],[999,3270],[999,3320],[999,3370],[999,3420],[999,3470],[999,3520],[999,3570],[999,3620],[999,3670],[999,3720],[999,3770],[999,3820],[999,3870],[999,3921],[999,3971],[999,4021],[999,4070],[999,4120],[999,4170],[999,4221],[999,4270],[999,4320],[999,4370],[999,4421],[999,4471],[999,4520],[999,4570],[999,4620],[999,4670],[999,4720],[999,4770],[999,4821],[999,4870],[999,4920],[999,4970],[999,5020],[999,5070],[999,5120],[999,5169],[999,5220],[999,5270],[999,5320],[999,5370],[999,5420],[999,5470],[999,5520],[999,5570],[999,5620],[999,5670],[999,5720],[999,5770],[999,5820],[999,5870],[999,5921],[999,5970],[999,6020],[999,6070],[999,6121],[999,6170],[999,6220],[999,6270],[999,6320],[999,6371],[999,6420],[999,6470],[999,6520],[999,6571],[999,6621],[999,6663],[999,6711],[999,6762],[999,6812],[999,6862],[999,6911],[999,6960],[999,7012],[999,7061],[999,7112],[999,7161],[999,7212],[999,7262],[999,7311],[999,7362],[999,7412],[999,7461],[999,7512],[999,7562],[999,7612],[999,7662],[999,7712],[999,7762],[999,7811],[999,7862],[999,7911],[999,7962],[999,8011],[999,8062],[999,8110],[999,8162],[999,8211],[999,8261],[999,8312],[999,8362],[999,8411],[999,8462],[999,8512],[999,8562],[999,8611],[999,8661],[999,8712],[999,8762],[999,8812],[999,8862],[999,8911],[999,8962],[999,9012],[999,9062],[999,9112],[999,9161],[999,9212],[999,9262],[999,9312],[999,9361],[999,9411],[999,9462],[999,9512],[999,9562],[999,9612],[999,9661],[999,9712],[999,9762],[999,9812],[999,9862],[999,9911],[999,9962],[999,10012],[999,10062],[999,10112],[999,10161],[999,10212],[999,10262],[999,10312],[999,10361],[999,10411],[999,10462],[999,10511],[999,10562],[999,10612],[999,10661],[999,10711],[999,10761],[999,10810],[999,10862],[999,10911],[999,10961],[999,11012],[999,11060],[999,11112],[999,11161],[999,11211],[999,11262],[999,11312],[999,11362],[999,11411],[999,11462],[999,11512],[999,11562],[999,11612],[999,11645],[999,11694]]",1,0,506.149,508.066,4.513888889,0.93,"[{""rating"":4.513888888888889,""responseTime"":0.9300000000000637}]",space,1.387,,508.066,Half the time,50,508.073,,,[],,0,13,13,13,1,audio/Narrative8Situation4.wav,audio/Narrative7Situation4.wav,audio/Narrative6Situation4.wav,audio/Narrative5Situation4.wav,3,3,2,1,,,,,,,,,,,,,,,,,,,,,,,,,,,,,,,,,,,,,,,
,,,,,,65ad66e598dfe7e971227a1e,2024-02-08_15h03.51.431,group3.1-3.2-social-tom,2023.2.2,MacIntel,33.33333333,65c5074098b851296ff0b7ed,65c54185963a750c5bb343da,,,,,,,,,,,,,,,,,,,,,,,,,,,,,508.073,1,audio/Narrative7Situation5.wav,513.082,,513.082,521.554,"[[999,1],[999,41],[999,88],[999,129],[999,174],[999,214],[999,261],[999,304],[999,334],[999,379],[999,424],[999,479],[999,517],[999,566],[999,610],[999,651],[999,697],[999,738],[999,785],[999,835],[999,885],[999,935],[999,985],[999,1034],[999,1085],[999,1135],[999,1185],[999,1235],[999,1285],[999,1335],[999,1386],[999,1436],[999,1486],[999,1536],[999,1586],[999,1635],[999,1686],[999,1735],[999,1786],[999,1836],[999,1886],[999,1936],[999,1986],[999,2036],[999,2086],[999,2136],[999,2186],[999,2236],[999,2287],[999,2338],[999,2386],[999,2436],[999,2486],[999,2536],[999,2586],[999,2636],[999,2688],[999,2736],[999,2787],[999,2829],[999,2878],[999,2921],[999,2970],[999,3017],[999,3062],[999,3108],[999,3152],[999,3199],[999,3249],[999,3293],[999,3337],[999,3384],[999,3431],[999,3479],[999,3521],[999,3567],[999,3614],[999,3659],[999,3699],[999,3747],[999,3790],[999,3838],[999,3883],[999,3932],[999,3975],[999,4016],[999,4063],[999,4105],[999,4149],[999,4198],[999,4245],[999,4290],[999,4335],[999,4382],[999,4427],[999,4469],[999,4515],[999,4558],[999,4605],[999,4655],[999,4696],[999,4740],[999,4788],[999,4833],[999,4879],[999,4922],[999,4965],[999,5012],[999,5056],[999,5098],[999,5145],[999,5187],[999,5229],[999,5277],[999,5328],[999,5378],[999,5427],[999,5477],[999,5528],[999,5576],[999,5628],[999,5677],[999,5728],[999,5778],[999,5826],[999,5877],[999,5927],[999,5978],[999,6027],[999,6078],[999,6128],[999,6179],[999,6229],[999,6278],[999,6328],[999,6379],[999,6427],[999,6478],[999,6530],[999,6579],[999,6628],[999,6679],[999,6729],[999,6778],[999,6828],[999,6879],[999,6927],[999,6979],[999,7028],[999,7079],[999,7129],[999,7179],[999,7229],[999,7278],[999,7322],[999,7366],[999,7409],[999,7454],[999,7497],[999,7542],[999,7583],[999,7629],[999,7672],[999,7713],[999,7758],[999,7801],[999,7841],[999,7887],[999,7933],[999,7973],[999,8016],[999,8062],[999,8105],[999,8147],[999,8187],[999,8234],[999,8275],[999,8317],[999,8360],[999,8385],[999,8423],[999,8471]]",1,0,521.554,523.998,25.69444444,1.669,"[{""rating"":25.694444444444443,""responseTime"":1.6689999999999827}]",space,1.918,,523.998,Half the time,50,524.004,,,[],,0,14,14,14,1,audio/Narrative8Situation5.wav,audio/Narrative7Situation5.wav,audio/Narrative6Situation5.wav,audio/Narrative5Situation5.wav,2,5,2,5,,,,,,,,,,,,,,,,,,,,,,,,,,,,,,,,,,,,,,,
,,,,,,65ad66e598dfe7e971227a1e,2024-02-08_15h03.51.431,group3.1-3.2-social-tom,2023.2.2,MacIntel,33.33333333,65c5074098b851296ff0b7ed,65c54185963a750c5bb343da,,,,,,,,,,,,,,,,,,,,,,,,,,,,,524.004,1,audio/Narrative7Situation6.wav,527.015,,527.015,536.988,"[[999,0],[999,41],[999,92],[999,136],[999,178],[999,221],[999,265],[999,309],[999,337],[999,382],[999,423],[999,468],[999,513],[999,558],[999,601],[999,644],[999,687],[999,729],[999,777],[999,819],[999,862],[999,904],[999,947],[999,991],[999,1033],[999,1082],[999,1127],[999,1177],[999,1219],[999,1263],[999,1305],[999,1348],[999,1392],[999,1436],[999,1474],[999,1512],[999,1549],[999,1587],[999,1625],[999,1671],[999,1715],[999,1755],[999,1800],[999,1845],[999,1888],[999,1936],[999,1978],[999,2021],[999,2066],[999,2106],[999,2154],[999,2194],[999,2239],[999,2283],[999,2326],[999,2375],[999,2415],[999,2458],[999,2500],[999,2544],[999,2589],[999,2633],[999,2673],[999,2718],[999,2761],[999,2803],[999,2841],[999,2879],[999,2916],[999,2952],[999,2997],[999,3042],[999,3088],[999,3133],[999,3175],[999,3218],[999,3263],[999,3308],[999,3350],[999,3393],[999,3442],[999,3486],[999,3529],[999,3572],[999,3615],[999,3659],[999,3702],[999,3740],[999,3778],[999,3816],[999,3853],[999,3891],[999,3930],[999,3966],[999,4016],[999,4060],[999,4101],[999,4149],[999,4189],[999,4229],[999,4278],[999,4322],[999,4366],[999,4406],[999,4454],[999,4496],[999,4541],[999,4587],[999,4636],[999,4683],[999,4733],[999,4782],[999,4833],[999,4876],[999,4920],[999,4971],[999,5020],[999,5071],[999,5121],[999,5170],[999,5221],[999,5272],[999,5318],[999,5361],[999,5409],[999,5453],[999,5495],[999,5533],[999,5580],[999,5629],[999,5669],[999,5718],[999,5760],[999,5805],[999,5850],[999,5893],[999,5936],[999,5981],[999,6024],[999,6068],[999,6111],[999,6150],[999,6193],[999,6237],[999,6280],[999,6322],[999,6368],[999,6412],[999,6455],[999,6504],[999,6545],[999,6589],[999,6628],[999,6672],[999,6714],[999,6757],[999,6801],[999,6845],[999,6883],[999,6930],[999,6973],[999,7018],[999,7062],[999,7104],[999,7141],[999,7179],[999,7216],[999,7259],[999,7303],[999,7348],[999,7393],[999,7437],[999,7478],[999,7524],[999,7566],[999,7607],[999,7645],[999,7683],[999,7720],[999,7765],[999,7809],[999,7855],[999,7899],[999,7943],[999,7983],[999,8020],[999,8058],[999,8095],[999,8132],[999,8170],[999,8208],[999,8247],[999,8293],[999,8342],[999,8384],[999,8427],[999,8472],[999,8515],[999,8558],[999,8608],[999,8649],[999,8692],[999,8735],[999,8780],[999,8823],[999,8866],[999,8906],[999,8951],[999,8995],[999,9038],[999,9086],[999,9129],[999,9180],[999,9229],[999,9280],[999,9330],[15.2,9380],[13,9428],[11.6,9480],[11.2,9530],[11.2,9577],[11.2,9620],[11.2,9664],[11.2,9706],[11.2,9750],[11.2,9792],[11.2,9831],[11.2,9867],[11.2,9910],[12.2,9958]]",1,0,536.989,540.391,16.2037037,2.266,"[{""rating"":16.203703703703702,""responseTime"":2.2659999999999627}]",space,2.862,,540.391,Not at all,0,540.397,,,[],,0,15,15,15,1,audio/Narrative8Situation6.wav,audio/Narrative7Situation6.wav,audio/Narrative6Situation6.wav,audio/Narrative5Situation6.wav,2,3,2,3,,,,,,,,,,,,,,,,,,,,,,,,,,,,,,,,,,,,,,,
,,,,,,65ad66e598dfe7e971227a1e,2024-02-08_15h03.51.431,group3.1-3.2-social-tom,2023.2.2,MacIntel,33.33333333,65c5074098b851296ff0b7ed,65c54185963a750c5bb343da,,,,,,,,,,,,,,,,,,,,,,,,,,,,,540.397,1,audio/Narrative7Situation7.wav,545.398,,545.398,562.555,"[[999,0],[999,50],[999,100],[999,149],[999,200],[999,250],[999,300],[999,334],[999,384],[999,432],[999,484],[999,533],[999,582],[999,633],[999,683],[999,733],[999,783],[999,834],[999,884],[999,933],[999,981],[999,1033],[999,1084],[999,1134],[999,1183],[999,1234],[999,1283],[999,1334],[999,1384],[999,1433],[999,1483],[999,1533],[999,1584],[999,1634],[999,1683],[999,1733],[999,1783],[999,1834],[999,1884],[999,1933],[999,1984],[999,2033],[999,2084],[999,2134],[999,2183],[999,2233],[999,2283],[999,2334],[999,2384],[999,2433],[999,2484],[999,2533],[999,2585],[999,2634],[999,2683],[999,2734],[999,2783],[999,2834],[999,2884],[999,2935],[999,2984],[999,3033],[999,3084],[999,3134],[999,3183],[999,3235],[999,3283],[999,3334],[999,3384],[999,3433],[999,3485],[999,3534],[999,3584],[999,3634],[999,3683],[999,3734],[999,3784],[999,3834],[999,3884],[999,3935],[999,3984],[999,4033],[999,4084],[999,4134],[999,4183],[999,4235],[999,4284],[999,4335],[999,4384],[999,4433],[999,4484],[999,4533],[999,4585],[999,4634],[999,4685],[999,4734],[999,4783],[999,4834],[999,4884],[999,4933],[999,4985],[999,5033],[999,5085],[999,5134],[999,5183],[999,5234],[999,5284],[999,5335],[999,5384],[999,5435],[999,5484],[999,5534],[999,5581],[999,5626],[999,5668],[999,5714],[999,5757],[999,5802],[999,5844],[999,5887],[999,5930],[999,5973],[999,6018],[999,6053],[999,6095],[999,6134],[999,6181],[999,6224],[999,6267],[999,6313],[999,6359],[999,6404],[999,6447],[999,6494],[999,6533],[999,6570],[999,6614],[999,6653],[999,6697],[999,6739],[999,6782],[999,6826],[999,6869],[999,6912],[999,6956],[999,7000],[999,7045],[999,7087],[999,7126],[999,7173],[999,7223],[999,7263],[999,7305],[999,7349],[999,7391],[999,7436],[999,7480],[999,7524],[999,7569],[999,7614],[999,7657],[999,7701],[999,7745],[999,7792],[999,7835],[999,7878],[999,7921],[999,7966],[999,8009],[999,8052],[999,8098],[999,8141],[999,8183],[999,8228],[999,8273],[999,8317],[999,8361],[999,8400],[999,8447],[999,8488],[999,8532],[999,8576],[999,8620],[999,8667],[999,8711],[999,8750],[999,8795],[999,8839],[999,8882],[999,8931],[999,8971],[999,9014],[999,9057],[999,9099],[999,9142],[999,9186],[999,9229],[999,9278],[999,9322],[999,9363],[999,9407],[999,9452],[999,9495],[999,9534],[999,9572],[999,9609],[999,9647],[999,9683],[999,9726],[999,9771],[999,9807],[999,9846],[999,9884],[999,9922],[999,9965],[999,10009],[999,10052],[999,10096],[999,10137],[999,10182],[999,10225],[999,10267],[999,10310],[999,10355],[999,10397],[999,10440],[999,10484],[999,10524],[999,10565],[999,10608],[999,10653],[999,10695],[999,10743],[999,10786],[999,10831],[999,10875],[999,10918],[999,10961],[999,11003],[999,11045],[999,11086],[999,11132],[999,11173],[999,11216],[999,11259],[999,11303],[999,11348],[999,11387],[999,11432],[999,11475],[999,11519],[999,11565],[999,11613],[999,11653],[999,11696],[999,11738],[999,11782],[999,11825],[999,11867],[999,11915],[999,11956],[999,12000],[999,12042],[999,12085],[999,12125],[999,12173],[999,12216],[999,12258],[999,12302],[999,12344],[999,12389],[999,12428],[999,12474],[999,12517],[999,12561],[999,12609],[999,12649],[999,12694],[999,12739],[999,12778],[999,12826],[999,12869],[999,12913],[999,12954],[999,12999],[999,13042],[999,13084],[999,13122],[999,13158],[999,13197],[999,13234],[999,13272],[999,13308],[999,13355],[999,13396],[999,13442],[999,13485],[999,13531],[999,13576],[999,13619],[999,13662],[999,13701],[999,13750],[999,13793],[999,13837],[999,13879],[999,13923],[999,13973],[999,14014],[999,14060],[999,14105],[999,14148],[999,14196],[999,14236],[999,14282],[999,14326],[999,14372],[999,14415],[999,14462],[999,14504],[999,14548],[999,14591],[999,14634],[999,14673],[999,14718],[999,14763],[999,14807],[999,14849],[999,14894],[999,14937],[999,14976],[999,15019],[999,15061],[999,15104],[999,15148],[999,15191],[999,15235],[999,15279],[999,15322],[999,15372],[999,15412],[999,15460],[999,15501],[999,15546],[999,15590],[999,15633],[999,15673],[999,15721],[999,15766],[999,15808],[999,15850],[999,15894],[999,15937],[999,15980],[999,16024],[999,16069],[999,16114],[999,16163],[999,16206],[999,16250],[999,16293],[999,16340],[999,16382],[999,16425],[999,16469],[999,16512],[999,16551],[999,16589],[999,16625],[999,16663],[999,16699],[999,16744],[999,16788],[999,16831],[999,16872],[999,16913],[999,16960],[999,17003],[999,17048],[999,17079],[999,17125]]",1,0,562.556,567.937,15.50925926,3.884,"[{""rating"":15.509259259259261,""responseTime"":3.8840000000000146}]",space,4.84,,567.937,Not at all,0,567.942,,,[],,0,16,16,16,1,audio/Narrative8Situation7.wav,audio/Narrative7Situation7.wav,audio/Narrative6Situation7.wav,audio/Narrative5Situation7.wav,3,5,5,4,,,,,,,,,,,,,,,,,,,,,,,,,,,,,,,,,,,,,,,
,,,,,,65ad66e598dfe7e971227a1e,2024-02-08_15h03.51.431,group3.1-3.2-social-tom,2023.2.2,MacIntel,33.33333333,65c5074098b851296ff0b7ed,65c54185963a750c5bb343da,,,,,,,,,,,,,,,,,,,,,,,,,,,,,567.943,1,audio/Narrative7Situation8.wav,569.945,,569.946,579.973,"[[999,0],[999,48],[999,99],[999,149],[999,199],[999,250],[999,298],[999,331],[999,383],[999,432],[999,481],[999,532],[999,582],[999,632],[999,682],[999,731],[999,782],[999,832],[999,882],[999,932],[999,983],[999,1032],[999,1081],[999,1133],[999,1177],[999,1221],[999,1262],[999,1307],[999,1350],[999,1396],[999,1437],[999,1485],[999,1528],[999,1574],[999,1615],[999,1663],[999,1703],[999,1753],[999,1796],[999,1841],[999,1883],[999,1932],[999,1976],[999,2024],[999,2067],[999,2113],[999,2161],[999,2203],[999,2247],[999,2288],[999,2326],[999,2370],[999,2416],[999,2455],[999,2500],[999,2545],[999,2593],[999,2637],[999,2678],[999,2721],[999,2759],[999,2802],[999,2848],[999,2888],[999,2931],[999,2976],[999,3015],[999,3063],[999,3110],[999,3153],[999,3196],[999,3239],[999,3283],[999,3326],[999,3373],[999,3416],[999,3457],[999,3495],[999,3539],[999,3578],[999,3622],[999,3666],[999,3709],[999,3750],[999,3795],[999,3839],[999,3882],[999,3920],[999,3968],[999,4014],[999,4057],[999,4099],[999,4143],[999,4182],[999,4221],[999,4269],[999,4312],[999,4355],[999,4402],[999,4442],[999,4494],[999,4534],[999,4576],[999,4625],[999,4671],[999,4711],[999,4753],[999,4796],[999,4840],[999,4882],[999,4926],[999,4969],[999,5014],[999,5052],[999,5099],[999,5139],[999,5183],[999,5227],[999,5269],[999,5307],[999,5345],[999,5382],[999,5420],[999,5461],[999,5504],[999,5548],[999,5595],[999,5640],[999,5685],[999,5727],[999,5778],[999,5821],[999,5872],[999,5913],[999,5956],[999,6000],[999,6051],[999,6096],[999,6146],[999,6195],[999,6245],[999,6289],[999,6334],[999,6377],[999,6423],[999,6468],[999,6510],[999,6558],[999,6608],[999,6653],[999,6701],[999,6747],[999,6793],[999,6839],[999,6882],[999,6930],[999,6976],[999,7022],[999,7067],[999,7110],[999,7161],[999,7206],[999,7245],[999,7293],[999,7336],[999,7384],[999,7427],[999,7470],[999,7514],[999,7557],[999,7601],[999,7646],[999,7688],[999,7730],[999,7774],[999,7817],[999,7855],[999,7904],[999,7951],[999,7992],[999,8028],[999,8067],[999,8104],[999,8147],[999,8192],[999,8235],[999,8283],[999,8331],[999,8373],[999,8418],[999,8460],[999,8503],[999,8547],[999,8593],[999,8639],[999,8687],[999,8730],[999,8773],[999,8815],[999,8856],[999,8901],[999,8942],[999,8988],[999,9034],[999,9078],[999,9124],[999,9167],[999,9216],[999,9265],[999,9317],[999,9367],[999,9417],[999,9466],[999,9518],[999,9567],[999,9618],[999,9664],[999,9710],[999,9750],[999,9792],[999,9843],[6,9893],[5.3,9926],[4.7,9976],[4.6,10026]]",1,0,579.973,585.325,17.12962963,4.548,"[{""rating"":8.333333333333332,""responseTime"":3.7110000000000127},{""rating"":17.129629629629626,""responseTime"":4.548000000000002}]",space,4.81,,585.325,Half the time,50,585.331,,,[],,0,17,17,17,1,audio/Narrative8Situation8.wav,audio/Narrative7Situation8.wav,audio/Narrative6Situation8.wav,audio/Narrative5Situation8.wav,3,2,5,3,,,,,,,,,,,,,,,,,,,,,,,,,,,,,,,,,,,,,,,
,,,,,,65ad66e598dfe7e971227a1e,2024-02-08_15h03.51.431,group3.1-3.2-social-tom,2023.2.2,MacIntel,33.33333333,65c5074098b851296ff0b7ed,65c54185963a750c5bb343da,,,,,,,,,,,,,,,,,,,,,,,,,,,,,585.332,1,audio/Narrative7Situation9.wav,587.337,,587.337,595.96,"[[999,0],[999,42],[999,86],[999,129],[999,172],[999,213],[999,255],[999,299],[999,331],[999,375],[999,421],[999,464],[999,512],[999,555],[999,599],[999,640],[999,688],[999,737],[999,788],[999,838],[999,888],[999,939],[999,988],[999,1038],[999,1088],[999,1138],[999,1188],[999,1239],[999,1288],[999,1339],[999,1389],[999,1439],[999,1489],[999,1539],[999,1589],[999,1639],[999,1689],[999,1739],[999,1789],[999,1839],[999,1889],[999,1939],[999,1990],[999,2040],[999,2089],[999,2140],[999,2190],[999,2240],[999,2290],[999,2340],[999,2389],[999,2440],[999,2490],[999,2539],[999,2590],[999,2640],[999,2690],[999,2740],[999,2791],[999,2840],[999,2890],[999,2940],[999,2990],[999,3040],[999,3089],[999,3140],[999,3190],[999,3240],[999,3291],[999,3340],[999,3390],[999,3440],[999,3491],[999,3541],[999,3590],[999,3640],[999,3691],[999,3740],[999,3790],[999,3840],[999,3890],[999,3941],[999,3991],[999,4040],[999,4090],[999,4140],[999,4191],[999,4241],[999,4290],[999,4341],[999,4390],[999,4441],[999,4491],[999,4540],[999,4590],[999,4640],[999,4690],[999,4741],[999,4790],[999,4840],[999,4890],[999,4941],[999,4990],[999,5040],[999,5091],[999,5140],[999,5190],[999,5242],[999,5291],[999,5341],[999,5391],[999,5441],[999,5490],[999,5541],[999,5591],[999,5641],[999,5690],[999,5737],[999,5779],[999,5825],[999,5868],[999,5912],[999,5955],[999,6000],[999,6042],[999,6087],[999,6129],[999,6175],[999,6213],[999,6257],[999,6303],[999,6347],[999,6389],[999,6426],[999,6473],[999,6517],[999,6555],[999,6599],[999,6644],[999,6689],[999,6733],[999,6776],[999,6819],[999,6865],[999,6903],[999,6947],[999,6993],[999,7038],[999,7084],[999,7126],[999,7169],[999,7212],[999,7254],[999,7293],[999,7339],[999,7382],[999,7425],[999,7462],[999,7500],[999,7537],[999,7574],[999,7612],[999,7651],[999,7697],[999,7742],[999,7788],[999,7833],[999,7876],[999,7922],[999,7965],[999,8010],[999,8054],[999,8094],[999,8142],[999,8192],[999,8242],[999,8289],[999,8333],[999,8376],[999,8421],[999,8470],[999,8519],[999,8554],[999,8604]]",1,0,595.96,597.635,80.09259259,0.789,"[{""rating"":80.0925925925926,""responseTime"":0.7889999999999873}]",space,1.152,,597.635,Half the time,50,608.305,49.76851852,8.448,"[{""rating"":49.76851851851852,""responseTime"":8.447999999999979}]",space,0,18,18,18,1,audio/Narrative8Situation9.wav,audio/Narrative7Situation9.wav,audio/Narrative6Situation9.wav,audio/Narrative5Situation9.wav,3,2,4,3,,,10.142,,,,,,,,,,,,,,,,,,,,,,,,,,,,,,,,,,,,
,,,,,,65ad66e598dfe7e971227a1e,2024-02-08_15h03.51.431,group3.1-3.2-social-tom,2023.2.2,MacIntel,33.33333333,65c5074098b851296ff0b7ed,65c54185963a750c5bb343da,,,,,,,,,,,,,,,,,,,,,,,,,,,610.947,613.519,613.526,2,audio/Narrative13Situation2.wav,613.526,,613.526,643.269,"[[49.9,29446],[50.1,29491],[51.3,29540],[53.1,29591],[54.6,29635],[57.4,29674],[63.7,29726]]",1,0,643.269,643.274,,,[],,,,643.274,Half the time,50,643.277,,,[],,0,0,0,0,1,audio/Narrative13Situation2.wav,audio/Narrative13Situation2.wav,audio/Narrative13Situation2.wav,audio/Narrative13Situation2.wav,2,2,2,2,,,,,608.307,610.946,space,2.131,,,,,,,,,,,,,,,,,,,,,,,,,,,,,,,
,,,,,,65ad66e598dfe7e971227a1e,2024-02-08_15h03.51.431,group3.1-3.2-social-tom,2023.2.2,MacIntel,33.33333333,65c5074098b851296ff0b7ed,65c54185963a750c5bb343da,,,,,,,,,,,,,,,,,,,,,,,,,,,,,643.278,2,audio/Narrative6Situation1.wav,645.293,,645.293,671.866,[],1,0,671.866,674.379,95.71759259,1.745,"[{""rating"":95.7175925925926,""responseTime"":1.7450000000000045}]",space,1.987,,674.38,Half the time,50,674.384,,,[],,0,1,1,1,1,audio/Narrative7Situation1.wav,audio/Narrative8Situation1.wav,audio/Narrative5Situation1.wav,audio/Narrative6Situation1.wav,2,5,5,2,,,,,,,,,,,,,,,,,,,,,,,,,,,,,,,,,,,,,,,
,,,,,,65ad66e598dfe7e971227a1e,2024-02-08_15h03.51.431,group3.1-3.2-social-tom,2023.2.2,MacIntel,33.33333333,65c5074098b851296ff0b7ed,65c54185963a750c5bb343da,,,,,,,,,,,,,,,,,,,,,,,,,,,,,674.385,2,audio/Narrative6Situation2.wav,677.387,,677.387,705.898,"[[95.8,27578],[100,27621],[100,28317],[100,28360],[97.6,28402],[96.3,28442],[95.6,28494]]",1,0,705.898,708.047,92.36111111,1.008,"[{""rating"":92.36111111111111,""responseTime"":1.0080000000000382}]",space,1.618,,708.047,All the time,100,716.387,99.65277778,6.17,"[{""rating"":99.65277777777779,""responseTime"":6.170000000000073}]",space,0,2,2,2,1,audio/Narrative7Situation2.wav,audio/Narrative8Situation2.wav,audio/Narrative5Situation2.wav,audio/Narrative6Situation2.wav,3,3,3,3,,,7.809,,,,,,,,,,,,,,,,,,,,,,,,,,,,,,,,,,,,
,,,,,,65ad66e598dfe7e971227a1e,2024-02-08_15h03.51.431,group3.1-3.2-social-tom,2023.2.2,MacIntel,33.33333333,65c5074098b851296ff0b7ed,65c54185963a750c5bb343da,,,,,,,,,,,,,,,,,,,,,,,,,,,,,716.387,2,audio/Narrative6Situation3.wav,721.39,,721.39,733.992,"[[999,1],[999,46],[999,94],[999,139],[999,181],[999,230],[999,271],[999,308],[999,349],[999,395],[999,440],[999,485],[999,528],[999,572],[999,616],[999,660],[999,700],[999,750],[999,791],[999,834],[999,878],[999,921],[999,966],[999,1011],[999,1054],[999,1099],[999,1142],[999,1186],[999,1226],[999,1269],[999,1312],[999,1355],[999,1400],[999,1445],[999,1488],[999,1531],[999,1572],[999,1610],[999,1649],[999,1684],[999,1728],[999,1771],[999,1815],[999,1864],[999,1905],[999,1949],[999,1993],[999,2036],[999,2085],[999,2126],[999,2170],[999,2214],[999,2256],[999,2293],[999,2331],[999,2367],[999,2405],[999,2443],[999,2479],[999,2524],[999,2568],[999,2611],[999,2660],[999,2700],[999,2748],[999,2791],[999,2834],[999,2878],[999,2927],[999,2967],[999,3012],[999,3055],[999,3097],[999,3140],[999,3185],[999,3226],[999,3264],[999,3308],[999,3353],[999,3399],[999,3442],[999,3484],[999,3525],[999,3568],[999,3611],[999,3654],[999,3699],[999,3739],[999,3784],[999,3828],[999,3870],[999,3915],[999,3960],[999,4005],[999,4046],[999,4090],[999,4140],[999,4190],[999,4236],[999,4282],[999,4330],[999,4375],[999,4417],[999,4460],[999,4503],[999,4546],[999,4591],[999,4634],[999,4676],[999,4721],[999,4763],[999,4805],[999,4844],[999,4889],[999,4933],[999,4978],[999,5019],[999,5058],[999,5100],[999,5147],[999,5192],[999,5238],[999,5282],[999,5323],[999,5367],[999,5411],[999,5457],[999,5501],[999,5541],[999,5590],[999,5640],[999,5687],[999,5736],[999,5785],[999,5837],[999,5886],[999,5937],[999,5986],[999,6037],[999,6087],[999,6137],[999,6186],[999,6237],[999,6288],[999,6337],[999,6388],[999,6438],[999,6487],[999,6538],[999,6588],[999,6637],[999,6687],[999,6738],[999,6788],[999,6838],[999,6888],[999,6938],[999,6988],[999,7040],[999,7090],[999,7141],[999,7181],[999,7230],[999,7282],[999,7331],[999,7380],[999,7429],[999,7480],[999,7531],[999,7580],[999,7629],[999,7680],[999,7728],[999,7769],[999,7815],[999,7860],[999,7907],[999,7952],[999,7995],[999,8035],[999,8084],[999,8128],[999,8173],[999,8219],[999,8261],[999,8305],[999,8351],[999,8397],[999,8436],[999,8483],[999,8528],[999,8568],[999,8615],[999,8659],[999,8706],[999,8748],[999,8793],[999,8836],[999,8880],[999,8923],[999,8968],[999,9006],[999,9050],[999,9094],[999,9138],[999,9181],[999,9223],[999,9267],[999,9313],[999,9356],[999,9400],[999,9442],[999,9488],[999,9531],[999,9575],[999,9620],[999,9659],[999,9706],[999,9751],[999,9795],[999,9836],[999,9875],[999,9911],[999,9951],[999,9996],[999,10036],[999,10078],[999,10125],[999,10170],[999,10210],[999,10254],[999,10293],[999,10337],[999,10381],[999,10425],[999,10474],[999,10513],[999,10562],[999,10606],[999,10650],[999,10692],[999,10735],[999,10777],[999,10814],[999,10862],[999,10906],[999,10949],[999,10993],[999,11038],[999,11081],[999,11122],[999,11167],[999,11210],[999,11252],[999,11289],[999,11327],[999,11364],[999,11409],[999,11453],[999,11500],[999,11543],[999,11587],[999,11632],[999,11679],[999,11722],[999,11767],[999,11806],[999,11853],[999,11899],[999,11942],[999,11990],[999,12029],[999,12074],[999,12117],[999,12159],[999,12206],[999,12250],[999,12293],[999,12336],[999,12382],[999,12424],[999,12468],[999,12498],[999,12541],[999,12587]]",1,0,733.992,736.689,59.02777778,1.857,"[{""rating"":59.02777777777778,""responseTime"":1.856999999999971}]",space,2.173,,736.689,Not at all,0,736.695,,,[],,0,3,3,3,1,audio/Narrative7Situation3.wav,audio/Narrative8Situation3.wav,audio/Narrative5Situation3.wav,audio/Narrative6Situation3.wav,8,4,3,5,,,,,,,,,,,,,,,,,,,,,,,,,,,,,,,,,,,,,,,
,,,,,,65ad66e598dfe7e971227a1e,2024-02-08_15h03.51.431,group3.1-3.2-social-tom,2023.2.2,MacIntel,33.33333333,65c5074098b851296ff0b7ed,65c54185963a750c5bb343da,,,,,,,,,,,,,,,,,,,,,,,,,,,,,736.695,2,audio/Narrative6Situation4.wav,738.702,,738.702,751.304,"[[999,0],[999,50],[999,95],[999,138],[999,181],[999,225],[999,265],[999,308],[999,335],[999,378],[999,422],[999,466],[999,506],[999,554],[999,596],[999,639],[999,684],[999,725],[999,774],[999,815],[999,857],[999,900],[999,944],[999,986],[999,1030],[999,1072],[999,1117],[999,1162],[999,1201],[999,1250],[999,1292],[999,1336],[999,1377],[999,1422],[999,1466],[999,1507],[999,1544],[999,1582],[999,1619],[999,1657],[999,1694],[999,1732],[999,1768],[999,1813],[999,1858],[999,1906],[999,1947],[999,1995],[999,2038],[999,2082],[999,2123],[999,2166],[999,2208],[999,2251],[999,2292],[999,2340],[999,2381],[999,2429],[999,2471],[999,2515],[999,2556],[999,2604],[999,2647],[999,2690],[999,2730],[999,2775],[999,2818],[999,2857],[999,2897],[999,2946],[999,2989],[999,3033],[999,3078],[999,3121],[999,3166],[999,3210],[999,3252],[999,3293],[999,3336],[999,3379],[999,3427],[999,3469],[999,3513],[999,3558],[999,3600],[999,3649],[999,3690],[999,3736],[999,3780],[999,3825],[999,3867],[999,3916],[999,3957],[999,3999],[999,4042],[999,4085],[999,4129],[999,4175],[999,4220],[999,4263],[999,4310],[999,4352],[999,4396],[999,4442],[999,4487],[999,4530],[999,4572],[999,4618],[999,4663],[999,4709],[999,4754],[999,4797],[999,4845],[999,4886],[999,4930],[999,4975],[999,5015],[999,5058],[999,5100],[999,5144],[999,5189],[999,5234],[999,5278],[999,5321],[999,5364],[999,5408],[999,5451],[999,5494],[999,5537],[999,5580],[999,5623],[999,5667],[999,5713],[999,5757],[999,5797],[999,5846],[999,5889],[999,5932],[999,5975],[999,6019],[999,6067],[999,6110],[999,6153],[999,6199],[999,6243],[999,6286],[999,6330],[999,6372],[999,6416],[999,6459],[999,6502],[999,6541],[999,6579],[999,6616],[999,6653],[999,6691],[999,6728],[999,6775],[999,6821],[999,6866],[999,6909],[999,6951],[999,7000],[999,7045],[999,7088],[999,7131],[999,7172],[999,7221],[999,7264],[999,7307],[999,7348],[999,7391],[999,7433],[999,7477],[999,7522],[999,7561],[999,7603],[999,7647],[999,7689],[999,7735],[999,7774],[999,7820],[999,7860],[999,7905],[999,7947],[999,7989],[999,8037],[999,8082],[999,8125],[999,8167],[999,8212],[999,8261],[999,8305],[999,8349],[999,8391],[999,8435],[999,8479],[999,8523],[999,8567],[999,8610],[999,8657],[999,8701],[999,8740],[999,8778],[999,8821],[999,8871],[999,8912],[999,8954],[999,9002],[999,9044],[999,9092],[999,9135],[999,9177],[999,9221],[999,9264],[999,9312],[999,9355],[999,9399],[999,9442],[999,9485],[999,9528],[999,9569],[999,9613],[999,9657],[999,9697],[999,9741],[999,9781],[999,9829],[999,9872],[999,9915],[999,9958],[999,10006],[999,10050],[999,10096],[999,10143],[999,10188],[999,10228],[999,10265],[999,10311],[999,10355],[999,10399],[999,10442],[999,10487],[999,10530],[999,10572],[999,10617],[999,10659],[999,10704],[999,10749],[999,10791],[999,10835],[999,10883],[999,10926],[999,10969],[999,11013],[999,11056],[999,11099],[999,11142],[999,11185],[999,11230],[999,11269],[999,11308],[999,11345],[999,11382],[999,11425],[999,11467],[999,11512],[999,11557],[999,11600],[999,11644],[999,11686],[999,11730],[999,11773],[999,11817],[999,11863],[999,11907],[999,11950],[999,11994],[999,12039],[999,12083],[999,12125],[999,12174],[999,12214],[999,12262],[999,12306],[999,12349],[999,12392],[999,12438],[999,12483],[999,12511],[999,12558],[999,12602]]",1,0,751.305,754.268,93.1712963,1.838,"[{""rating"":82.87037037037037,""responseTime"":1.3479999999999563},{""rating"":93.1712962962963,""responseTime"":1.8379999999999654}]",space,2.441,,754.269,Half the time,50,754.274,,,[],,0,4,4,4,1,audio/Narrative7Situation4.wav,audio/Narrative8Situation4.wav,audio/Narrative5Situation4.wav,audio/Narrative6Situation4.wav,3,3,1,2,,,,,,,,,,,,,,,,,,,,,,,,,,,,,,,,,,,,,,,
,,,,,,65ad66e598dfe7e971227a1e,2024-02-08_15h03.51.431,group3.1-3.2-social-tom,2023.2.2,MacIntel,33.33333333,65c5074098b851296ff0b7ed,65c54185963a750c5bb343da,,,,,,,,,,,,,,,,,,,,,,,,,,,,,754.274,2,audio/Narrative6Situation5.wav,756.287,,756.287,764.239,"[[999,0],[999,43],[999,90],[999,129],[999,173],[999,216],[999,259],[999,303],[999,331],[999,374],[999,418],[999,461],[999,507],[999,551],[999,595],[999,638],[999,682],[999,725],[999,769],[999,812],[999,855],[999,899],[999,942],[999,985],[999,1028],[999,1074],[999,1118],[999,1162],[999,1205],[999,1249],[999,1292],[999,1336],[999,1375],[999,1419],[999,1464],[999,1507],[999,1550],[999,1594],[999,1634],[999,1678],[999,1723],[999,1765],[999,1815],[999,1855],[999,1899],[999,1942],[999,1984],[999,2028],[999,2071],[999,2114],[999,2157],[999,2200],[999,2241],[999,2289],[999,2332],[999,2377],[999,2418],[999,2461],[999,2505],[999,2547],[999,2585],[999,2623],[999,2659],[999,2697],[999,2735],[999,2772],[999,2818],[999,2862],[999,2911],[999,2954],[999,2998],[999,3043],[999,3086],[999,3129],[999,3173],[999,3220],[999,3264],[999,3307],[999,3350],[999,3394],[999,3442],[999,3484],[999,3526],[999,3568],[999,3618],[999,3658],[999,3697],[999,3736],[999,3779],[999,3824],[999,3866],[999,3914],[999,3956],[999,3999],[999,4042],[999,4086],[999,4125],[999,4173],[999,4216],[999,4259],[999,4300],[999,4345],[999,4389],[999,4430],[999,4471],[999,4513],[999,4557],[999,4600],[999,4644],[999,4687],[999,4733],[999,4772],[999,4817],[999,4859],[999,4903],[999,4947],[999,4987],[999,5036],[999,5079],[999,5122],[999,5166],[999,5211],[999,5254],[999,5298],[999,5341],[999,5389],[999,5432],[999,5475],[999,5519],[999,5562],[999,5605],[999,5656],[999,5697],[999,5740],[999,5783],[999,5827],[999,5870],[999,5913],[999,5956],[999,6000],[999,6043],[999,6086],[999,6129],[999,6173],[999,6223],[999,6263],[999,6311],[999,6353],[999,6397],[999,6437],[999,6480],[999,6521],[999,6570],[999,6611],[999,6656],[999,6696],[999,6744],[999,6787],[999,6826],[999,6865],[999,6914],[999,6957],[999,7003],[999,7056],[999,7096],[999,7140],[999,7187],[999,7235],[999,7273],[999,7316],[999,7358],[999,7402],[999,7446],[999,7489],[999,7533],[999,7575],[999,7619],[999,7659],[999,7704],[999,7750],[999,7789],[999,7827],[999,7853],[999,7892],[999,7937]]",1,0,764.239,767.308,98.26388889,1.989,"[{""rating"":98.26388888888889,""responseTime"":1.9890000000000327}]",space,2.532,,767.308,Not at all,0,767.314,,,[],,0,5,5,5,1,audio/Narrative7Situation5.wav,audio/Narrative8Situation5.wav,audio/Narrative5Situation5.wav,audio/Narrative6Situation5.wav,5,2,5,2,,,,,,,,,,,,,,,,,,,,,,,,,,,,,,,,,,,,,,,
,,,,,,65ad66e598dfe7e971227a1e,2024-02-08_15h03.51.431,group3.1-3.2-social-tom,2023.2.2,MacIntel,33.33333333,65c5074098b851296ff0b7ed,65c54185963a750c5bb343da,,,,,,,,,,,,,,,,,,,,,,,,,,,,,767.314,2,audio/Narrative6Situation6.wav,769.33,,769.33,780.398,"[[999,0],[999,42],[999,87],[999,128],[999,173],[999,218],[999,263],[999,302],[999,334],[999,379],[999,423],[999,465],[999,509],[999,552],[999,596],[999,640],[999,686],[999,730],[999,769],[999,815],[999,858],[999,902],[999,946],[999,990],[999,1033],[999,1076],[999,1120],[999,1164],[999,1210],[999,1250],[999,1292],[999,1336],[999,1382],[999,1424],[999,1468],[999,1514],[999,1552],[999,1601],[999,1644],[999,1687],[999,1730],[999,1774],[999,1812],[999,1850],[999,1887],[999,1924],[999,1962],[999,2000],[999,2046],[999,2095],[999,2137],[999,2178],[999,2221],[999,2264],[999,2310],[999,2349],[999,2397],[999,2438],[999,2483],[999,2524],[999,2568],[999,2610],[999,2657],[999,2697],[999,2744],[999,2788],[999,2827],[999,2875],[999,2918],[999,2961],[999,3003],[999,3052],[999,3093],[999,3137],[999,3177],[999,3225],[999,3268],[999,3312],[999,3355],[999,3398],[999,3442],[999,3488],[999,3531],[999,3573],[999,3619],[999,3657],[999,3705],[999,3749],[999,3792],[999,3835],[999,3875],[999,3918],[999,3961],[999,4005],[999,4048],[999,4090],[999,4134],[999,4180],[999,4222],[999,4264],[999,4306],[999,4355],[999,4394],[999,4442],[999,4485],[999,4529],[999,4572],[999,4618],[999,4661],[999,4704],[999,4741],[999,4779],[999,4817],[999,4864],[999,4904],[999,4942],[999,4980],[999,5015],[999,5055],[999,5091],[999,5132],[999,5177],[999,5221],[999,5264],[999,5307],[999,5351],[999,5390],[999,5438],[999,5481],[999,5524],[999,5568],[999,5611],[999,5656],[999,5704],[999,5745],[999,5788],[999,5831],[999,5874],[999,5918],[999,5959],[999,5996],[999,6033],[999,6071],[999,6109],[999,6145],[999,6183],[999,6221],[999,6258],[999,6296],[999,6332],[999,6370],[999,6417],[999,6462],[999,6503],[999,6551],[999,6592],[999,6638],[999,6677],[999,6721],[999,6763],[999,6807],[999,6849],[999,6893],[999,6940],[999,6980],[999,7025],[999,7075],[999,7116],[999,7158],[999,7201],[999,7245],[999,7293],[999,7336],[999,7379],[999,7428],[999,7470],[999,7518],[999,7560],[999,7605],[999,7644],[999,7688],[999,7733],[999,7775],[999,7819],[999,7865],[999,7909],[999,7955],[999,7998],[999,8041],[999,8084],[999,8125],[999,8173],[999,8216],[999,8259],[999,8302],[999,8345],[999,8389],[999,8428],[999,8465],[999,8514],[999,8557],[999,8596],[999,8634],[999,8671],[999,8717],[999,8760],[999,8805],[999,8850],[999,8893],[999,8941],[999,8983],[999,9031],[999,9072],[999,9115],[999,9158],[999,9202],[999,9245],[999,9288],[999,9331],[999,9373],[999,9421],[999,9461],[999,9509],[999,9552],[999,9596],[999,9642],[999,9685],[999,9728],[999,9770],[999,9813],[999,9856],[999,9904],[999,9954],[999,9995],[999,10038],[999,10081],[999,10124],[999,10169],[999,10214],[999,10263],[999,10302],[999,10351],[999,10394],[999,10437],[999,10481],[999,10527],[999,10572],[999,10616],[999,10659],[999,10709],[999,10750],[999,10794],[999,10837],[999,10880],[999,10930],[999,10961],[999,11000],[999,11052]]",1,0,780.398,784.73,74.88425926,2.697,"[{""rating"":74.88425925925925,""responseTime"":2.6970000000000027}]",space,3.805,,784.73,Half the time,50,784.738,,,[],,0,6,6,6,1,audio/Narrative7Situation6.wav,audio/Narrative8Situation6.wav,audio/Narrative5Situation6.wav,audio/Narrative6Situation6.wav,3,2,3,2,,,,,,,,,,,,,,,,,,,,,,,,,,,,,,,,,,,,,,,
,,,,,,65ad66e598dfe7e971227a1e,2024-02-08_15h03.51.431,group3.1-3.2-social-tom,2023.2.2,MacIntel,33.33333333,65c5074098b851296ff0b7ed,65c54185963a750c5bb343da,,,,,,,,,,,,,,,,,,,,,,,,,,,,,784.739,2,audio/Narrative6Situation7.wav,789.753,,789.753,814.607,"[[75.1,24788],[66.3,24836]]",1,0,814.607,818.548,46.2962963,2.771,"[{""rating"":46.2962962962963,""responseTime"":2.770999999999958}]",space,3.408,,818.548,All the time,100,818.556,,,[],,0,7,7,7,1,audio/Narrative7Situation7.wav,audio/Narrative8Situation7.wav,audio/Narrative5Situation7.wav,audio/Narrative6Situation7.wav,5,3,4,5,,,,,,,,,,,,,,,,,,,,,,,,,,,,,,,,,,,,,,,
,,,,,,65ad66e598dfe7e971227a1e,2024-02-08_15h03.51.431,group3.1-3.2-social-tom,2023.2.2,MacIntel,33.33333333,65c5074098b851296ff0b7ed,65c54185963a750c5bb343da,,,,,,,,,,,,,,,,,,,,,,,,,,,,,818.556,2,audio/Narrative6Situation8.wav,823.558,,823.559,830.402,"[[999,0],[999,38],[999,84],[999,125],[999,173],[999,214],[999,259],[999,304],[999,332],[999,380],[999,425],[999,466],[999,504],[999,552],[999,593],[999,636],[999,680],[999,723],[999,765],[999,810],[999,853],[999,899],[999,940],[999,985],[999,1031],[999,1079],[999,1120],[999,1163],[999,1206],[999,1254],[999,1295],[999,1340],[999,1379],[999,1427],[999,1469],[999,1512],[999,1557],[999,1600],[999,1641],[999,1685],[999,1728],[999,1771],[999,1814],[999,1857],[999,1903],[999,1947],[999,1990],[999,2039],[999,2081],[999,2127],[999,2171],[999,2214],[999,2262],[999,2303],[999,2341],[999,2379],[999,2418],[999,2454],[999,2492],[999,2529],[999,2567],[999,2612],[999,2653],[999,2697],[999,2739],[999,2781],[999,2826],[999,2866],[999,2910],[999,2956],[999,2999],[999,3044],[999,3087],[999,3132],[999,3171],[999,3213],[999,3256],[999,3304],[999,3346],[999,3390],[999,3434],[999,3475],[999,3517],[999,3560],[999,3605],[999,3649],[999,3693],[999,3732],[999,3781],[999,3824],[999,3867],[999,3910],[999,3954],[999,3995],[999,4040],[999,4083],[999,4125],[999,4168],[999,4211],[999,4254],[999,4298],[999,4342],[999,4382],[999,4432],[999,4475],[999,4519],[999,4562],[999,4610],[999,4653],[999,4697],[999,4737],[999,4783],[999,4826],[999,4870],[999,4913],[999,4956],[999,5005],[999,5046],[999,5090],[999,5134],[999,5175],[999,5213],[999,5251],[999,5288],[999,5326],[999,5363],[999,5400],[999,5440],[999,5483],[999,5525],[999,5576],[999,5615],[999,5663],[999,5706],[999,5751],[999,5793],[999,5841],[999,5881],[999,5924],[999,5968],[999,6011],[999,6059],[999,6102],[999,6146],[999,6192],[999,6235],[999,6278],[999,6322],[999,6367],[999,6409],[999,6453],[999,6496],[999,6539],[999,6587],[999,6629],[999,6673],[999,6716],[999,6747],[999,6795],[999,6842]]",1,0,830.402,833.221,97.68518519,1.806,"[{""rating"":97.68518518518519,""responseTime"":1.80600000000004}]",space,2.289,,833.221,Not at all,0,833.228,,,[],,0,8,8,8,1,audio/Narrative7Situation8.wav,audio/Narrative8Situation8.wav,audio/Narrative5Situation8.wav,audio/Narrative6Situation8.wav,2,3,3,5,,,,,,,,,,,,,,,,,,,,,,,,,,,,,,,,,,,,,,,
,,,,,,65ad66e598dfe7e971227a1e,2024-02-08_15h03.51.431,group3.1-3.2-social-tom,2023.2.2,MacIntel,33.33333333,65c5074098b851296ff0b7ed,65c54185963a750c5bb343da,,,,,,,,,,,,,,,,,,,,,,,,,,,,,833.228,2,audio/Narrative6Situation9.wav,837.233,,837.233,847.178,"[[999,0],[999,49],[999,93],[999,138],[999,181],[999,218],[999,256],[999,293],[999,318],[999,357],[999,402],[999,444],[999,489],[999,537],[999,580],[999,624],[999,670],[999,712],[999,758],[999,798],[999,836],[999,885],[999,929],[999,974],[999,1019],[999,1062],[999,1105],[999,1148],[999,1189],[999,1239],[999,1280],[999,1325],[999,1364],[999,1412],[999,1455],[999,1497],[999,1541],[999,1583],[999,1629],[999,1677],[999,1718],[999,1763],[999,1806],[999,1846],[999,1891],[999,1939],[999,1980],[999,2024],[999,2069],[999,2110],[999,2153],[999,2203],[999,2246],[999,2290],[999,2336],[999,2379],[999,2423],[999,2465],[999,2508],[999,2551],[999,2596],[999,2638],[999,2687],[999,2730],[999,2774],[999,2814],[999,2859],[999,2902],[999,2943],[999,2987],[999,3033],[999,3078],[999,3122],[999,3163],[999,3206],[999,3247],[999,3285],[999,3331],[999,3372],[999,3416],[999,3461],[999,3506],[999,3549],[999,3592],[999,3635],[999,3678],[999,3721],[999,3766],[999,3806],[999,3847],[999,3890],[999,3933],[999,3979],[999,4024],[999,4063],[999,4110],[999,4152],[999,4192],[999,4240],[999,4283],[999,4322],[999,4362],[999,4412],[999,4455],[999,4499],[999,4538],[999,4583],[999,4626],[999,4668],[999,4706],[999,4744],[999,4782],[999,4818],[999,4859],[999,4905],[999,4947],[999,4990],[999,5039],[999,5080],[999,5128],[999,5170],[999,5213],[999,5256],[999,5304],[999,5346],[999,5390],[999,5432],[999,5480],[999,5521],[999,5567],[999,5605],[999,5653],[999,5696],[999,5739],[999,5783],[999,5826],[999,5871],[999,5914],[999,5957],[999,6006],[999,6047],[999,6090],[999,6133],[999,6181],[999,6221],[999,6266],[999,6312],[999,6356],[999,6399],[999,6447],[999,6489],[999,6533],[999,6577],[999,6617],[999,6660],[999,6703],[999,6746],[999,6791],[999,6836],[999,6881],[999,6924],[999,6967],[999,7013],[999,7052],[999,7099],[999,7141],[999,7181],[999,7221],[999,7269],[999,7312],[999,7357],[999,7403],[999,7446],[999,7487],[999,7533],[999,7582],[999,7625],[999,7668],[999,7712],[999,7755],[999,7794],[999,7831],[999,7870],[999,7907],[999,7944],[999,7980],[999,8024],[999,8067],[999,8110],[999,8153],[999,8196],[999,8240],[999,8285],[999,8328],[999,8371],[999,8409],[999,8450],[999,8485],[999,8530],[999,8572],[999,8611],[999,8654],[999,8700],[999,8739],[999,8778],[999,8819],[999,8865],[999,8908],[999,8956],[999,8996],[999,9044],[999,9087],[999,9133],[999,9177],[999,9221],[999,9263],[999,9312],[999,9360],[999,9412],[85.5,9461],[90.7,9510],[93.4,9562],[95.5,9610],[96.6,9663],[96.9,9711],[96.9,9760],[96.9,9804],[96.8,9833],[96.6,9883],[96.5,9929]]",1,0,847.178,850.357,95.37037037,1.967,"[{""rating"":95.37037037037037,""responseTime"":1.9669999999999845}]",space,2.64,,850.357,All the time,100,850.364,,,[],,0,9,9,9,1,audio/Narrative7Situation9.wav,audio/Narrative8Situation9.wav,audio/Narrative5Situation9.wav,audio/Narrative6Situation9.wav,2,3,3,4,,,,,,,,,,,,,,,,,,,,,,,,,,,,,,,,,,,,,,,
,,,,,,65ad66e598dfe7e971227a1e,2024-02-08_15h03.51.431,group3.1-3.2-social-tom,2023.2.2,MacIntel,33.33333333,65c5074098b851296ff0b7ed,65c54185963a750c5bb343da,,,,,,,,,,,,,,,,,,,,,,,,,,,,,850.364,2,audio/Narrative5Situation1.wav,855.371,,855.371,868.647,"[[999,1],[999,43],[999,88],[999,129],[999,177],[999,221],[999,264],[999,307],[999,334],[999,379],[999,421],[999,459],[999,502],[999,545],[999,588],[999,632],[999,674],[999,716],[999,764],[999,804],[999,847],[999,889],[999,933],[999,978],[999,1024],[999,1069],[999,1115],[999,1157],[999,1200],[999,1245],[999,1289],[999,1332],[999,1375],[999,1418],[999,1458],[999,1506],[999,1549],[999,1592],[999,1636],[999,1679],[999,1722],[999,1765],[999,1808],[999,1853],[999,1892],[999,1934],[999,1978],[999,2020],[999,2063],[999,2107],[999,2150],[999,2198],[999,2241],[999,2280],[999,2320],[999,2368],[999,2413],[999,2455],[999,2500],[999,2544],[999,2589],[999,2632],[999,2675],[999,2721],[999,2770],[999,2812],[999,2855],[999,2899],[999,2945],[999,2990],[999,3035],[999,3078],[999,3121],[999,3165],[999,3212],[999,3255],[999,3294],[999,3336],[999,3381],[999,3424],[999,3467],[999,3512],[999,3551],[999,3597],[999,3639],[999,3681],[999,3724],[999,3766],[999,3812],[999,3857],[999,3902],[999,3945],[999,3987],[999,4033],[999,4077],[999,4118],[999,4163],[999,4205],[999,4246],[999,4290],[999,4333],[999,4377],[999,4418],[999,4461],[999,4505],[999,4546],[999,4586],[999,4623],[999,4660],[999,4697],[999,4740],[999,4786],[999,4828],[999,4871],[999,4915],[999,4958],[999,5000],[999,5048],[999,5088],[999,5133],[999,5176],[999,5218],[999,5255],[999,5299],[999,5348],[999,5391],[999,5435],[999,5476],[999,5520],[999,5565],[999,5612],[999,5655],[999,5699],[999,5750],[999,5791],[999,5836],[999,5880],[999,5923],[999,5961],[999,6005],[999,6049],[999,6092],[999,6131],[999,6168],[999,6206],[999,6243],[999,6281],[999,6318],[999,6365],[999,6410],[999,6457],[999,6501],[999,6545],[999,6593],[999,6634],[999,6678],[999,6722],[999,6764],[999,6806],[999,6846],[999,6891],[999,6934],[999,6978],[999,7021],[999,7069],[999,7111],[999,7155],[999,7199],[999,7242],[999,7284],[999,7328],[999,7372],[999,7416],[999,7461],[999,7500],[999,7545],[999,7589],[999,7629],[999,7677],[999,7721],[999,7764],[999,7807],[999,7853],[999,7895],[999,7938],[999,7983],[999,8025],[999,8068],[999,8112],[999,8158],[999,8202],[999,8240],[999,8277],[999,8314],[999,8352],[999,8389],[999,8427],[999,8464],[999,8510],[999,8556],[999,8606],[999,8646],[999,8694],[999,8737],[999,8779],[999,8823],[999,8866],[999,8910],[999,8952],[999,8995],[999,9038],[999,9080],[999,9123],[999,9163],[999,9208],[999,9251],[999,9291],[999,9341],[999,9383],[999,9426],[999,9469],[999,9514],[999,9556],[999,9598],[999,9641],[999,9680],[999,9718],[999,9755],[999,9793],[999,9832],[999,9875],[999,9919],[999,9967],[999,10008],[999,10053],[999,10096],[999,10144],[999,10187],[999,10231],[999,10276],[999,10319],[999,10363],[999,10409],[999,10447],[999,10495],[999,10538],[999,10577],[999,10616],[999,10660],[999,10703],[999,10752],[999,10793],[999,10837],[999,10882],[999,10927],[999,10968],[999,11010],[999,11051],[999,11088],[999,11134],[999,11178],[999,11221],[999,11264],[999,11307],[999,11353],[999,11392],[999,11440],[999,11482],[999,11527],[999,11567],[999,11612],[999,11656],[999,11697],[999,11735],[999,11772],[999,11810],[999,11847],[999,11885],[999,11923],[999,11969],[999,12012],[999,12060],[999,12103],[999,12149],[999,12193],[999,12236],[999,12278],[999,12322],[999,12365],[999,12411],[999,12455],[999,12498],[999,12548],[999,12587],[999,12632],[999,12678],[999,12721],[999,12769],[999,12812],[999,12856],[999,12896],[999,12942],[999,12985],[999,13027],[999,13072],[999,13112],[999,13160],[999,13187],[999,13232],[999,13275]]",1,0,868.647,872.328,55.90277778,2.689,"[{""rating"":38.31018518518518,""responseTime"":1.6280000000000427},{""rating"":55.90277777777778,""responseTime"":2.689000000000078}]",space,3.149,,872.328,Half the time,50,872.335,,,[],,0,10,10,10,1,audio/Narrative8Situation1.wav,audio/Narrative7Situation1.wav,audio/Narrative6Situation1.wav,audio/Narrative5Situation1.wav,5,2,2,5,,,,,,,,,,,,,,,,,,,,,,,,,,,,,,,,,,,,,,,
