exp_question,consent.started,consent.stopped,consentResponse.keys,consentResponse.rt,consentResponse.duration,participantID,date,expName,psychopyVersion,OS,frameRate,STUDY_ID,SESSION_ID,opening1.started,opening1.stopped,keyEndingOpening1.keys,keyEndingOpening1.rt,keyEndingOpening1.duration,volumeAdjust.started,volumeAdjust.stopped,endingAdjust.keys,endingAdjust.rt,endingAdjust.duration,opening2.started,opening2.stopped,keyEndingOpening.keys,keyEndingOpening.rt,keyEndingOpening.duration,mouse.x,mouse.y,mouse.leftButton,mouse.midButton,mouse.rightButton,mouse.time,instructionLoop.thisRepN,instructionLoop.thisTrialN,instructionLoop.thisN,instructionLoop.thisIndex,instructionLoop.ran,readyForAudio.started,readyForAudio.stopped,fixation.started,run,audio_played,fixation.stopped,endPractice.keys,audioPre.started,audioPre.stopped,continuousResponses_audio,continuousSlider.response,continuousSlider.rt,intRating.started,intRating.stopped,intQuestionSlider.response,intQuestionSlider.rt,intQuestionSlider.history,confirmResponse.keys,confirmResponse.rt,confirmResponse.duration,catchQuestion.started,catch_label,catch_value,catchQuestion.stopped,catchQuestionSlider.response,catchQuestionSlider.rt,catchQuestionSlider.history,confirmResponse_2.keys,audioRunLoop.thisRepN,audioRunLoop.thisTrialN,audioRunLoop.thisN,audioRunLoop.thisIndex,audioRunLoop.ran,conditions1_1,conditions2_1,conditions1_2,conditions2_2,dur1_1,dur2_1,dur1_2,dur2_2,endPractice.rt,endPractice.duration,confirmResponse_2.rt,confirmResponse_2.duration,runIntervalBreak.started,runIntervalBreak.stopped,endingBreakKey.keys,endingBreakKey.rt,endingBreakKey.duration,connection.started,connection.stopped,connectionEnding.keys,connectionEnding.rt,connectionEnding.duration,readyForText.started,readyForText.stopped,textPre.started,run_dup,textPre.stopped,continuousResponses_text,textRunLoop.thisRepN,textRunLoop.thisTrialN,textRunLoop.thisN,textRunLoop.thisIndex,textRunLoop.ran,text1_1,text1_2,text2_1,text2_2,runBreakText.started,runBreakText.stopped,endingBreakKey_2.keys,endingBreakKey_2.rt,endingBreakKey_2.duration,ending.started,ending.stopped,endingEnding.keys,endingEnding.rt,endingEnding.duration
tom,0.0003,7.3979,y,7.0762,,65c14559b08873161332b3a4,2024-02-08_16h03.39.485,group3.1-3.2-social-tom,2023.2.2,MacIntel,59.52380952,65c5074098b851296ff0b7ed,65c54153c9284a8448373432,,,,,,,,,,,,,,,,,,,,,,,,,,,,,,,,,,,,,,,,,,,,,,,,,,,,,,,,,,,,,,,,,,,,,,,,,,,,,,,,,,,,,,,,,,,,,,,,,,,,,,,,,,
,,,,,,65c14559b08873161332b3a4,2024-02-08_16h03.39.485,group3.1-3.2-social-tom,2023.2.2,MacIntel,59.52380952,65c5074098b851296ff0b7ed,65c54153c9284a8448373432,7.398,12.2401,space,4.8353,,,,,,,,,,,,,,,,,,,,,,,,,,,,,,,,,,,,,,,,,,,,,,,,,,,,,,,,,,,,,,,,,,,,,,,,,,,,,,,,,,,,,,,,,,,,,,,,,,,,,,
,,,,,,65c14559b08873161332b3a4,2024-02-08_16h03.39.485,group3.1-3.2-social-tom,2023.2.2,MacIntel,59.52380952,65c5074098b851296ff0b7ed,65c54153c9284a8448373432,,,,,,12.2402,22.0007,space,9.4392,,,,,,,,,,,,,,,,,,,,,,,,,,,,,,,,,,,,,,,,,,,,,,,,,,,,,,,,,,,,,,,,,,,,,,,,,,,,,,,,,,,,,,,,,,,,,,,,,
,,,,,,65c14559b08873161332b3a4,2024-02-08_16h03.39.485,group3.1-3.2-social-tom,2023.2.2,MacIntel,59.52380952,65c5074098b851296ff0b7ed,65c54153c9284a8448373432,,,,,,,,,,,22.0161,24.8498,space,2.8153,,[],[],[],[],[],[],0,0,0,0,1,,,,,,,,,,,,,,,,,,,,,,,,,,,,,,,,,,,,,,,,,,,,,,,,,,,,,,,,,,,,,,,,,,,,,,,,,,,,,,,,
,,,,,,65c14559b08873161332b3a4,2024-02-08_16h03.39.485,group3.1-3.2-social-tom,2023.2.2,MacIntel,59.52380952,65c5074098b851296ff0b7ed,65c54153c9284a8448373432,,,,,,,,,,,24.8596,44.7992,space,19.88,,[],[],[],[],[],[],1,0,1,0,1,,,,,,,,,,,,,,,,,,,,,,,,,,,,,,,,,,,,,,,,,,,,,,,,,,,,,,,,,,,,,,,,,,,,,,,,,,,,,,,,
,,,,,,65c14559b08873161332b3a4,2024-02-08_16h03.39.485,group3.1-3.2-social-tom,2023.2.2,MacIntel,59.52380952,65c5074098b851296ff0b7ed,65c54153c9284a8448373432,,,,,,,,,,,44.8099,47.2824,space,2.4509,,[],[],[],[],[],[],2,0,2,0,1,,,,,,,,,,,,,,,,,,,,,,,,,,,,,,,,,,,,,,,,,,,,,,,,,,,,,,,,,,,,,,,,,,,,,,,,,,,,,,,,
,,,,,,65c14559b08873161332b3a4,2024-02-08_16h03.39.485,group3.1-3.2-social-tom,2023.2.2,MacIntel,59.52380952,65c5074098b851296ff0b7ed,65c54153c9284a8448373432,,,,,,,,,,,47.2828,70.05,space,22.7481,,[],[],[],[],[],[],3,0,3,0,1,,,,,,,,,,,,,,,,,,,,,,,,,,,,,,,,,,,,,,,,,,,,,,,,,,,,,,,,,,,,,,,,,,,,,,,,,,,,,,,,
,,,,,,65c14559b08873161332b3a4,2024-02-08_16h03.39.485,group3.1-3.2-social-tom,2023.2.2,MacIntel,59.52380952,65c5074098b851296ff0b7ed,65c54153c9284a8448373432,,,,,,,,,,,70.0625,79.2658,space,9.184,,[],[],[],[],[],[],4,0,4,0,1,,,,,,,,,,,,,,,,,,,,,,,,,,,,,,,,,,,,,,,,,,,,,,,,,,,,,,,,,,,,,,,,,,,,,,,,,,,,,,,,
,,,,,,65c14559b08873161332b3a4,2024-02-08_16h03.39.485,group3.1-3.2-social-tom,2023.2.2,MacIntel,59.52380952,65c5074098b851296ff0b7ed,65c54153c9284a8448373432,,,,,,,,,,,,,,,,,,,,,,,,,,,79.2813,81.8665,81.8895,1,audio/Narrative13Situation2.wav,83.8999,,83.9001,113.6508,"[[999,1],[999,82],[999,165],[999,248],[999,334],[999,415],[999,498],[999,582],[999,666],[999,748],[999,832],[999,915],[999,999],[999,1082],[999,1165],[999,1248],[999,1332],[999,1415],[999,1499],[999,1582],[999,1665],[999,1748],[999,1831],[999,1915],[999,1999],[999,2082],[999,2166],[999,2249],[999,2332],[999,2415],[999,2498],[999,2582],[999,2665],[999,2749],[999,2832],[999,2916],[999,2999],[999,3082],[999,3165],[999,3248],[999,3331],[999,3416],[999,3499],[999,3582],[999,3666],[999,3749],[999,3832],[999,3915],[999,3999],[999,4082],[999,4166],[999,4249],[999,4331],[999,4416],[999,4499],[999,4582],[999,4666],[999,4749],[999,4831],[999,4916],[999,4998],[999,5081],[999,5166],[999,5248],[999,5333],[999,5416],[999,5499],[999,5582],[999,5666],[999,5748],[999,5832],[999,5916],[999,5999],[999,6082],[999,6166],[999,6250],[999,6332],[999,6416],[999,6499],[999,6583],[999,6665],[999,6748],[999,6833],[999,6916],[999,7000],[999,7083],[999,7165],[999,7249],[999,7332],[999,7416],[999,7498],[999,7581],[999,7666],[999,7749],[999,7833],[999,7916],[999,7999],[999,8083],[999,8165],[999,8250],[999,8333],[999,8416],[999,8498],[999,8582],[999,8666],[999,8749],[999,8836],[999,8916],[999,8998],[999,9083],[999,9166],[999,9248],[999,9332],[999,9416],[999,9500],[999,9583],[999,9665],[999,9750],[999,9832],[999,9916],[999,9999],[999,10083],[999,10166],[999,10248],[999,10333],[999,10416],[999,10498],[999,10582],[999,10665],[999,10748],[999,10832],[999,10916],[999,10999],[999,11082],[999,11165],[999,11249],[999,11333],[999,11416],[999,11498],[999,11582],[999,11666],[999,11748],[999,11831],[999,11916],[999,11999],[999,12082],[999,12165],[999,12249],[999,12333],[999,12416],[999,12499],[999,12583],[999,12666],[999,12748],[999,12833],[999,12916],[999,12998],[999,13082],[999,13166],[999,13249],[999,13333],[999,13416],[999,13499],[999,13583],[999,13665],[999,13749],[999,13832],[999,13915],[999,13999],[999,14082],[999,14166],[999,14249],[999,14333],[999,14416],[999,14499],[999,14583],[999,14665],[999,14749],[999,14832],[999,14916],[999,14999],[999,15083],[999,15166],[999,15249],[999,15333],[999,15415],[999,15498],[999,15582],[999,15666],[999,15749],[999,15833],[999,15916],[999,15999],[999,16082],[999,16166],[999,16249],[999,16333],[999,16415],[999,16499],[999,16583],[999,16666],[999,16749],[999,16832],[999,16916],[999,16999],[999,17083],[999,17165],[999,17248],[999,17332],[999,17416],[999,17499],[999,17582],[999,17666],[999,17749],[999,17832],[999,17915],[999,17999],[999,18083],[999,18166],[999,18249],[999,18332],[999,18415],[999,18499],[999,18583],[999,18665],[999,18749],[999,18832],[999,18916],[999,18999],[999,19082],[999,19166],[999,19250],[999,19333],[999,19415],[999,19500],[999,19582],[999,19666],[999,19749],[999,19833],[999,19915],[999,19999],[999,20082],[999,20165],[999,20249],[999,20333],[999,20416],[999,20499],[999,20583],[999,20666],[999,20749],[999,20832],[999,20915],[999,20999],[999,21082],[999,21165],[999,21248],[999,21333],[999,21415],[999,21500],[999,21583],[999,21666],[999,21750],[999,21832],[999,21916],[999,22000],[999,22083],[999,22166],[999,22249],[999,22332],[999,22415],[999,22499],[999,22583],[999,22665],[999,22750],[999,22832],[999,22915],[999,23000],[999,23083],[999,23166],[999,23250],[999,23333],[999,23416],[999,23500],[999,23582],[999,23665],[999,23750],[999,23833],[3.1,23916],[0.7,23999],[0.7,24083],[0.7,24165],[0.7,24250],[0.7,24333],[0.7,24415],[0.7,24499],[0.9,24583],[2.5,24667],[2.5,24749],[2.5,24833],[2.4,24917],[1.7,24999],[1,25083],[1,25165],[0.9,25250],[0.9,25333],[1.8,25417],[6.2,25499],[7.6,25583],[7.7,25665],[5.1,25750],[3.5,25832],[3.4,25915],[2.2,26000],[1.9,26083],[1.8,26166],[1.8,26249],[1.8,26333],[1.8,26416],[1.8,26499],[1.9,26582]]",1,0,113.6512,120.1679,26.02050781,5.6979,"[{""rating"":2.0475260416666643,""responseTime"":1.8872999999970261},{""rating"":26.0205078125,""responseTime"":5.697900000005973}]",space,5.9674,,120.1682,Not at all,0,120.1721,,,[],,0,0,0,0,1,audio/Narrative13Situation2.wav,audio/Narrative13Situation2.wav,audio/Narrative13Situation2.wav,audio/Narrative13Situation2.wav,2,2,2,2,,,,,,,,,,,,,,,,,,,,,,,,,,,,,,,,,,,,,,,
,,,,,,65c14559b08873161332b3a4,2024-02-08_16h03.39.485,group3.1-3.2-social-tom,2023.2.2,MacIntel,59.52380952,65c5074098b851296ff0b7ed,65c54153c9284a8448373432,,,,,,,,,,,,,,,,,,,,,,,,,,,,,120.1725,1,audio/Narrative7Situation1.wav,122.1841,space,122.1842,178.0855,"[[27,10999],[27.1,11083],[27.1,11166],[27.1,11248],[27.1,11333],[27.1,11415],[29.3,11499],[38.2,11583],[39.8,11666],[39.8,11749],[39.8,11833],[39,11916],[38.9,12000],[38.8,12083],[38.8,12166],[38.8,12249],[38.8,12333],[38.8,12415],[38.8,12498],[38.8,12582],[38.8,12665],[38.8,12749],[38.8,12833],[38.8,12916],[38.8,12999],[38.8,13082],[38.8,13166],[38.8,13249],[38.8,13332],[38.8,13415],[38.8,13499],[38.8,13583],[38.8,13665],[38.8,13749],[38.8,13832],[38.8,13915],[38.8,13999],[38.8,14083],[38.8,14165],[38.8,14249],[38.8,14332],[38.8,14415],[38.8,14499],[38.8,14583],[38.8,14666],[38.8,14749],[38.8,14833],[38.8,14915],[38.8,14999],[38.8,15083],[38.8,15166],[38.8,15250],[38.8,15333],[38.8,15415],[38.8,15499],[38.8,15583],[38.8,15666],[38.8,15749],[38.8,15833],[38.8,15915],[38.8,16000],[38.8,16082],[38.8,16166],[38.8,16250],[38.8,16332],[38.8,16416],[38.8,16500],[38.8,16583],[38.8,16665],[38.8,16749],[38.8,16833],[38.8,16915],[38.8,16999],[38.8,17082],[38.8,17166],[38.8,17250],[38.8,17332],[38.8,17415],[38.8,17500],[38.8,17582],[38.8,17666],[38.8,17749],[38.8,17833],[38.8,17915],[38.8,17998],[38.8,18083],[38.8,18166],[38.8,18249],[38.8,18333],[38.8,18416],[38.8,18499],[38.8,18583],[38.8,18666],[38.8,18750],[38.8,18832],[38.8,18915],[38.8,19000],[38.8,19082],[38.8,19165],[38.8,19249],[38.8,19333],[38.8,19416],[38.8,19500],[38.8,19583],[38.8,19665],[38.8,19749],[38.8,19832],[38.8,19915],[38.8,20000],[38.8,20083],[38.8,20166],[38.8,20250],[38.8,20332],[38.8,20416],[38.8,20500],[38.8,20583],[38.8,20665],[38.8,20749],[38.8,20832],[38.8,20915],[38.8,21000],[38.8,21083],[38.8,21166],[38.8,21250],[38.8,21333],[38.8,21416],[38.8,21500],[38.8,21582],[38.8,21666],[38.8,21749],[38.8,21833],[38.8,21916],[38.8,21999],[38.8,22083],[38.8,22165],[38.8,22249],[38.8,22333],[38.8,22415],[38.8,22500],[38.8,22583],[38.8,22666],[38.8,22750],[38.8,22833],[38.8,22916],[38.8,23000],[38.8,23082],[38.8,23166],[38.8,23250],[38.8,23332],[38.8,23416],[38.8,23499],[38.8,23583],[38.8,23666],[38.8,23749],[38.8,23832],[38.8,23916],[38.8,24000],[38.8,24083],[38.8,24165],[38.8,24250],[38.8,24333],[38.8,24416],[38.8,24500],[38.8,24582],[38.8,24666],[38.8,24749],[38.8,24833],[38.8,24916],[38.8,24999],[38.8,25083],[38.8,25166],[38.8,25250],[38.8,25333],[38.8,25416],[38.8,25499],[38.8,25583],[38.8,25666],[38.8,25750],[38.8,25832],[38.8,25916],[38.8,26000],[38.8,26083],[38.8,26166],[38.8,26250],[38.8,26333],[38.8,26416],[38.8,26500],[38.8,26583],[38.8,26667],[38.8,26750],[38.8,26833],[38.8,26916],[38.8,26999],[38.8,27082],[38.8,27166],[38.8,27250],[38.8,27333],[38.8,27416],[38.8,27500],[38.8,27582],[38.8,27665],[38.8,27750],[38.8,27832],[38.8,27916],[38.8,27999],[38.8,28083],[38.8,28166],[38.8,28250],[38.8,28332],[38.8,28416],[38.8,28500],[38.8,28582],[38.8,28666],[38.8,28750],[39,28834],[62.9,29166],[63.5,29250],[63.6,29333],[60.3,29417],[59.7,29500],[59.7,29583],[59.8,29667],[63.8,29750],[64.2,29832],[64.2,29917],[64.2,29999],[64.2,30082],[64.2,30166],[64.2,30250],[64.2,30332],[64.2,30417],[64.2,30500],[64.2,30583],[64.2,30667],[64.2,30750],[64.2,30832],[64.2,30917],[64.2,31000],[64.2,31082],[64.2,31166],[64.2,31250],[64.2,31333],[64.2,31417],[64.2,31499],[64.2,31583],[64.2,31666],[64.2,31750],[64.2,31833],[64.2,31917],[64.2,31999],[64.2,32083],[64.2,32166],[64.2,32250],[64.2,32333],[64.2,32417],[64.2,32500],[64.2,32583],[64.2,32665],[64.2,32750],[64.3,32833],[67,32917],[67,33000],[67,33083],[67,33167],[67,33250],[67,33333],[67,33417],[67,33500],[67,33582],[67,33665],[67,33750],[67,33833],[67,33917],[67,34000],[67,34083],[67,34167],[67,34250],[67,34333],[67,34417],[67,34500],[67,34583],[67,34667],[67,34750],[67,34832],[67,34917],[67,35000],[67,35082],[67,35166],[67,35250],[67,35333],[67,35416],[67,35500],[67,35583],[67,35667],[67,35750],[67,35832],[67,35917],[67,36000],[67,36083],[67,36167],[67,36250],[67,36332],[67,36417],[67,36500],[67,36583],[67,36667],[67,36750],[67,36833],[67,36917],[67,37000],[67,37083],[67,37167],[67,37250],[67,37333],[67,37417],[67,37500],[67,37583],[67,37667],[67,37750],[67,37833],[67,37917],[67,38000],[76.8,38083],[80.5,38167],[80.5,38250],[80.5,38332],[80.2,38417],[77.7,38501],[73,38584],[71.7,38667],[71.7,38750],[71.7,38833],[71.7,38917],[71.7,39000],[71.7,39083],[71.7,39167],[71.7,39250],[71.7,39333],[73.2,39417],[75.4,39501],[77.3,39584],[77.3,39667],[78.2,39751],[79.5,39833],[79.5,39917],[79.5,40000],[79.5,40083],[79.5,40167],[79.5,40250],[79.5,40333],[79.5,40416],[79.5,40500],[79.5,40583],[79.5,40667],[79.5,40750],[79.5,40834],[79.5,40916],[79.5,41000],[79.5,41083],[79.5,41167],[79.5,41250],[79.5,41333],[79.5,41417],[79.5,41500],[79.5,41584],[79.5,41667],[79.5,41750],[79.5,41833],[79.5,41917],[79.5,42000],[79.5,42084],[79.5,42167],[79.5,42249],[79.5,42334],[79.5,42417],[79.5,42500],[79.5,42584],[79.5,42667],[79.5,42750],[79.5,42834],[79.5,42917],[79.5,43000],[79.5,43083],[79.5,43167],[79.5,43250],[79.5,43334],[79.5,43417],[79.5,43500],[79.5,43583],[79.5,43667],[79.5,43749],[79.5,43834],[79.5,43917],[79.5,44000],[79.5,44084],[79.5,44167],[79.5,44250],[79.5,44334],[79.5,44417],[79.5,44500],[79.5,44584],[79.5,44667],[79.5,44750],[79.5,44833],[79.5,44916],[79.5,45000],[79.5,45084],[79.5,45167],[79.5,45250],[79.5,45334],[79.5,45417],[79.5,45500],[79.5,45584],[79.5,45667],[79.5,45750],[79.5,45834],[79.5,45917],[79.5,46000],[79.5,46084],[79.5,46167],[79.5,46250],[79.5,46334],[79.5,46417],[79.5,46500],[79.5,46583],[79.5,46667],[79.5,46750],[79.5,46834],[79.5,46917],[79.5,47000],[79.5,47084],[79.5,47167],[79.5,47250],[79.5,47334],[79.5,47417],[79.5,47500],[79.5,47584],[79.5,47667],[79.5,47750],[79.5,47834],[79.5,47917],[79.5,48000],[79.5,48084],[79.5,48167],[79.5,48250],[79.5,48334],[79.5,48417],[79.5,48500],[79.5,48584],[79.5,48667],[79.5,48750],[79.5,48834],[79.5,48917],[79.5,49000],[79.5,49084],[79.5,49167],[79.5,49250],[79.5,49333],[79.5,49416],[79.5,49500],[79.5,49583],[79.5,49667],[79.5,49750],[79.5,49834],[79.5,49917],[79.5,50000],[79.5,50084],[79.5,50167],[79.5,50250],[79.5,50333],[79.5,50416],[79.5,50500],[79.5,50584],[79.5,50667],[79.5,50750],[79.5,50834],[79.5,50917],[79.5,51000],[79.5,51084],[79.5,51167],[79.5,51250],[79.5,51334],[79.5,51417],[79.5,51500],[79.5,51584],[79.5,51667],[79.5,51750],[79.5,51834],[79.5,51917],[79.5,52000],[79.5,52084],[79.5,52167],[79.5,52250],[79.5,52334],[79.5,52417],[79.5,52500],[79.5,52584],[79.5,52667],[79.5,52750],[79.5,52834],[79.5,52917],[79.5,53001],[79.5,53084],[79.5,53167],[79.5,53250],[79.5,53334],[79.5,53417],[79.5,53500],[79.5,53583],[79.5,53667],[79.5,53750],[79.5,53834],[79.5,53917],[79.5,54001],[79.5,54083],[79.5,54167],[79.5,54250],[79.5,54334],[79.5,54417],[79.5,54500],[79.5,54584],[79.5,54667],[79.5,54750],[79.5,54834],[79.5,54917],[79.5,55000],[79.5,55084],[79.5,55167],[79.5,55250],[79.5,55334],[79.5,55417],[79.5,55500],[79.5,55584],[79.5,55667],[79.5,55751],[79.5,55834]]",1,0,178.086,181.4685,67.52807617,2.3289,"[{""rating"":67.528076171875,""responseTime"":2.3289000000059445}]",space,2.8353,,181.4687,Half the time,50,181.4717,,,[],,0,1,1,1,1,audio/Narrative7Situation1.wav,audio/Narrative8Situation1.wav,audio/Narrative5Situation1.wav,audio/Narrative6Situation1.wav,2,5,5,2,1.9886,,,,,,,,,,,,,,,,,,,,,,,,,,,,,,,,,,,,,,
,,,,,,65c14559b08873161332b3a4,2024-02-08_16h03.39.485,group3.1-3.2-social-tom,2023.2.2,MacIntel,59.52380952,65c5074098b851296ff0b7ed,65c54153c9284a8448373432,,,,,,,,,,,,,,,,,,,,,,,,,,,,,181.472,1,audio/Narrative7Situation2.wav,184.4854,,184.4854,191.969,"[[999,9],[999,83],[999,166],[999,249],[999,333],[999,416],[999,500],[999,583],[999,666],[999,749],[999,833],[999,916],[999,999],[999,1083],[999,1166],[999,1249],[999,1333],[999,1415],[999,1499],[999,1582],[999,1665],[999,1750],[999,1833],[999,1916],[999,1999],[999,2083],[999,2166],[999,2250],[999,2332],[999,2416],[999,2499],[999,2582],[999,2666],[999,2749],[999,2833],[999,2916],[999,2999],[999,3083],[999,3166],[999,3249],[999,3333],[999,3416],[999,3500],[999,3583],[999,3667],[13.7,4084],[13.7,4168],[15.3,4250],[19.2,4333],[19.2,4416],[19.2,4500],[19.2,4583],[19.2,4666],[19.2,4750],[19.2,4833],[19.2,4916],[19.2,4999],[19.2,5083],[19.2,5166],[19.2,5249],[19.2,5333],[19.2,5416],[19.2,5499],[19.2,5583],[19.2,5666],[19.2,5750],[19.2,5832],[19.2,5915],[19.2,6000],[19.2,6083],[19.2,6166],[19.2,6249],[19.2,6333],[19.2,6416],[19.2,6500],[19.2,6582],[19.2,6666],[19.2,6750],[19.2,6833],[19.2,6916],[19.2,7000],[19.2,7083],[19.2,7166],[19.2,7249],[19.2,7333],[19.2,7416]]",1,0,191.9691,195.2022,1.25406901,2.5156,"[{""rating"":1.254069010416664,""responseTime"":2.5155999999940377}]",space,2.6844,,195.2023,All the time,100,195.2049,,,[],,0,2,2,2,1,audio/Narrative7Situation2.wav,audio/Narrative8Situation2.wav,audio/Narrative5Situation2.wav,audio/Narrative6Situation2.wav,3,3,3,3,,,,,,,,,,,,,,,,,,,,,,,,,,,,,,,,,,,,,,,
,,,,,,65c14559b08873161332b3a4,2024-02-08_16h03.39.485,group3.1-3.2-social-tom,2023.2.2,MacIntel,59.52380952,65c5074098b851296ff0b7ed,65c54153c9284a8448373432,,,,,,,,,,,,,,,,,,,,,,,,,,,,,195.2052,1,audio/Narrative7Situation3.wav,203.2191,,203.2192,212.4862,[],1,0,212.4863,221.053,16.84448242,7.5988,"[{""rating"":38.164876302083336,""responseTime"":6.360900000005927},{""rating"":31.236165364583336,""responseTime"":7.062100000008911},{""rating"":16.844482421875,""responseTime"":7.59880000001192}]",space,8.0182,,221.053,Not at all,0,221.0558,,,[],,0,3,3,3,1,audio/Narrative7Situation3.wav,audio/Narrative8Situation3.wav,audio/Narrative5Situation3.wav,audio/Narrative6Situation3.wav,8,4,3,5,,,,,,,,,,,,,,,,,,,,,,,,,,,,,,,,,,,,,,,
,,,,,,65c14559b08873161332b3a4,2024-02-08_16h03.39.485,group3.1-3.2-social-tom,2023.2.2,MacIntel,59.52380952,65c5074098b851296ff0b7ed,65c54153c9284a8448373432,,,,,,,,,,,,,,,,,,,,,,,,,,,,,221.0561,1,audio/Narrative7Situation4.wav,224.0698,,224.0698,235.8033,"[[48.5,9750],[43.9,9916],[43.9,10000],[43.8,10083],[42.9,10166],[42.9,10250],[43,10333],[43.2,10417],[45.6,10500],[48.4,10583],[50,10665],[50.3,10750],[53.6,10834],[53.8,10916],[54.7,10999],[54.7,11083],[54.7,11166],[54.7,11250],[54.7,11333],[54.7,11416],[55.1,11500],[55.2,11583],[55.3,11666]]",1,0,235.8035,236.9034,55.32063802,0.2033,"[{""rating"":55.320638020833336,""responseTime"":0.20329999999705706}]",space,0.5497,,236.9035,Not at all,0,236.9055,,,[],,0,4,4,4,1,audio/Narrative7Situation4.wav,audio/Narrative8Situation4.wav,audio/Narrative5Situation4.wav,audio/Narrative6Situation4.wav,3,3,1,2,,,,,,,,,,,,,,,,,,,,,,,,,,,,,,,,,,,,,,,
,,,,,,65c14559b08873161332b3a4,2024-02-08_16h03.39.485,group3.1-3.2-social-tom,2023.2.2,MacIntel,59.52380952,65c5074098b851296ff0b7ed,65c54153c9284a8448373432,,,,,,,,,,,,,,,,,,,,,,,,,,,,,236.9057,1,audio/Narrative7Situation5.wav,241.9201,,241.9201,250.4204,[],1,0,250.4205,254.2537,39.47062174,3.1076,"[{""rating"":51.902262369791664,""responseTime"":2.541099999994003},{""rating"":39.470621744791664,""responseTime"":3.1075999999940223}]",space,3.2858,,254.2539,Not at all,0,254.2555,,,[],,0,5,5,5,1,audio/Narrative7Situation5.wav,audio/Narrative8Situation5.wav,audio/Narrative5Situation5.wav,audio/Narrative6Situation5.wav,5,2,5,2,,,,,,,,,,,,,,,,,,,,,,,,,,,,,,,,,,,,,,,
,,,,,,65c14559b08873161332b3a4,2024-02-08_16h03.39.485,group3.1-3.2-social-tom,2023.2.2,MacIntel,59.52380952,65c5074098b851296ff0b7ed,65c54153c9284a8448373432,,,,,,,,,,,,,,,,,,,,,,,,,,,,,254.2558,1,audio/Narrative7Situation6.wav,257.2705,,257.2705,267.254,[],1,0,267.2542,271.1711,36.28377279,2.8631,"[{""rating"":36.283772786458336,""responseTime"":2.8630999999940627}]",space,3.3809,,271.1713,Half the time,50,271.1755,,,[],,0,6,6,6,1,audio/Narrative7Situation6.wav,audio/Narrative8Situation6.wav,audio/Narrative5Situation6.wav,audio/Narrative6Situation6.wav,3,2,3,2,,,,,,,,,,,,,,,,,,,,,,,,,,,,,,,,,,,,,,,
,,,,,,65c14559b08873161332b3a4,2024-02-08_16h03.39.485,group3.1-3.2-social-tom,2023.2.2,MacIntel,59.52380952,65c5074098b851296ff0b7ed,65c54153c9284a8448373432,,,,,,,,,,,,,,,,,,,,,,,,,,,,,271.1758,1,audio/Narrative7Situation7.wav,276.1876,,276.1876,293.3717,"[[999,8],[999,83],[999,166],[999,249],[999,333],[999,416],[999,499],[999,583],[999,666],[999,749],[999,833],[999,916],[999,998],[999,1083],[999,1166],[999,1248],[999,1333],[999,1416],[999,1499],[999,1583],[999,1666],[999,1749],[999,1833],[999,1915],[999,1999],[999,2083],[999,2166],[999,2249],[999,2333],[999,2416],[999,2499],[999,2583],[999,2666],[999,2750],[999,2833],[999,2916],[999,2999],[999,3083],[999,3166],[999,3249],[999,3332],[999,3416],[999,3499],[999,3583],[999,3665],[999,3749],[999,3833],[999,3916],[999,4000],[999,4083],[999,4166],[999,4249],[999,4333],[999,4416],[999,4499],[999,4583],[999,4666],[999,4749],[999,4833],[999,4916],[999,5000],[999,5083],[999,5166],[999,5249],[999,5333],[999,5416],[999,5500],[999,5583],[999,5665],[999,5749],[999,5833],[999,5916],[999,5999],[999,6082],[999,6166],[999,6250],[999,6333],[999,6416],[999,6499],[999,6583],[999,6666],[999,6749],[999,6833],[999,6916],[999,7000],[999,7083],[999,7166],[999,7249],[999,7333],[999,7415],[999,7500],[999,7583],[999,7666],[999,7750],[999,7833],[999,7916],[999,8000],[999,8083],[999,8166],[999,8249],[999,8332],[999,8416],[999,8500],[999,8583],[999,8666],[999,8750],[999,8833],[999,8916],[999,9000],[999,9083],[999,9166],[999,9249],[999,9333],[999,9415],[999,9499],[999,9583],[999,9666],[999,9750],[999,9833],[999,9916],[999,10000],[999,10083],[999,10166],[999,10250],[999,10333],[999,10416],[999,10499],[999,10583],[999,10666],[999,10750],[999,10832],[999,10916],[999,11000],[999,11083],[999,11166],[999,11250],[999,11333],[999,11416],[999,11500],[999,11583],[999,11665],[999,11750],[999,11833],[999,11916],[999,12000],[999,12083],[999,12166],[999,12250],[999,12333],[999,12415],[999,12500],[999,12583],[999,12666],[999,12750],[999,12833],[999,12915],[999,13000],[999,13083],[999,13166],[999,13250],[999,13333],[999,13416],[999,13500],[999,13583],[999,13666],[999,13750],[999,13833],[999,13916],[999,13999],[999,14083],[999,14166],[999,14250],[999,14332],[999,14416],[999,14499],[999,14583],[999,14666],[999,14750],[999,14833],[999,14916],[999,14999],[999,15082],[999,15166],[999,15249],[999,15333],[999,15416],[999,15500],[999,15583],[999,15665],[999,15749],[999,15832],[999,15916],[999,15999],[999,16082],[999,16166],[999,16250],[999,16333],[999,16416],[999,16500],[999,16583],[999,16666],[999,16750],[999,16833],[999,16916],[90.8,17167]]",1,0,293.3719,295.2047,91.41805013,0.5971,"[{""rating"":91.41805013020834,""responseTime"":0.5971000000089361}]",space,1.2854,,295.2048,Half the time,50,295.2063,,,[],,0,7,7,7,1,audio/Narrative7Situation7.wav,audio/Narrative8Situation7.wav,audio/Narrative5Situation7.wav,audio/Narrative6Situation7.wav,5,3,4,5,,,,,,,,,,,,,,,,,,,,,,,,,,,,,,,,,,,,,,,
,,,,,,65c14559b08873161332b3a4,2024-02-08_16h03.39.485,group3.1-3.2-social-tom,2023.2.2,MacIntel,59.52380952,65c5074098b851296ff0b7ed,65c54153c9284a8448373432,,,,,,,,,,,,,,,,,,,,,,,,,,,,,295.2065,1,audio/Narrative7Situation8.wav,297.2213,,297.2215,307.2551,"[[999,0],[999,83],[999,166],[999,248],[999,333],[999,416],[999,499],[999,582],[999,666],[999,749],[999,832],[999,916],[999,999],[999,1083],[999,1166],[999,1249],[999,1332],[999,1415],[999,1499],[999,1583],[999,1666],[999,1749],[999,1832],[999,1916],[999,1999],[999,2083],[999,2165],[999,2249],[999,2333],[999,2416],[999,2499],[999,2583],[999,2665],[999,2749],[999,2833],[999,2916],[999,2998],[999,3083],[999,3166],[999,3249],[999,3333],[999,3416],[999,3499],[999,3583],[999,3666],[999,3749],[999,3832],[999,3916],[999,3999],[999,4082],[999,4166],[999,4249],[999,4333],[999,4416],[999,4499],[999,4582],[999,4665],[999,4749],[999,4833],[999,4916],[999,4998],[999,5083],[76.8,5500],[74.1,5582],[73.3,5666],[73.3,5748],[73.3,5833],[73.3,5916],[73.3,5999],[73.3,6083],[73.3,6166],[73.3,6249],[73.3,6332],[73.9,6415],[73.9,6499],[73.9,6583],[73.9,6666],[73.9,6749],[73.9,6833],[73.9,6916],[73.9,6999],[73.9,7083],[73.9,7165],[73.9,7249],[73.9,7333],[73.9,7415],[73.9,7499],[73.9,7583],[73.9,7666],[73.9,7749],[73.9,7833],[73.9,7915],[73.9,7999],[73.9,8083],[73.9,8165],[73.9,8249],[73.9,8332],[73.9,8416],[73.9,8499],[73.9,8582],[73.9,8665],[73.9,8749],[73.9,8833],[73.9,8915],[73.9,8999],[73.9,9083],[73.9,9166],[73.9,9250],[73.9,9333],[73.9,9416],[73.9,9500],[73.9,9583],[73.9,9666],[73.9,9750],[74,9833],[74,9916],[74,9999]]",1,0,307.2553,308.8555,73.54288737,0.5483,"[{""rating"":73.54288736979167,""responseTime"":0.5482999999970275}]",space,1.0499,,308.8555,Not at all,0,308.8595,,,[],,0,8,8,8,1,audio/Narrative7Situation8.wav,audio/Narrative8Situation8.wav,audio/Narrative5Situation8.wav,audio/Narrative6Situation8.wav,2,3,3,5,,,,,,,,,,,,,,,,,,,,,,,,,,,,,,,,,,,,,,,
,,,,,,65c14559b08873161332b3a4,2024-02-08_16h03.39.485,group3.1-3.2-social-tom,2023.2.2,MacIntel,59.52380952,65c5074098b851296ff0b7ed,65c54153c9284a8448373432,,,,,,,,,,,,,,,,,,,,,,,,,,,,,308.8598,1,audio/Narrative7Situation9.wav,310.8707,,310.8708,319.4886,"[[999,0],[999,83],[999,167],[999,249],[999,333],[999,417],[999,500],[999,583],[999,667],[999,750],[999,834],[999,917],[999,999],[999,1084],[999,1167],[999,1250],[999,1334],[999,1416],[999,1500],[999,1583],[999,1667],[999,1749],[999,1834],[999,1917],[999,2000],[999,2084],[999,2167],[999,2250],[999,2333],[999,2416],[999,2499],[999,2583],[999,2667],[999,2750],[999,2834],[999,2917],[999,3000],[999,3083],[999,3167],[999,3250],[999,3333],[999,3417],[999,3499],[999,3584],[999,3667],[999,3750],[999,3834],[999,3917],[999,4000],[999,4083],[999,4167],[999,4250],[999,4334],[999,4417],[999,4500],[999,4584],[999,4667],[999,4750],[999,4834],[999,4917],[999,5000],[999,5083],[999,5167],[999,5250],[999,5334],[999,5416],[999,5500],[999,5583],[999,5667],[999,5750],[999,5833],[999,5917],[999,6000],[999,6083],[999,6167],[999,6250],[999,6334],[999,6417],[999,6500],[999,6583],[999,6666],[999,6750],[999,6833],[999,6917],[999,7000],[999,7084],[999,7167],[999,7250],[999,7333],[999,7417],[999,7499],[999,7583],[999,7667],[999,7749],[999,7834],[999,7917],[999,8000],[999,8084],[999,8167],[999,8250],[999,8334],[999,8417],[999,8500],[999,8584]]",1,0,319.4888,322.371,86.15397135,2.1277,"[{""rating"":86.15397135416667,""responseTime"":2.127700000003017}]",space,2.3343,,322.3711,Half the time,50,322.3743,,,[],,0,9,9,9,1,audio/Narrative7Situation9.wav,audio/Narrative8Situation9.wav,audio/Narrative5Situation9.wav,audio/Narrative6Situation9.wav,2,3,3,4,,,,,,,,,,,,,,,,,,,,,,,,,,,,,,,,,,,,,,,
,,,,,,65c14559b08873161332b3a4,2024-02-08_16h03.39.485,group3.1-3.2-social-tom,2023.2.2,MacIntel,59.52380952,65c5074098b851296ff0b7ed,65c54153c9284a8448373432,,,,,,,,,,,,,,,,,,,,,,,,,,,,,322.3746,1,audio/Narrative8Situation1.wav,327.3881,,327.3882,343.3064,"[[999,8],[999,83],[999,166],[999,250],[999,332],[999,417],[999,500],[999,582],[999,667],[999,750],[999,833],[999,917],[999,1000],[999,1082],[999,1167],[999,1250],[999,1333],[999,1417],[999,1499],[999,1582],[999,1667],[999,1750],[999,1833],[999,1916],[999,2000],[999,2083],[999,2166],[999,2249],[999,2332],[999,2417],[999,2499],[62.7,2584],[21,3000],[21.1,3082],[19.5,3166],[15.8,3250],[12.4,3332],[10.4,3417],[10.2,3499],[10.2,3584],[10.2,3666],[10.7,3750],[10.7,3832],[10.7,3917],[10.7,4000],[10.7,4083],[10.7,4167],[10.7,4250],[10.7,4333],[10.8,4416],[10.8,4500],[10.8,4583],[10.8,4666],[10.8,4749],[10.8,4833],[10.8,4917],[10.8,5000],[10.8,5082],[10.8,5167],[10.8,5250],[10.8,5333],[10.8,5415],[10.8,5500],[10.8,5583],[10.8,5665],[10.8,5749],[10.8,5833],[10.8,5917],[10.8,5999],[10.8,6083],[10.8,6166],[10.8,6249],[10.8,6333],[10.8,6416],[10.8,6500],[10.8,6583],[10.8,6666],[10.8,6749],[10.8,6832],[10.8,6917],[10.8,7000],[10.8,7082],[10.8,7167],[10.8,7250],[10.8,7333],[10.8,7417],[10.8,7500],[10.8,7582],[10.8,7667],[10.8,7749],[10.8,7833],[10.8,7917],[10.8,8000],[10.8,8082],[10.8,8167],[10.8,8250],[10.8,8333],[10.8,8416],[10.8,8500],[10.8,8583],[10.8,8667],[10.8,8750],[10.8,8832],[10.8,8916],[10.8,9000],[10.8,9082],[10.8,9167],[10.8,9250],[10.8,9334],[10.8,9417],[10.8,9500],[10.8,9582],[10.8,9667],[10.8,9750],[10.8,9833],[10.8,9917],[10.8,10000],[10.8,10083],[10.8,10167],[10.8,10250],[10.8,10334],[10.8,10417],[10.8,10500],[10.8,10584],[10.8,10666],[10.8,10750],[10.8,10833],[10.8,10917],[10.8,11000],[10.8,11084],[10.8,11166],[10.8,11250],[10.8,11333],[10.8,11417],[10.8,11499],[10.8,11583],[10.8,11667],[10.8,11750],[10.8,11833],[10.8,11917],[10.8,12000],[10.8,12083],[10.8,12166],[10.8,12250],[10.8,12334],[10.8,12417],[10.8,12500],[10.8,12583],[10.8,12667],[10.8,12749],[10.8,12833],[10.8,12917],[10.8,13000],[10.8,13083],[10.8,13167],[10.8,13249],[10.8,13333],[10.8,13417],[10.8,13500],[10.8,13583],[10.8,13667],[10.8,13750],[10.8,13834],[10.8,13917],[10.8,14000],[10.8,14084],[10.8,14167],[10.8,14250],[10.8,14333],[10.8,14417],[10.8,14500],[10.8,14584],[10.8,14666],[10.8,14750],[10.8,14834],[10.8,14916],[10.8,15000],[10.8,15083],[10.8,15166],[10.8,15250],[20,15667],[26.4,15751],[28.6,15834],[30.5,15917]]",1,0,343.3067,344.4221,30.51188151,0.2699,"[{""rating"":30.511881510416668,""responseTime"":0.2699000000059186}]",space,0.5692,,344.4222,Not at all,0,344.4247,,,[],,0,10,10,10,1,audio/Narrative8Situation1.wav,audio/Narrative7Situation1.wav,audio/Narrative6Situation1.wav,audio/Narrative5Situation1.wav,5,2,2,5,,,,,,,,,,,,,,,,,,,,,,,,,,,,,,,,,,,,,,,
,,,,,,65c14559b08873161332b3a4,2024-02-08_16h03.39.485,group3.1-3.2-social-tom,2023.2.2,MacIntel,59.52380952,65c5074098b851296ff0b7ed,65c54153c9284a8448373432,,,,,,,,,,,,,,,,,,,,,,,,,,,,,344.4249,1,audio/Narrative8Situation2.wav,347.4385,,347.4386,357.5395,[],1,0,357.5397,359.3733,40.77921549,1.0886,"[{""rating"":40.779215494791664,""responseTime"":1.0885999999940168}]",space,1.285,,359.3734,Half the time,50,359.3774,,,[],,0,11,11,11,1,audio/Narrative8Situation2.wav,audio/Narrative7Situation2.wav,audio/Narrative6Situation2.wav,audio/Narrative5Situation2.wav,3,3,3,3,,,,,,,,,,,,,,,,,,,,,,,,,,,,,,,,,,,,,,,
,,,,,,65c14559b08873161332b3a4,2024-02-08_16h03.39.485,group3.1-3.2-social-tom,2023.2.2,MacIntel,59.52380952,65c5074098b851296ff0b7ed,65c54153c9284a8448373432,,,,,,,,,,,,,,,,,,,,,,,,,,,,,359.3776,1,audio/Narrative8Situation3.wav,363.3886,,363.3887,385.7567,"[[46.6,8667],[48.6,8750],[48.1,8834],[32.7,9251],[34,9334],[34,9417],[39.1,9500],[41,9584],[41,9666],[41,9750],[41,9834],[41.2,9917],[41.2,10001],[41.2,10083],[39.9,10168],[38,10251],[32.3,10334],[27.7,10417],[27.7,10500],[27.6,10584],[27.6,10667],[27.6,10751],[27.8,10834],[27.8,10917],[27.8,11000],[27.8,11084],[27.8,11166],[27.8,11250],[27.8,11333],[27.8,11417],[27.8,11500],[27.8,11583],[27.8,11666],[27.8,11750],[27.8,11834],[27.8,11916],[27.8,12000],[27.8,12084],[27.8,12167],[27.8,12251],[27.8,12334],[27.8,12416],[27.8,12501],[27.8,12583],[27.8,12666],[27.8,12750],[27.8,12833],[27.8,12917],[27.8,13000],[27.8,13084],[27.8,13167],[27.8,13251],[27.8,13334],[27.8,13417],[27.8,13501],[27.8,13584],[27.8,13666],[27.8,13751],[27.8,13834],[27.8,13916],[27.8,14000],[27.8,14083],[27.8,14167],[27.8,14250],[27.8,14333],[27.8,14417],[27.8,14501],[27.8,14583],[27.8,14666],[27.8,14750],[27.8,14833],[27.8,14917],[27.8,15001],[27.8,15084],[27.8,15167],[27.8,15251],[27.8,15334],[27.8,15417],[27.8,15500],[27.8,15584],[27.8,15667],[27.8,15751],[27.8,15833],[27.8,15917],[27.8,16001],[27.8,16084],[27.8,16167],[27.8,16251],[27.8,16334],[27.8,16417],[27.8,16501],[27.8,16584],[27.8,16667],[27.8,16751],[27.8,16834],[27.8,16917],[27.8,17000],[27.8,17084],[27.8,17166],[27.8,17251],[27.8,17334],[27.8,17416],[27.8,17501],[27.8,17583],[27.8,17667],[27.8,17751],[27.8,17834],[27.8,17917],[27.8,18001],[27.8,18084],[27.8,18167],[27.8,18250],[27.8,18334],[27.8,18417],[27.8,18500],[27.8,18584],[27.8,18667],[27.8,18750],[27.8,18834],[27.8,18917],[27.8,19000],[27.8,19084],[27.8,19167],[27.8,19251],[27.8,19334],[27.8,19418],[27.8,19500],[27.8,19583],[27.8,19667],[27.8,19750],[27.8,19834],[27.8,19917],[27.8,20000],[27.8,20084],[27.8,20167],[27.8,20251],[27.8,20334],[27.8,20417],[27.8,20501],[27.8,20583],[27.8,20667],[27.8,20751],[27.8,20833],[27.8,20917],[27.8,21001],[27.8,21084],[27.8,21166],[27.8,21251],[27.8,21334],[27.8,21418],[27.8,21501],[27.8,21584],[27.8,21667],[27.8,21751],[27.8,21834],[27.8,21917],[27.8,22001],[27.8,22084],[27.8,22167],[27.8,22251],[27.8,22334]]",1,0,385.757,388.8227,43.94205729,2.4278,"[{""rating"":43.94205729166667,""responseTime"":2.4278000000119278}]",space,2.518,,388.8228,Half the time,50,388.8244,,,[],,0,12,12,12,1,audio/Narrative8Situation3.wav,audio/Narrative7Situation3.wav,audio/Narrative6Situation3.wav,audio/Narrative5Situation3.wav,4,8,5,3,,,,,,,,,,,,,,,,,,,,,,,,,,,,,,,,,,,,,,,
,,,,,,65c14559b08873161332b3a4,2024-02-08_16h03.39.485,group3.1-3.2-social-tom,2023.2.2,MacIntel,59.52380952,65c5074098b851296ff0b7ed,65c54153c9284a8448373432,,,,,,,,,,,,,,,,,,,,,,,,,,,,,388.8246,1,audio/Narrative8Situation4.wav,391.8403,,391.8403,406.024,[],1,0,406.0241,410.1574,55.72265625,3.4262,"[{""rating"":55.72265625,""responseTime"":3.42620000000295}]",space,3.5965,,410.1575,Half the time,50,410.1598,,,[],,0,13,13,13,1,audio/Narrative8Situation4.wav,audio/Narrative7Situation4.wav,audio/Narrative6Situation4.wav,audio/Narrative5Situation4.wav,3,3,2,1,,,,,,,,,,,,,,,,,,,,,,,,,,,,,,,,,,,,,,,
,,,,,,65c14559b08873161332b3a4,2024-02-08_16h03.39.485,group3.1-3.2-social-tom,2023.2.2,MacIntel,59.52380952,65c5074098b851296ff0b7ed,65c54153c9284a8448373432,,,,,,,,,,,,,,,,,,,,,,,,,,,,,410.1601,1,audio/Narrative8Situation5.wav,412.1741,,412.1742,420.424,"[[999,0],[999,83],[999,166],[999,249],[999,332],[999,416],[999,499],[999,583],[999,666],[999,749],[999,833],[999,916],[999,999],[999,1083],[999,1166],[999,1249],[999,1332],[999,1416],[999,1499],[999,1583],[999,1666],[999,1749],[999,1833],[999,1916],[999,1999],[999,2083],[999,2166],[999,2249],[999,2333],[999,2416],[999,2499],[999,2583],[999,2666],[999,2749],[999,2833],[999,2916],[999,2999],[999,3083],[999,3166],[999,3249],[999,3332],[999,3416],[999,3499],[999,3582],[999,3665],[999,3748],[999,3833],[999,3916],[999,3999],[999,4083],[999,4166],[999,4249],[999,4333],[999,4415],[999,4499],[999,4583],[999,4666],[999,4749],[999,4833],[999,4916],[999,4999],[999,5083],[999,5166],[999,5249],[999,5333],[999,5416],[999,5499],[999,5582],[999,5666],[999,5749],[999,5833],[999,5916],[999,5999],[999,6082],[999,6167],[999,6250],[999,6333],[60.1,6416],[57.3,6500],[53.7,6582],[52.5,6667],[52.3,6749],[52.3,6832],[52.3,6916],[51.7,7000],[51.3,7083],[51.3,7166],[51.3,7249],[51.8,7333],[52.7,7416],[54.1,7500],[56.1,7583],[57.1,7666],[58.8,7750],[61.4,7833],[61.5,7916],[63.1,8000],[64.4,8083],[64.4,8166],[64.4,8249]]",1,0,420.4242,421.8738,64.08894857,0.7816,"[{""rating"":64.08894856770834,""responseTime"":0.7815999999940573}]",space,0.918,,421.8738,Not at all,0,421.8763,,,[],,0,14,14,14,1,audio/Narrative8Situation5.wav,audio/Narrative7Situation5.wav,audio/Narrative6Situation5.wav,audio/Narrative5Situation5.wav,2,5,2,5,,,,,,,,,,,,,,,,,,,,,,,,,,,,,,,,,,,,,,,
,,,,,,65c14559b08873161332b3a4,2024-02-08_16h03.39.485,group3.1-3.2-social-tom,2023.2.2,MacIntel,59.52380952,65c5074098b851296ff0b7ed,65c54153c9284a8448373432,,,,,,,,,,,,,,,,,,,,,,,,,,,,,421.8766,1,audio/Narrative8Situation6.wav,423.8908,,423.8909,430.3739,[],1,0,430.374,439.4747,75.60994466,8.461,"[{""rating"":94.03767903645833,""responseTime"":7.174200000002941},{""rating"":71.62638346354167,""responseTime"":7.931899999991117},{""rating"":75.60994466145834,""responseTime"":8.460999999999956}]",space,8.5686,,439.4748,Half the time,50,439.4771,,,[],,0,15,15,15,1,audio/Narrative8Situation6.wav,audio/Narrative7Situation6.wav,audio/Narrative6Situation6.wav,audio/Narrative5Situation6.wav,2,3,2,3,,,,,,,,,,,,,,,,,,,,,,,,,,,,,,,,,,,,,,,
,,,,,,65c14559b08873161332b3a4,2024-02-08_16h03.39.485,group3.1-3.2-social-tom,2023.2.2,MacIntel,59.52380952,65c5074098b851296ff0b7ed,65c54153c9284a8448373432,,,,,,,,,,,,,,,,,,,,,,,,,,,,,439.4774,1,audio/Narrative8Situation7.wav,442.4915,,442.4915,454.5919,[],1,0,454.592,457.7752,59.78719076,2.4124,"[{""rating"":59.78719075520833,""responseTime"":2.4124000000059596}]",space,2.6352,,457.7752,All the time,100,457.7783,,,[],,0,16,16,16,1,audio/Narrative8Situation7.wav,audio/Narrative7Situation7.wav,audio/Narrative6Situation7.wav,audio/Narrative5Situation7.wav,3,5,5,4,,,,,,,,,,,,,,,,,,,,,,,,,,,,,,,,,,,,,,,
,,,,,,65c14559b08873161332b3a4,2024-02-08_16h03.39.485,group3.1-3.2-social-tom,2023.2.2,MacIntel,59.52380952,65c5074098b851296ff0b7ed,65c54153c9284a8448373432,,,,,,,,,,,,,,,,,,,,,,,,,,,,,457.7786,1,audio/Narrative8Situation8.wav,460.7917,,460.7918,473.6422,"[[999,8],[999,83],[999,166],[999,249],[999,333],[999,416],[999,499],[999,583],[999,666],[999,750],[999,833],[999,916],[999,1000],[999,1083],[999,1166],[999,1249],[999,1333],[999,1416],[999,1500],[999,1583],[999,1666],[999,1749],[999,1833],[999,1916],[999,2000],[999,2083],[999,2166],[999,2250],[999,2332],[999,2416],[999,2500],[999,2582],[999,2666],[999,2750],[999,2833],[999,2916],[999,2999],[999,3083],[999,3166],[999,3250],[999,3333],[999,3416],[999,3500],[999,3583],[999,3666],[999,3750],[999,3833],[999,3916],[999,4000],[999,4083],[999,4166],[999,4249],[999,4333],[999,4416],[999,4500],[999,4583],[999,4666],[999,4749],[999,4833],[999,4916],[999,5000],[999,5083],[999,5166],[999,5250],[999,5333],[999,5416],[999,5500],[999,5583],[999,5666],[999,5750],[999,5833],[999,5916],[999,6000],[999,6083],[999,6166],[999,6250],[999,6333],[999,6415],[999,6500],[999,6583],[999,6666],[999,6750],[999,6833],[999,6916],[999,7000],[999,7083],[999,7166],[999,7250],[999,7333],[999,7416],[999,7500],[999,7582],[999,7666],[999,7750],[999,7833],[999,7916],[999,8000],[999,8083],[999,8166],[999,8250],[999,8333],[999,8416],[999,8500],[999,8583],[999,8666],[999,8750],[999,8832],[999,8916],[999,9000],[999,9083],[999,9166],[999,9250],[999,9333],[999,9416],[999,9500],[999,9583],[999,9666],[999,9750],[999,9832],[999,9916],[999,10000],[999,10083],[999,10166],[999,10250],[999,10333],[999,10416],[999,10499],[999,10583],[999,10666],[999,10750],[999,10833],[999,10916],[999,11000],[999,11083],[999,11167],[999,11250],[999,11333],[999,11416],[999,11500],[999,11583],[999,11666],[999,11750],[999,11832],[999,11916],[999,12000],[999,12083],[999,12166],[999,12250],[999,12333],[999,12416],[999,12500],[999,12583],[999,12666],[999,12750],[999,12833]]",1,0,473.6424,477.3758,51.67765299,3.1605,"[{""rating"":51.677652994791664,""responseTime"":3.1604999999999563}]",space,3.1846,,477.3759,All the time,100,477.3779,,,[],,0,17,17,17,1,audio/Narrative8Situation8.wav,audio/Narrative7Situation8.wav,audio/Narrative6Situation8.wav,audio/Narrative5Situation8.wav,3,2,5,3,,,,,,,,,,,,,,,,,,,,,,,,,,,,,,,,,,,,,,,
,,,,,,65c14559b08873161332b3a4,2024-02-08_16h03.39.485,group3.1-3.2-social-tom,2023.2.2,MacIntel,59.52380952,65c5074098b851296ff0b7ed,65c54153c9284a8448373432,,,,,,,,,,,,,,,,,,,,,,,,,,,,,477.3782,1,audio/Narrative8Situation9.wav,480.3924,,480.3924,491.7093,"[[51.9,4000],[53.9,4083],[58,4167],[58,4249],[58.2,4332],[58.3,4415],[58.3,4499],[58.3,4583],[58.3,4666],[58.3,4749],[58.3,4833],[58.3,4916],[58.3,4998],[58.3,5082],[58.3,5166],[58.3,5249],[54.1,5333],[53.8,5416],[53.6,5500],[45.3,5583],[37.2,5666],[34.6,5750],[33.7,5833],[33.6,5916],[33.5,6000],[33.3,6082],[33.3,6166],[35.8,6250],[35.8,6333],[35.8,6416],[35.8,6499],[35.8,6583],[35.8,6666],[35.8,6750],[35.8,6833],[35.8,6916],[35.8,7000],[35.8,7083],[35.8,7166],[35.8,7249],[35.8,7333],[35.8,7416],[35.8,7500],[35.8,7583],[35.8,7666],[35.8,7749],[35.8,7833],[35.8,7916],[35.8,8000],[35.8,8082],[35.8,8166],[35.8,8249],[35.8,8333],[35.8,8416],[35.8,8500],[35.8,8583],[35.8,8666],[35.8,8749],[35.8,8833],[35.8,8916],[35.8,9000],[35.8,9083],[35.8,9166],[35.8,9250],[35.8,9333],[35.8,9416],[35.8,9499],[35.8,9583],[35.8,9666],[35.8,9750],[35.8,9833],[35.8,9916],[35.8,10000],[35.8,10083],[35.8,10166],[35.8,10249],[35.8,10332],[35.8,10416],[35.8,10500],[35.8,10583],[35.8,10666],[35.8,10750],[35.8,10833],[35.8,10916],[35.8,10999],[35.8,11083],[35.8,11165],[35.8,11250]]",1,0,491.7095,492.9593,42.31323242,0.4636,"[{""rating"":42.313232421875,""responseTime"":0.4636000000089098}]",space,0.7289,,492.9594,Half the time,50,505.5096,49.99755859,10.6208,"[{""rating"":49.99755859375,""responseTime"":10.620799999997075}]",space,0,18,18,18,1,audio/Narrative8Situation9.wav,audio/Narrative7Situation9.wav,audio/Narrative6Situation9.wav,audio/Narrative5Situation9.wav,3,2,4,3,,,11.9995,,,,,,,,,,,,,,,,,,,,,,,,,,,,,,,,,,,,
,,,,,,65c14559b08873161332b3a4,2024-02-08_16h03.39.485,group3.1-3.2-social-tom,2023.2.2,MacIntel,59.52380952,65c5074098b851296ff0b7ed,65c54153c9284a8448373432,,,,,,,,,,,,,,,,,,,,,,,,,,,510.5521,513.1265,513.1393,2,audio/Narrative13Situation2.wav,513.1394,,513.1394,542.8941,"[[999,0],[999,69],[999,153],[999,235],[999,320],[999,402],[999,486],[999,569],[999,653],[999,736],[999,820],[999,903],[999,985],[999,1070],[999,1153],[999,1235],[999,1319],[999,1403],[999,1487],[999,1570],[999,1652],[999,1735],[999,1819],[999,1903],[999,1987],[999,2070],[999,2153],[999,2235],[999,2320],[999,2403],[999,2486],[999,2570],[999,2653],[999,2736],[999,2820],[999,2903],[999,2986],[999,3069],[999,3153],[999,3236],[999,3320],[999,3402],[999,3487],[999,3569],[999,3653],[999,3736],[999,3820],[999,3903],[999,3986],[999,4070],[999,4153],[999,4235],[999,4319],[999,4402],[999,4486],[999,4570],[999,4652],[999,4736],[999,4820],[999,4903],[999,4986],[999,5069],[999,5153],[999,5237],[999,5320],[999,5403],[999,5486],[999,5569],[999,5653],[999,5735],[999,5819],[999,5903],[999,5987],[999,6069],[999,6153],[999,6236],[999,6320],[999,6403],[999,6486],[999,6569],[999,6652],[999,6736],[999,6820],[999,6903],[999,6987],[999,7070],[999,7153],[999,7236],[999,7320],[999,7402],[999,7486],[999,7570],[999,7653],[999,7736],[999,7820],[999,7902],[999,7987],[999,8069],[999,8153],[999,8236],[999,8320],[999,8402],[999,8487],[999,8570],[999,8653],[999,8736],[999,8819],[999,8903],[999,8986],[999,9069],[999,9153],[999,9237],[999,9320],[999,9402],[999,9486],[999,9569],[999,9652],[999,9737],[999,9820],[999,9903],[999,9987],[999,10070],[999,10153],[999,10236],[999,10320],[999,10403],[999,10487],[999,10570],[999,10653],[999,10737],[999,10820],[999,10903],[999,10987],[999,11069],[999,11152],[999,11237],[999,11320],[999,11403],[999,11486],[999,11570],[999,11653],[999,11736],[999,11820],[999,11902],[999,11986],[999,12069],[999,12152],[999,12236],[999,12320],[999,12403],[999,12487],[999,12569],[999,12654],[999,12736],[999,12820],[999,12903],[999,12986],[999,13070],[999,13153],[999,13236],[999,13319],[999,13403],[999,13486],[999,13569],[999,13653],[999,13736],[999,13820],[999,13903],[999,13986],[999,14070],[999,14152],[999,14237],[999,14319],[999,14403],[999,14487],[999,14570],[999,14653],[999,14736],[999,14820],[999,14903],[999,14986],[999,15070],[999,15153],[999,15237],[999,15319],[999,15403],[999,15486],[999,15570],[999,15653],[999,15737],[999,15819],[999,15902],[999,15987],[999,16070],[999,16154],[999,16237],[999,16321],[999,16404],[999,16487],[999,16571],[999,16653],[999,16738],[999,16821],[999,16904],[999,16986],[45.3,17070],[38.3,17154],[36.8,17237],[35.5,17319],[35.5,17403],[35.5,17487],[35.5,17569],[35.5,17653],[35.5,17737],[35.5,17820],[36.6,17904],[36.7,17987],[36.7,18070],[36.7,18153],[36.7,18236],[36.7,18320],[37.2,18403],[37.2,18487],[37.2,18570],[37.2,18654],[37.2,18737],[37.2,18820],[37.2,18903],[37.2,18986],[37.2,19070],[37.2,19153],[37.2,19236],[37.2,19320],[37.2,19403],[37.2,19486],[37.2,19570],[37.2,19653],[37.2,19737],[37.2,19820],[37.2,19903],[37.2,19987],[37.2,20070],[37.2,20153],[37.2,20237],[37.2,20320],[37.2,20403],[37.2,20487],[37.2,20569],[37.2,20653],[37.2,20737],[37.2,20820],[37.2,20903],[37.2,20986],[37.2,21070],[37.2,21153],[37.2,21237],[37.2,21320],[37.2,21403],[37.2,21487],[37.2,21570],[37.2,21654],[37.2,21737],[37.2,21819],[37.2,21902],[37.2,21986],[37.2,22070],[37.2,22153],[37.2,22237],[37.2,22320],[37,22403],[32.9,22487],[30.9,22571],[30.6,22654],[25.9,22737],[22.7,22819],[23.4,22904],[28.5,22988],[28.7,23070],[28.7,23153],[28.7,23237],[28.7,23320],[28.7,23404],[28.7,23487],[28.7,23570],[28.7,23654],[28.7,23736],[28.7,23820],[28.7,23904],[28.7,23986],[28.7,24070],[28.7,24154],[28.7,24237],[28.7,24320],[28.7,24403],[31,24486],[37.2,24570],[38.3,24654],[42,24737],[43.5,24820],[44.3,24904],[45.4,24986],[45.4,25070],[45.4,25154],[45.3,25237],[42.7,25321],[41.7,25403],[41.7,25486],[41.7,25570],[38.7,25656],[33.4,25737],[33.4,25820],[33.4,25903],[33.4,25987],[33.4,26070],[33.4,26154],[33.4,26237],[33.4,26320],[33.4,26404],[33.4,26486],[33.4,26570],[33.4,26653],[33.4,26737],[36.6,26821],[36.6,26904],[36.6,26987],[36.6,27071],[36.6,27154],[36.6,27236],[36.6,27320],[36.6,27403],[36.6,27487],[36.6,27570],[36.6,27653],[36.6,27737],[36.6,27819],[36.6,27904],[36.6,27987],[36.6,28070],[36.6,28154],[36.6,28237],[36.6,28319],[36.6,28404],[36.6,28487],[36.6,28571],[36.6,28654],[36.6,28737],[36.6,28820],[36.6,28904],[36.6,28987],[36.6,29070],[36.6,29153],[36.6,29237],[36.6,29321],[36.3,29403],[36.3,29487],[36.3,29570],[36.2,29654],[36.2,29736]]",1,0,542.8944,542.8962,,,[],,,,542.8963,All the time,100,542.8983,,,[],,0,0,0,0,1,audio/Narrative13Situation2.wav,audio/Narrative13Situation2.wav,audio/Narrative13Situation2.wav,audio/Narrative13Situation2.wav,2,2,2,2,,,,,505.5103,510.5436,space,4.5131,,,,,,,,,,,,,,,,,,,,,,,,,,,,,,,
,,,,,,65c14559b08873161332b3a4,2024-02-08_16h03.39.485,group3.1-3.2-social-tom,2023.2.2,MacIntel,59.52380952,65c5074098b851296ff0b7ed,65c54153c9284a8448373432,,,,,,,,,,,,,,,,,,,,,,,,,,,,,542.8985,2,audio/Narrative5Situation1.wav,547.9107,,547.9107,561.2104,[],1,0,561.2106,567.5442,0,5.8243,"[{""rating"":5.989990234374998,""responseTime"":4.341100000008964},{""rating"":0.1289876302083326,""responseTime"":5.256700000002979},{""rating"":0,""responseTime"":5.824299999997038}]",space,5.7948,,567.5443,All the time,100,572.1939,99.6480306,3.7368,"[{""rating"":99.64803059895833,""responseTime"":3.7367999999970607}]",space,0,1,1,1,1,audio/Narrative7Situation1.wav,audio/Narrative8Situation1.wav,audio/Narrative5Situation1.wav,audio/Narrative6Situation1.wav,2,5,5,2,,,4.1176,,,,,,,,,,,,,,,,,,,,,,,,,,,,,,,,,,,,
,,,,,,65c14559b08873161332b3a4,2024-02-08_16h03.39.485,group3.1-3.2-social-tom,2023.2.2,MacIntel,59.52380952,65c5074098b851296ff0b7ed,65c54153c9284a8448373432,,,,,,,,,,,,,,,,,,,,,,,,,,,,,572.1942,2,audio/Narrative5Situation2.wav,575.211,,575.211,604.6787,"[[39.3,20834],[2.3,21083],[2,21167],[1.8,21250],[9.4,21334],[9.5,21417],[9.5,21500],[11.5,21584],[20.2,21667],[22.6,21749],[22.6,21833],[22.6,21917],[22.6,22000],[22.6,22083],[22.6,22167],[22.6,22250],[26.4,22334],[26.4,22417],[26.4,22500],[26.4,22583],[26.3,22667],[25.6,22750],[25.6,22833],[25.6,22917],[25.6,23000],[25.6,23083],[25.6,23167],[25.6,23250],[25.6,23333],[25.6,23417],[25.6,23500],[25.6,23583],[25.6,23666],[25.6,23750],[25.6,23834],[25.6,23917],[25.6,24000],[25.6,24083],[25.6,24167],[25.6,24249],[25.6,24333],[25.6,24417],[25.6,24500],[25.6,24583],[25.6,24667],[25.6,24750],[25.6,24834],[25.6,24917],[25.6,25000],[25.6,25083],[25.6,25167],[25.6,25250],[25.6,25333],[25.6,25417],[25.6,25500],[25.6,25583],[25.6,25667],[25.6,25750],[25.6,25833],[25.6,25917],[25.6,26000],[25.6,26083],[25.6,26167],[25.6,26250],[25.6,26334],[25.6,26417],[25.6,26500],[25.6,26584],[25.6,26667],[25.6,26749],[25.6,26833],[25.6,26917],[25.6,27000],[25.6,27084],[25.6,27167],[25.6,27250],[25.6,27334],[25.6,27417],[25.6,27500],[25.6,27584],[25.6,27666],[25.6,27750],[25.6,27834],[25.6,27917],[25.6,28000],[25.6,28083],[25.6,28166],[25.6,28249],[25.6,28334],[25.6,28417],[25.6,28500],[25.6,28584],[25.6,28667],[25.6,28750],[25.6,28833],[25.6,28917],[25.6,29000],[25.6,29084],[25.6,29167],[25.6,29250],[25.6,29334],[25.6,29417]]",1,0,604.6789,606.7951,25.82438151,1.5407,"[{""rating"":25.824381510416668,""responseTime"":1.5407000000029711}]",space,1.5725,,606.7951,All the time,100,606.7973,,,[],,0,2,2,2,1,audio/Narrative7Situation2.wav,audio/Narrative8Situation2.wav,audio/Narrative5Situation2.wav,audio/Narrative6Situation2.wav,3,3,3,3,,,,,,,,,,,,,,,,,,,,,,,,,,,,,,,,,,,,,,,
,,,,,,65c14559b08873161332b3a4,2024-02-08_16h03.39.485,group3.1-3.2-social-tom,2023.2.2,MacIntel,59.52380952,65c5074098b851296ff0b7ed,65c54153c9284a8448373432,,,,,,,,,,,,,,,,,,,,,,,,,,,,,606.7976,2,audio/Narrative5Situation3.wav,609.8121,,609.8121,623.7281,[],1,0,623.7282,630.7296,29.93693034,5.571,"[{""rating"":29.936930338541668,""responseTime"":5.571000000000026}]",space,6.4678,,630.7297,All the time,100,630.7321,,,[],,0,3,3,3,1,audio/Narrative7Situation3.wav,audio/Narrative8Situation3.wav,audio/Narrative5Situation3.wav,audio/Narrative6Situation3.wav,8,4,3,5,,,,,,,,,,,,,,,,,,,,,,,,,,,,,,,,,,,,,,,
,,,,,,65c14559b08873161332b3a4,2024-02-08_16h03.39.485,group3.1-3.2-social-tom,2023.2.2,MacIntel,59.52380952,65c5074098b851296ff0b7ed,65c54153c9284a8448373432,,,,,,,,,,,,,,,,,,,,,,,,,,,,,630.7323,2,audio/Narrative5Situation4.wav,631.7458,,631.7458,652.1464,"[[999,0],[999,83],[999,166],[999,249],[999,333],[999,416],[999,500],[999,583],[999,666],[999,750],[999,833],[999,916],[999,999],[999,1083],[999,1166],[999,1249],[999,1333],[999,1416],[999,1500],[999,1583],[999,1666],[999,1750],[999,1833],[999,1916],[999,1999],[999,2083],[999,2166],[999,2250],[999,2333],[999,2416],[999,2500],[999,2583],[999,2666],[999,2750],[999,2833],[999,2916],[999,3000],[999,3083],[999,3166],[999,3250],[999,3333],[999,3416],[999,3500],[999,3583],[999,3666],[999,3750],[999,3833],[999,3916],[999,3999],[999,4083],[999,4166],[999,4250],[999,4333],[999,4416],[999,4500],[999,4583],[999,4665],[999,4749],[999,4833],[999,4916],[999,5000],[999,5083],[999,5166],[999,5250],[999,5332],[999,5416],[999,5500],[999,5583],[999,5666],[999,5749],[999,5833],[999,5916],[999,6000],[999,6083],[999,6166],[999,6250],[999,6333],[999,6416],[999,6500],[999,6583],[999,6666],[999,6750],[999,6833],[999,6916],[999,7000],[999,7083],[999,7166],[999,7249],[999,7333],[999,7416],[999,7500],[999,7583],[999,7665],[999,7750],[999,7833],[999,7916],[999,8000],[999,8083],[999,8166],[999,8250],[999,8333],[999,8416],[999,8500],[999,8583],[999,8666],[999,8750],[999,8833],[999,8916],[999,9000],[999,9083],[999,9166],[999,9250],[999,9333],[999,9416],[999,9500],[999,9583],[999,9666],[999,9750],[999,9833],[999,9916],[999,9999],[999,10083],[999,10166],[999,10249],[999,10333],[999,10416],[999,10500],[999,10583],[999,10666],[999,10750],[999,10833],[999,10916],[999,10999],[999,11083],[999,11166],[999,11250],[999,11333],[999,11416],[999,11500],[999,11583],[999,11666],[999,11750],[999,11833],[999,11916],[999,12000],[999,12083],[999,12166],[999,12250],[999,12333],[999,12416],[999,12500],[999,12583],[999,12666],[999,12750],[999,12833],[999,12916],[999,13000],[999,13083],[999,13166],[999,13250],[999,13333],[999,13416],[999,13500],[999,13583],[999,13666],[999,13749],[999,13833],[999,13917],[999,14000],[999,14083],[999,14166],[999,14250],[999,14333],[999,14416],[999,14500],[999,14583],[999,14666],[999,14750],[999,14833],[999,14916],[999,15000],[999,15083],[999,15166],[999,15250],[999,15333],[999,15416],[999,15499],[999,15583],[999,15666],[999,15750],[999,15833],[999,15916],[999,16000],[999,16083],[999,16166],[999,16250],[999,16333],[999,16416],[999,16500],[999,16583],[999,16667],[999,16750],[999,16833],[999,16916],[999,17000],[999,17083],[999,17166],[999,17250],[999,17333],[999,17417],[999,17500],[999,17583],[999,17666],[999,17750],[999,17833],[999,17917],[999,18000],[999,18083],[999,18166],[999,18250],[999,18333],[999,18417],[999,18500],[999,18583],[999,18667],[999,18750],[999,18833],[999,18916],[999,19000],[999,19083],[999,19167],[999,19249],[999,19333],[999,19417],[999,19500],[999,19583],[999,19666],[999,19750],[999,19833],[999,19917],[999,20000],[999,20083],[999,20167],[999,20250],[999,20333]]",1,0,652.1466,654.7631,93.57421875,1.7741,"[{""rating"":93.57421875,""responseTime"":1.7740999999939504}]",space,2.0801,,654.7632,Not at all,0,654.7658,,,[],,0,4,4,4,1,audio/Narrative7Situation4.wav,audio/Narrative8Situation4.wav,audio/Narrative5Situation4.wav,audio/Narrative6Situation4.wav,3,3,1,2,,,,,,,,,,,,,,,,,,,,,,,,,,,,,,,,,,,,,,,
,,,,,,65c14559b08873161332b3a4,2024-02-08_16h03.39.485,group3.1-3.2-social-tom,2023.2.2,MacIntel,59.52380952,65c5074098b851296ff0b7ed,65c54153c9284a8448373432,,,,,,,,,,,,,,,,,,,,,,,,,,,,,654.7661,2,audio/Narrative5Situation5.wav,659.7799,,659.7799,675.2133,"[[999,8],[999,83],[999,166],[999,249],[999,332],[999,416],[999,499],[999,583],[999,666],[999,749],[999,833],[999,916],[999,999],[999,1083],[999,1166],[999,1250],[999,1333],[999,1416],[999,1499],[999,1583],[999,1666],[999,1749],[999,1832],[999,1916],[999,1999],[999,2083],[999,2166],[999,2249],[999,2333],[999,2416],[999,2500],[999,2583],[999,2666],[999,2749],[999,2833],[999,2916],[999,2999],[999,3083],[999,3166],[999,3249],[999,3333],[999,3416],[999,3499],[999,3583],[999,3666],[999,3749],[999,3833],[999,3915],[999,4000],[999,4083],[999,4165],[999,4249],[999,4333],[999,4416],[999,4500],[999,4583],[999,4666],[999,4749],[999,4833],[999,4916],[999,5000],[999,5083],[999,5166],[999,5250],[999,5333],[999,5416],[999,5498],[999,5583],[999,5666],[999,5750],[999,5833],[999,5916],[999,5999],[999,6083],[999,6166],[999,6250],[999,6333],[999,6416],[999,6500],[999,6583],[999,6666],[999,6750],[999,6833],[999,6916],[999,7000],[999,7083],[999,7166],[999,7250],[999,7333],[999,7416],[999,7500],[999,7583],[999,7666],[999,7750],[999,7833],[999,7916],[999,8000],[999,8083],[999,8166],[999,8249],[999,8333],[999,8416],[999,8499],[999,8582],[999,8666],[999,8750],[999,8833],[999,8916],[999,9000],[999,9083],[999,9166],[999,9250],[999,9333],[999,9416],[999,9500],[999,9583],[999,9666],[999,9749],[999,9833],[999,9916],[999,10000],[999,10083],[999,10166],[999,10249],[999,10333],[999,10416],[999,10500],[999,10583],[999,10666],[999,10750],[999,10833],[999,10916],[999,11000],[999,11083],[999,11165],[999,11250],[999,11333],[999,11416],[999,11500],[999,11583],[999,11666],[999,11750],[999,11833],[999,11916],[999,12000],[999,12083],[999,12166],[999,12249],[999,12333],[999,12416],[999,12499],[999,12583],[999,12666],[999,12750],[999,12833],[999,12916],[999,13000],[999,13083],[999,13166],[999,13250],[999,13333],[999,13416],[999,13500],[999,13583],[999,13666],[999,13750],[999,13833],[999,13916],[999,13999],[999,14082],[999,14167],[999,14250],[999,14333],[999,14416],[999,14500],[999,14583],[999,14667],[999,14750],[999,14833],[999,14916],[999,15000],[999,15083],[999,15166],[999,15250],[999,15333],[999,15416]]",1,0,675.2135,679.1132,93.99983724,3.057,"[{""rating"":93.99983723958334,""responseTime"":3.0569999999999027}]",space,3.3677,,679.1132,Half the time,50,679.1163,,,[],,0,5,5,5,1,audio/Narrative7Situation5.wav,audio/Narrative8Situation5.wav,audio/Narrative5Situation5.wav,audio/Narrative6Situation5.wav,5,2,5,2,,,,,,,,,,,,,,,,,,,,,,,,,,,,,,,,,,,,,,,
,,,,,,65c14559b08873161332b3a4,2024-02-08_16h03.39.485,group3.1-3.2-social-tom,2023.2.2,MacIntel,59.52380952,65c5074098b851296ff0b7ed,65c54153c9284a8448373432,,,,,,,,,,,,,,,,,,,,,,,,,,,,,679.1166,2,audio/Narrative5Situation6.wav,682.1304,,682.1304,687.8134,"[[999,8],[999,83],[999,166],[999,250],[999,333],[999,416],[999,500],[999,583],[999,666],[999,749],[999,833],[999,916],[999,999],[999,1083],[999,1166],[999,1249],[999,1333],[999,1416],[999,1499],[999,1583],[999,1666],[999,1749],[999,1833],[999,1916],[999,1999],[999,2083],[999,2166],[999,2249],[999,2333],[999,2416],[999,2499],[999,2583],[999,2666],[999,2749],[999,2832],[999,2916],[999,3003],[999,3083],[999,3166],[999,3249],[999,3333],[999,3416],[999,3500],[999,3583],[999,3666],[999,3750],[999,3833],[999,3916],[999,4000],[999,4083],[999,4166],[999,4250],[999,4333],[999,4416],[999,4500],[999,4582],[999,4666],[999,4750],[999,4833],[999,4916],[999,4999],[999,5083],[999,5166],[999,5249],[999,5333],[999,5416],[999,5500],[999,5583],[999,5666]]",1,0,687.8135,691.9967,0.987548828,3.5306,"[{""rating"":0.9875488281250011,""responseTime"":3.5305999999941378}]",space,3.6512,,691.9967,Half the time,50,691.9992,,,[],,0,6,6,6,1,audio/Narrative7Situation6.wav,audio/Narrative8Situation6.wav,audio/Narrative5Situation6.wav,audio/Narrative6Situation6.wav,3,2,3,2,,,,,,,,,,,,,,,,,,,,,,,,,,,,,,,,,,,,,,,
,,,,,,65c14559b08873161332b3a4,2024-02-08_16h03.39.485,group3.1-3.2-social-tom,2023.2.2,MacIntel,59.52380952,65c5074098b851296ff0b7ed,65c54153c9284a8448373432,,,,,,,,,,,,,,,,,,,,,,,,,,,,,691.9995,2,audio/Narrative5Situation7.wav,696.014,,696.0141,717.0646,"[[77.4,17834],[77.7,17917],[76.1,18000],[76,18083],[74.7,18167],[74.2,18250],[74.1,18333],[74.1,18416],[74.1,18500],[74.1,18583],[74.1,18666],[74.1,18750],[74.1,18833],[74.1,18916],[74.1,19000],[74.1,19083],[74.1,19166],[74.1,19250],[74.1,19333],[74.1,19416],[74.1,19500],[74.1,19583],[74.1,19665],[74.1,19750],[74.1,19833],[74.1,19916],[74.1,20000],[74.1,20083],[74.1,20166],[74.1,20249],[74.1,20333],[74.1,20416],[74.1,20500],[74.1,20583],[74.1,20666],[74.1,20750],[74.1,20833],[74.1,20916],[74.1,20999]]",1,0,717.0647,719.3818,74.09952799,1.6655,"[{""rating"":74.09952799479167,""responseTime"":1.6655000000000655}]",space,1.7674,,719.3819,Not at all,0,719.3852,,,[],,0,7,7,7,1,audio/Narrative7Situation7.wav,audio/Narrative8Situation7.wav,audio/Narrative5Situation7.wav,audio/Narrative6Situation7.wav,5,3,4,5,,,,,,,,,,,,,,,,,,,,,,,,,,,,,,,,,,,,,,,
,,,,,,65c14559b08873161332b3a4,2024-02-08_16h03.39.485,group3.1-3.2-social-tom,2023.2.2,MacIntel,59.52380952,65c5074098b851296ff0b7ed,65c54153c9284a8448373432,,,,,,,,,,,,,,,,,,,,,,,,,,,,,719.3855,2,audio/Narrative5Situation8.wav,722.3977,,722.3978,731.2316,[],1,0,731.2317,734.7983,73.07739258,2.573,"[{""rating"":73.077392578125,""responseTime"":2.572999999999979}]",space,3.0308,,734.7984,Half the time,50,734.8009,,,[],,0,8,8,8,1,audio/Narrative7Situation8.wav,audio/Narrative8Situation8.wav,audio/Narrative5Situation8.wav,audio/Narrative6Situation8.wav,2,3,3,5,,,,,,,,,,,,,,,,,,,,,,,,,,,,,,,,,,,,,,,
,,,,,,65c14559b08873161332b3a4,2024-02-08_16h03.39.485,group3.1-3.2-social-tom,2023.2.2,MacIntel,59.52380952,65c5074098b851296ff0b7ed,65c54153c9284a8448373432,,,,,,,,,,,,,,,,,,,,,,,,,,,,,734.8012,2,audio/Narrative5Situation9.wav,737.814,,737.8141,777.3659,[],1,0,777.366,791.1666,61.67399089,13.1451,"[{""rating"":61.673990885416664,""responseTime"":13.145100000008938}]",space,13.2531,,791.1667,Half the time,50,791.169,,,[],,0,9,9,9,1,audio/Narrative7Situation9.wav,audio/Narrative8Situation9.wav,audio/Narrative5Situation9.wav,audio/Narrative6Situation9.wav,2,3,3,4,,,,,,,,,,,,,,,,,,,,,,,,,,,,,,,,,,,,,,,
,,,,,,65c14559b08873161332b3a4,2024-02-08_16h03.39.485,group3.1-3.2-social-tom,2023.2.2,MacIntel,59.52380952,65c5074098b851296ff0b7ed,65c54153c9284a8448373432,,,,,,,,,,,,,,,,,,,,,,,,,,,,,791.1694,2,audio/Narrative6Situation1.wav,793.1826,,793.1826,819.7502,[],1,0,819.7503,821.4837,79.00553385,1.1113,"[{""rating"":79.00553385416667,""responseTime"":1.1112999999970725}]",space,1.1845,,821.4838,All the time,100,821.4862,,,[],,0,10,10,10,1,audio/Narrative8Situation1.wav,audio/Narrative7Situation1.wav,audio/Narrative6Situation1.wav,audio/Narrative5Situation1.wav,5,2,2,5,,,,,,,,,,,,,,,,,,,,,,,,,,,,,,,,,,,,,,,
,,,,,,65c14559b08873161332b3a4,2024-02-08_16h03.39.485,group3.1-3.2-social-tom,2023.2.2,MacIntel,59.52380952,65c5074098b851296ff0b7ed,65c54153c9284a8448373432,,,,,,,,,,,,,,,,,,,,,,,,,,,,,821.4865,2,audio/Narrative6Situation2.wav,824.5005,,824.5005,853.0178,[],1,0,853.018,858.4013,65.52246094,4.6391,"[{""rating"":65.5224609375,""responseTime"":4.639099999994073}]",space,4.8476,,858.4013,Not at all,0,858.4044,,,[],,0,11,11,11,1,audio/Narrative8Situation2.wav,audio/Narrative7Situation2.wav,audio/Narrative6Situation2.wav,audio/Narrative5Situation2.wav,3,3,3,3,,,,,,,,,,,,,,,,,,,,,,,,,,,,,,,,,,,,,,,
,,,,,,65c14559b08873161332b3a4,2024-02-08_16h03.39.485,group3.1-3.2-social-tom,2023.2.2,MacIntel,59.52380952,65c5074098b851296ff0b7ed,65c54153c9284a8448373432,,,,,,,,,,,,,,,,,,,,,,,,,,,,,858.4046,2,audio/Narrative6Situation3.wav,863.418,,863.4181,876.0349,"[[999,8],[999,83],[999,166],[999,249],[999,333],[999,416],[999,499],[999,583],[999,666],[999,749],[999,832],[999,915],[999,999],[999,1083],[999,1165],[999,1249],[999,1333],[999,1416],[999,1498],[999,1583],[999,1666],[999,1749],[999,1833],[999,1916],[999,1999],[999,2083],[999,2166],[999,2249],[999,2333],[999,2416],[999,2499],[999,2583],[999,2666],[999,2749],[999,2833],[999,2915],[999,2999],[999,3083],[999,3166],[999,3249],[999,3333],[999,3415],[999,3499],[999,3583],[999,3666],[999,3749],[999,3833],[999,3916],[999,4000],[999,4083],[999,4165],[999,4250],[999,4332],[999,4416],[999,4499],[999,4583],[999,4665],[999,4749],[999,4833],[999,4916],[999,4999],[999,5083],[999,5166],[999,5250],[999,5333],[999,5416],[999,5499],[999,5583],[999,5666],[999,5750],[999,5833],[999,5916],[999,5999],[999,6083],[999,6166],[999,6249],[999,6333],[999,6416],[999,6499],[999,6583],[999,6666],[999,6749],[999,6832],[999,6916],[999,7000],[999,7083],[999,7166],[999,7249],[999,7333],[999,7416],[999,7500],[999,7583],[999,7666],[999,7750],[999,7833],[999,7916],[999,8000],[999,8083],[999,8166],[999,8249],[999,8333],[999,8416],[999,8499],[999,8583],[999,8666],[999,8749],[999,8832],[999,8916],[999,8999],[999,9083],[999,9166],[999,9250],[999,9333],[999,9416],[999,9500],[999,9583],[999,9666],[999,9750],[999,9833],[999,9916],[999,10000],[999,10083],[999,10165],[999,10250],[999,10333],[999,10416],[999,10500],[999,10583],[999,10666],[999,10749],[999,10833],[999,10916],[999,11000],[999,11083],[999,11166],[999,11250],[999,11333],[999,11416],[999,11500],[999,11583],[999,11666],[999,11750],[999,11833],[999,11916],[999,12000],[999,12083],[999,12165],[999,12249],[999,12333],[999,12416],[999,12500],[999,12583]]",1,0,876.0351,879.4684,55.43294271,2.2053,"[{""rating"":55.432942708333336,""responseTime"":2.2052999999970098}]",space,2.8847,,879.4685,All the time,100,879.4707,,,[],,0,12,12,12,1,audio/Narrative8Situation3.wav,audio/Narrative7Situation3.wav,audio/Narrative6Situation3.wav,audio/Narrative5Situation3.wav,4,8,5,3,,,,,,,,,,,,,,,,,,,,,,,,,,,,,,,,,,,,,,,
,,,,,,65c14559b08873161332b3a4,2024-02-08_16h03.39.485,group3.1-3.2-social-tom,2023.2.2,MacIntel,59.52380952,65c5074098b851296ff0b7ed,65c54153c9284a8448373432,,,,,,,,,,,,,,,,,,,,,,,,,,,,,879.471,2,audio/Narrative6Situation4.wav,881.485,,881.485,894.1022,[],1,0,894.1024,897.819,16.68294271,2.8267,"[{""rating"":16.682942708333332,""responseTime"":2.8267000000030293}]",space,3.1729,,897.8191,All the time,100,897.8213,,,[],,0,13,13,13,1,audio/Narrative8Situation4.wav,audio/Narrative7Situation4.wav,audio/Narrative6Situation4.wav,audio/Narrative5Situation4.wav,3,3,2,1,,,,,,,,,,,,,,,,,,,,,,,,,,,,,,,,,,,,,,,
,,,,,,65c14559b08873161332b3a4,2024-02-08_16h03.39.485,group3.1-3.2-social-tom,2023.2.2,MacIntel,59.52380952,65c5074098b851296ff0b7ed,65c54153c9284a8448373432,,,,,,,,,,,,,,,,,,,,,,,,,,,,,897.8216,2,audio/Narrative6Situation5.wav,899.8356,,899.8357,907.8024,[],1,0,907.8025,910.3855,31.08398438,2.2122,"[{""rating"":31.083984375,""responseTime"":2.2121999999881155}]",space,2.0468,,910.3856,Not at all,0,910.3879,,,[],,0,14,14,14,1,audio/Narrative8Situation5.wav,audio/Narrative7Situation5.wav,audio/Narrative6Situation5.wav,audio/Narrative5Situation5.wav,2,5,2,5,,,,,,,,,,,,,,,,,,,,,,,,,,,,,,,,,,,,,,,
,,,,,,65c14559b08873161332b3a4,2024-02-08_16h03.39.485,group3.1-3.2-social-tom,2023.2.2,MacIntel,59.52380952,65c5074098b851296ff0b7ed,65c54153c9284a8448373432,,,,,,,,,,,,,,,,,,,,,,,,,,,,,910.3881,2,audio/Narrative6Situation6.wav,912.4024,,912.4025,923.4862,[],1,0,923.4863,938.7526,41.02010091,14.1726,"[{""rating"":41.020100911458336,""responseTime"":14.172599999994077}]",space,14.721,,938.7528,Not at all,0,938.7549,,,[],,0,15,15,15,1,audio/Narrative8Situation6.wav,audio/Narrative7Situation6.wav,audio/Narrative6Situation6.wav,audio/Narrative5Situation6.wav,2,3,2,3,,,,,,,,,,,,,,,,,,,,,,,,,,,,,,,,,,,,,,,
,,,,,,65c14559b08873161332b3a4,2024-02-08_16h03.39.485,group3.1-3.2-social-tom,2023.2.2,MacIntel,59.52380952,65c5074098b851296ff0b7ed,65c54153c9284a8448373432,,,,,,,,,,,,,,,,,,,,,,,,,,,,,938.7553,2,audio/Narrative6Situation7.wav,943.7703,,943.7703,968.637,"[[999,9],[999,82],[999,166],[999,248],[999,332],[999,416],[999,498],[999,582],[999,666],[999,748],[999,833],[999,916],[999,999],[999,1082],[999,1165],[999,1249],[999,1331],[999,1415],[999,1499],[999,1581],[999,1666],[999,1749],[999,1833],[999,1916],[999,1999],[999,2081],[999,2165],[999,2248],[999,2332],[999,2416],[999,2498],[999,2582],[999,2666],[999,2749],[999,2832],[999,2916],[999,2999],[999,3082],[999,3166],[999,3249],[999,3332],[999,3416],[999,3499],[999,3582],[999,3666],[999,3749],[999,3832],[999,3916],[999,3999],[999,4082],[999,4165],[999,4249],[999,4332],[999,4416],[999,4499],[999,4582],[999,4666],[999,4749],[999,4832],[999,4915],[999,4998],[999,5082],[999,5166],[999,5249],[999,5332],[999,5416],[999,5498],[999,5581],[999,5665],[999,5749],[999,5831],[999,5916],[999,5999],[999,6082],[999,6165],[999,6249],[999,6331],[999,6416],[999,6498],[999,6582],[999,6666],[999,6749],[999,6832],[999,6915],[999,6999],[999,7082],[999,7166],[999,7249],[999,7332],[999,7416],[999,7499],[999,7582],[999,7666],[999,7749],[999,7832],[999,7916],[999,7998],[999,8082],[999,8166],[999,8248],[999,8332],[999,8416],[999,8499],[999,8582],[999,8666],[999,8749],[999,8832],[999,8915],[999,8999],[999,9082],[999,9166],[999,9249],[999,9332],[999,9416],[999,9499],[999,9582],[999,9666],[999,9749],[999,9833],[999,9916],[999,9998],[999,10082],[999,10165],[999,10250],[999,10333],[999,10416],[999,10499],[999,10583],[999,10666],[999,10748],[999,10832],[999,10915],[999,10999],[999,11083],[999,11166],[999,11248],[999,11333],[999,11416],[999,11499],[999,11583],[999,11665],[999,11749],[999,11833],[999,11915],[999,11999],[999,12082],[999,12166],[999,12249],[999,12333],[999,12415],[999,12500],[999,12583],[999,12666],[999,12749],[999,12833],[999,12916],[999,12999],[999,13083],[999,13166],[999,13249],[999,13332],[999,13416],[999,13498],[999,13582],[999,13666],[999,13749],[999,13833],[999,13915],[999,13999],[999,14083],[999,14166],[999,14249],[999,14333],[999,14416],[999,14499],[999,14583],[999,14666],[999,14749],[999,14833],[999,14915],[999,15000],[999,15083],[999,15166],[999,15249],[999,15333],[999,15416],[999,15499],[999,15583],[999,15666],[999,15749],[999,15833],[999,15915],[999,15999],[999,16083],[999,16166],[999,16248],[999,16333],[999,16416],[999,16499],[999,16583],[999,16666],[999,16748],[999,16832],[999,16916],[999,16999],[999,17083],[999,17166],[999,17249],[999,17332],[999,17416],[999,17499],[999,17583],[999,17666],[999,17748],[999,17833],[999,17916],[999,17999],[999,18083],[999,18165],[999,18249],[999,18333],[999,18416],[999,18498],[999,18583],[999,18666],[999,18749],[999,18833],[999,18916],[999,18999],[999,19083],[999,19166],[999,19250],[999,19333],[999,19416],[999,19500],[999,19583],[999,19666],[999,19749],[999,19833],[999,19916],[999,19999],[999,20082],[999,20165],[999,20249],[999,20333],[999,20415],[999,20499],[999,20582],[999,20666],[999,20749],[999,20832],[999,20916],[999,21000],[999,21083],[999,21166],[999,21250],[999,21333],[999,21416],[999,21500],[999,21583],[999,21666],[999,21749],[999,21833],[999,21916],[999,21999],[999,22082],[999,22166],[999,22249],[999,22332],[999,22416],[999,22499],[999,22582],[999,22666],[999,22749],[999,22833],[999,22916],[999,23000],[999,23083],[999,23165],[999,23250],[999,23333],[999,23416],[999,23500],[999,23583],[999,23666],[999,23750],[999,23832],[999,23916],[999,23999],[999,24082],[999,24166],[999,24249],[999,24333],[999,24416],[999,24499],[999,24583],[999,24666],[999,24750],[999,24832]]",1,0,968.6372,971.9874,22.49471029,2.3786,"[{""rating"":22.494710286458336,""responseTime"":2.378599999994094}]",space,2.8019,,971.9876,All the time,100,971.991,,,[],,0,16,16,16,1,audio/Narrative8Situation7.wav,audio/Narrative7Situation7.wav,audio/Narrative6Situation7.wav,audio/Narrative5Situation7.wav,3,5,5,4,,,,,,,,,,,,,,,,,,,,,,,,,,,,,,,,,,,,,,,
,,,,,,65c14559b08873161332b3a4,2024-02-08_16h03.39.485,group3.1-3.2-social-tom,2023.2.2,MacIntel,59.52380952,65c5074098b851296ff0b7ed,65c54153c9284a8448373432,,,,,,,,,,,,,,,,,,,,,,,,,,,,,971.9914,2,audio/Narrative6Situation8.wav,977.003,,977.003,983.8543,"[[999,8],[999,84],[999,166],[999,250],[999,334],[999,417],[999,500],[999,584],[999,666],[999,749],[999,833],[999,917],[999,1000],[999,1084],[999,1167],[999,1250],[999,1334],[999,1417],[999,1500],[999,1584],[999,1667],[999,1750],[999,1834],[999,1917],[999,2000],[999,2084],[999,2166],[999,2250],[999,2334],[999,2417],[999,2500],[999,2584],[999,2667],[999,2750],[999,2833],[999,2916],[999,3000],[999,3084],[999,3167],[999,3250],[999,3333],[999,3416],[999,3500],[999,3583],[999,3667],[999,3751],[999,3834],[999,3916],[999,4000],[999,4084],[999,4167],[999,4250],[999,4334],[999,4416],[999,4500],[999,4584],[999,4667],[999,4750],[999,4834],[999,4917],[999,5000],[999,5084],[999,5167],[999,5251],[999,5334],[999,5417],[999,5501],[999,5584],[999,5666],[999,5751],[999,5834],[999,5917],[999,6000],[999,6084],[999,6167],[999,6251],[999,6334],[999,6417],[999,6500],[999,6584],[999,6667],[999,6750],[999,6834]]",1,0,983.8544,988.421,43.14412435,3.5571,"[{""rating"":74.241943359375,""responseTime"":2.612099999993916},{""rating"":60.328776041666664,""responseTime"":3.1072999999969397},{""rating"":43.144124348958336,""responseTime"":3.5570999999940796}]",space,4.017,,988.4211,All the time,100,988.4231,,,[],,0,17,17,17,1,audio/Narrative8Situation8.wav,audio/Narrative7Situation8.wav,audio/Narrative6Situation8.wav,audio/Narrative5Situation8.wav,3,2,5,3,,,,,,,,,,,,,,,,,,,,,,,,,,,,,,,,,,,,,,,
,,,,,,65c14559b08873161332b3a4,2024-02-08_16h03.39.485,group3.1-3.2-social-tom,2023.2.2,MacIntel,59.52380952,65c5074098b851296ff0b7ed,65c54153c9284a8448373432,,,,,,,,,,,,,,,,,,,,,,,,,,,,,988.4234,2,audio/Narrative6Situation9.wav,992.4367,,992.4367,1002.3709,"[[999,8],[999,84],[999,167],[999,250],[999,333],[999,417],[999,500],[999,583],[999,667],[999,750],[999,833],[999,917],[999,1000],[999,1083],[999,1167],[999,1250],[999,1334],[999,1416],[999,1500],[999,1584],[999,1667],[999,1750],[999,1834],[999,1916],[999,2000],[999,2083],[999,2166],[999,2250],[999,2334],[999,2417],[999,2500],[999,2583],[999,2667],[999,2750],[999,2834],[999,2917],[999,3000],[999,3083],[999,3167],[999,3250],[999,3333],[999,3417],[999,3500],[999,3584],[999,3667],[999,3750],[999,3833],[999,3917],[999,4000],[999,4084],[999,4167],[999,4250],[999,4334],[999,4417],[999,4500],[999,4583],[999,4667],[999,4751],[999,4834],[999,4917],[999,5001],[999,5083],[999,5166],[999,5250],[999,5334],[999,5416],[999,5500],[999,5583],[999,5667],[999,5751],[999,5834],[999,5917],[999,6000],[999,6084],[999,6167],[999,6250],[999,6333],[999,6416],[999,6500],[999,6584],[999,6667],[999,6751],[999,6834],[999,6917],[999,7001],[999,7084],[999,7166],[999,7250],[999,7334],[999,7417],[999,7501],[999,7584],[999,7667],[999,7751],[999,7834],[999,7916],[999,8000],[999,8084],[999,8168],[999,8250],[999,8334],[999,8416],[999,8500],[999,8583],[999,8667],[999,8751],[999,8834],[999,8917],[999,9001],[999,9084],[999,9166],[999,9251],[999,9333],[999,9417],[999,9501],[999,9584],[999,9666],[999,9750],[999,9834],[999,9917]]",1,0,1002.371,1006.5882,53.18074544,3.2452,"[{""rating"":53.180745442708336,""responseTime"":3.245200000003024}]",space,3.6717,,1006.5884,Half the time,50,1006.592,,,[],,0,18,18,18,1,audio/Narrative8Situation9.wav,audio/Narrative7Situation9.wav,audio/Narrative6Situation9.wav,audio/Narrative5Situation9.wav,3,2,4,3,,,,,,,,,,,,,,,,,,,,,,,,,,,,,,,,,,,,,,,
,,,,,,65c14559b08873161332b3a4,2024-02-08_16h03.39.485,group3.1-3.2-social-tom,2023.2.2,MacIntel,59.52380952,65c5074098b851296ff0b7ed,65c54153c9284a8448373432,,,,,,,,,,,,,,,,,,,,,,,,,,,,,,,,,,,,,,,,,,,,,,,,,,,,,,,,,,,,,,,,,,,,,,,,1006.5923,1023.6723,space,16.5558,0.0003,1023.6732,1032.2391,space,8.2343,,,,,,,,,,,,,,,,,,,,,,,,,,
,,,,,,65c14559b08873161332b3a4,2024-02-08_16h03.39.485,group3.1-3.2-social-tom,2023.2.2,MacIntel,59.52380952,65c5074098b851296ff0b7ed,65c54153c9284a8448373432,,,,,,,,,,,,,,,,,,,,,,,,,,,,,1034.8374,1,audio/Narrative8Situation9.wav,1036.8387,,,,,,,1068.6924,1071.3897,62.61515299,1.0344,"[{""rating"":62.615152994791664,""responseTime"":1.0344000000061442}]",space,2.1608,,1068.6904,Half the time,50,1068.6924,,,[],,,,,,,,,,,2,2,2,2,,,,,,,,,,,,,,,1032.2518,1034.8223,1036.8391,3,1068.6901,"[[999,0],[999,82],[999,166],[999,249],[999,332],[999,416],[999,499],[999,581],[999,666],[999,749],[999,831],[999,916],[999,999],[999,1082],[999,1166],[999,1248],[999,1332],[999,1416],[999,1499],[999,1583],[999,1666],[999,1750],[999,1832],[999,1916],[999,1999],[999,2082],[999,2165],[999,2249],[999,2332],[999,2416],[999,2499],[999,2582],[999,2666],[999,2748],[999,2832],[999,2916],[999,2999],[999,3082],[999,3166],[999,3249],[999,3332],[999,3416],[999,3499],[999,3582],[999,3666],[999,3749],[999,3832],[999,3916],[999,3999],[999,4082],[999,4166],[999,4249],[999,4332],[999,4416],[999,4499],[999,4582],[999,4666],[999,4749],[999,4832],[999,4916],[999,4999],[999,5083],[999,5166],[999,5249],[999,5332],[999,5416],[999,5499],[999,5582],[999,5666],[999,5749],[999,5833],[999,5915],[999,5999],[999,6082],[999,6166],[999,6249],[999,6332],[999,6416],[999,6499],[999,6582],[999,6666],[999,6750],[999,6832],[999,6916],[999,7000],[30.2,7083],[29.5,7166],[29.5,7249],[28,7332],[27.4,7416],[27.4,7499],[27.4,7582],[27.4,7665],[27.4,7749],[27.4,7833],[27.3,7915],[28.7,8000],[28.7,8082],[28.8,8166],[29,8249],[29,8333],[29,8416],[29,8499],[29,8582],[29,8666],[29,8749],[29,8832],[29,8916],[29,8999],[29,9083],[29,9166],[29,9249],[29,9332],[29,9416],[29,9499],[29,9582],[29,9666],[29,9749],[29,9833],[29,9916],[29,9999],[29,10083],[29,10166],[29,10249],[29,10332],[29,10415],[29,10499],[29,10583],[29,10666],[29,10749],[29,10833],[29,10915],[29,10999],[29,11082],[29,11165],[29,11249],[29,11333],[29,11416],[29,11499],[29,11583],[29,11666],[29,11749],[29,11832],[29,11916],[29,11999],[29,12083],[29,12166],[29,12249],[29,12333],[29,12416],[29,12499],[29,12582],[29,12665],[29,12749],[29,12833],[29,12916],[29,12999],[29,13082],[29,13166],[29,13249],[29,13333],[29,13416],[29,13499],[29,13583],[29,13666],[29,13749],[29,13833],[29,13916],[29,13999],[29,14082],[29,14166],[29,14249],[29,14332],[29,14416],[29,14499],[29,14583],[29,14666],[29,14749],[29,14832],[29,14916],[29,14999],[29,15083],[29,15166],[29,15249],[29,15332],[29,15416],[29,15499],[29,15582],[29,15665],[29,15749],[29,15833],[29,15916],[29,16000],[29,16083],[29,16166],[29,16250],[29,16332],[29,16416],[29,16499],[29,16582],[29,16666],[29,16750],[29,16833],[29,16915],[29,16999],[29,17082],[29,17166],[29,17249],[29,17333],[29,17416],[29,17499],[29,17583],[29,17666],[29,17749],[29,17832],[29,17916],[29,17999],[29,18083],[29,18166],[29,18249],[29,18332],[29,18416],[29,18499],[29,18582],[29,18666],[29,18750],[29,18833],[29,18916],[29.5,18999],[30,19082],[30.4,19166],[36.9,19250],[40.3,19332],[41.5,19417],[43.3,19500],[48.2,19583],[51.7,19666],[54.1,19750],[55,19833],[55.2,19916],[57.2,20000],[60.4,20083],[60.4,20166],[60.4,20250],[60.4,20333],[60.4,20416],[60.4,20500],[60.4,20583],[60.4,20666],[60.4,20750],[60.4,20832],[60.4,20916],[60.4,21000],[60.4,21082],[60.5,21166],[60.6,21250],[60.6,21333],[60.6,21416],[60.6,21500],[60.6,21582],[60.6,21666],[60.6,21750],[60.6,21833],[60.6,21916],[60.6,22000],[60.6,22083],[60.6,22166],[60.6,22250],[60.6,22332],[60.6,22416],[60.6,22500],[60.6,22582],[60.6,22666],[60.6,22750],[60.6,22833],[60.6,22916],[60.6,23000],[60.6,23083],[60.6,23166],[60.6,23250],[60.6,23332],[60.6,23416],[60.6,23500],[60.6,23583],[60.6,23666],[60.6,23749],[60.6,23832],[60.6,23916],[59.3,24000],[59.1,24083],[56.9,24167],[55.7,24249],[54.7,24333],[54.7,24416],[54.7,24500],[54.7,24583],[54.6,24666],[54.6,24750],[54.6,24833],[54.6,24916],[54.6,25000],[54.6,25083],[54.6,25166],[54.6,25250],[54.6,25333],[54.6,25416],[54.6,25500],[54.6,25583],[54.6,25666],[54.6,25750],[54.6,25833],[54.6,25916],[54.6,26000],[54.6,26083],[54.6,26166],[54.6,26249],[54.6,26333],[54.6,26416],[54.6,26500],[55.4,26583],[55.7,26667],[56.2,26750],[57,26832],[58.4,26916],[58.7,27000],[59.2,27083],[59.6,27165],[59.7,27250],[59.7,27333],[59.7,27416],[59.9,27500],[59.9,27582],[59.9,27666],[59.9,27750],[59.9,27833],[59.9,27916],[59.9,28000],[60.5,28084],[60.7,28166],[61.5,28249],[61.5,28332],[61.5,28416],[61.5,28500],[61.6,28583],[61.6,28666],[61.6,28750],[61.6,28833],[61.6,28916],[61.6,29000],[61.6,29082],[61.6,29166],[61.6,29250],[61.6,29333],[61.6,29416],[61.6,29500],[61.6,29583],[61.6,29666],[61.6,29749],[61.6,29833],[61.6,29916],[61.6,30000],[61.7,30083],[61.7,30166],[61.7,30250],[61.6,30332],[61.6,30416],[61.6,30500],[61.6,30583],[61.8,30666],[61.8,30750],[61.8,30833],[61.8,30916],[61.8,31000],[62.7,31084],[63.7,31167],[64.4,31249],[64.4,31332],[64.4,31416],[65.2,31500],[65.4,31583],[65.5,31666],[65.5,31750],[65.6,31833]]",0,0,0,0,1,"Larry had recently lost his family, job and home, and was now living on his own in the park. He had most of his belongings, including some clothes, a blanket, and his mother’s special necklace. His family had been very important to him and he felt as though he did not have much going for him. One of his first days in the park he came across a family that did not have much food and looked very cold. He decided to give them some of his food and his blanket.","Larry had recently lost his family, job and home, and was now living on his own in the park. He had most of his belongings, including some clothes, a blanket, and his mother’s special necklace. His family had been very important to him and he felt as though he did not have much going for him. One of his first days in the park he came across a family that did not have much food and looked very cold. He decided to give them some of his food and his blanket.","Larry had recently lost his family, job and home, and was now living on his own in the park. He had most of his belongings, including some clothes, a blanket, and his mother’s special necklace. His family had been very important to him and he felt as though he did not have much going for him. One of his first days in the park he came across a family that did not have much food and looked very cold. He decided to give them some of his food and his blanket.","Larry had recently lost his family, job and home, and was now living on his own in the park. He had most of his belongings, including some clothes, a blanket, and his mother’s special necklace. His family had been very important to him and he felt as though he did not have much going for him. One of his first days in the park he came across a family that did not have much food and looked very cold. He decided to give them some of his food and his blanket.",,,,,,,,,,
,,,,,,65c14559b08873161332b3a4,2024-02-08_16h03.39.485,group3.1-3.2-social-tom,2023.2.2,MacIntel,59.52380952,65c5074098b851296ff0b7ed,65c54153c9284a8448373432,,,,,,,,,,,,,,,,,,,,,,,,,,,,,1071.3904,1,audio/Narrative8Situation9.wav,1073.8235,space,,,,,,1109.7904,1117.7244,34.1410319,6.7362,"[{""rating"":41.31144205729167,""responseTime"":6.163500000000113},{""rating"":34.141031901041664,""responseTime"":6.736200000003009}]",space,7.404,,1107.3408,Half the time,50,1109.7903,32.72379557,1.4074,"[{""rating"":32.72379557291667,""responseTime"":1.407400000005964}]",space,,,,,,,,,,6,2,3,9,2.4153,,1.9022,,,,,,,,,,,,,,1073.8236,3,1107.3406,"[[999,12],[999,82],[999,166],[999,248],[999,332],[999,416],[999,498],[999,582],[999,665],[47.7,749],[38.4,832],[25.3,915],[23,999],[23,1082],[23.2,1165],[23.2,1249],[23.2,1332],[23.2,1415],[23.2,1499],[23.2,1582],[23.2,1665],[23,1748],[8.2,1832],[2.6,9665],[6.4,9749],[9.8,9832],[9.9,9914],[10,9999],[10.1,10082],[10.1,10166],[10.1,10249],[10.1,10332],[10.1,10416],[10.1,10498],[10.1,10582],[10.1,10665],[10.1,10749],[10.1,10832],[10.1,10915],[10.1,10999],[10.1,11082],[10.1,11165],[10.1,11248],[10.1,11332],[10.1,11416],[10.1,11499],[10.1,11582],[10.1,11666],[10.1,11749],[10.1,11832],[10.1,11915],[10.1,11999],[10.1,12082],[10.1,12166],[10.1,12249],[10.1,12332],[10.1,12416],[10.1,12499],[10.1,12582],[10.1,12666],[10.1,12749],[14.4,12833],[16,12916],[16,12999],[17.4,13083],[19.3,13166],[19.3,13249],[19.3,13332],[19.3,13416],[19.3,13499],[19.3,13582],[19.3,13666],[19.3,13749],[19.3,13832],[19.3,13915],[19.3,13999],[19.3,14082],[19.3,14166],[19.3,14249],[19.3,14332],[19.3,14416],[19.3,14499],[19.3,14582],[19.3,14666],[19.3,14749],[19.3,14832],[19.3,14915],[19.3,14999],[19.3,15082],[19.3,15166],[19.3,15249],[19.3,15332],[19.3,15416],[19.3,15499],[19.3,15582],[19.3,15665],[19.3,15749],[19.3,15832],[19.3,15916],[19.3,15999],[19.3,16082],[19.3,16165],[19.3,16249],[19.3,16332],[19.3,16416],[19.3,16498],[19.3,16582],[19.3,16666],[19.3,16749],[19.3,16832],[19.3,16916],[19.3,16999],[19.3,17082],[19.3,17166],[19.3,17249],[19.8,17332],[20.9,17416],[21.4,17500],[22.6,17583],[24.1,17666],[24.1,17750],[24.7,17833],[24.9,17916],[25,17999],[25,18082],[25,18166],[25,18249],[25,18332],[25,18416],[25,18499],[25,18582],[25,18666],[25,18749],[25,18832],[25,18916],[25,18999],[25,19082],[25,19165],[25,19249],[25,19332],[25,19416],[25,19499],[25,19582],[25,19666],[25,19749],[25,19832],[25,19916],[25,19999],[25,20082],[25,20166],[25,20249],[25,20332],[25,20416],[25,20498],[25,20583],[25,20665],[25,20749],[25,20832],[25,20916],[25,20999],[25,21082],[25,21166],[25,21249],[25,21333],[25,21416],[25,21499],[25,21582],[25,21666],[25,21748],[25,21833],[25,21916],[25,21999],[25,22083],[25,22166],[25,22249],[25,22333],[25,22416],[25,22499],[25,22583],[25,22666],[25,22749],[25,22833],[25,22916],[25,22999],[25,23082],[25,23166],[25,23249],[25,23332],[25,23416],[25,23499],[25,23583],[25,23666],[25,23749],[25,23833],[25,23916],[25,23999],[25,24083],[25,24166],[25,24249],[25,24333],[25,24416],[25,24499],[25,24583],[25,24666],[25,24749],[25,24832],[25,24916],[25,24998],[25,25082],[25,25166],[25,25249],[25,25333],[25,25416],[25,25499],[25,25583],[25,25666],[25,25749],[25,25833],[25,25916],[25,25999],[25,26083],[25,26166],[25,26249],[25,26333],[25,26416],[25,26499],[25,26582],[25,26666],[25,26749],[25,26833],[25,26916],[25,26999],[27.4,27083],[29.3,27166],[30.2,27250],[30.3,27333],[30.3,27416],[30.3,27499],[30.3,27582],[30.3,27666],[30.3,27750],[30.3,27833],[30.3,27916],[30.3,27999],[30.3,28083],[29.9,28166],[29.7,28250],[29.6,28333],[29.4,28416],[28.9,28500],[28.1,28583],[27.4,28666],[27.2,28750],[26.9,28833],[26.4,28916],[26.4,28999],[26.4,29083],[26.1,29166],[25.9,29250],[25.9,29333],[25.9,29416],[25.9,29499],[25.9,29583],[26.4,29667],[28.1,29750],[29.4,29833],[30.3,29916],[30.9,30000],[31.2,30083],[31.5,30166],[32,30250],[32.4,30333],[32.4,30416],[32.4,30500],[32.4,30583],[32.4,30666],[32.4,30749],[32.4,30833],[32.4,30915],[32.4,30999],[32.5,31083],[32.5,31166],[32.5,31250],[32.5,31332],[32.5,31416],[32.5,31500],[32.5,31583],[32.5,31666],[32.5,31750],[32.5,31833],[32.5,31916],[32.5,31999],[32.5,32083],[32.5,32166],[32.5,32250],[32.5,32333],[32.5,32416],[32.5,32500],[32.5,32583],[32.5,32666],[32.5,32750],[32.5,32833],[32.5,32916],[32.5,32999],[32.5,33083],[32.5,33166],[32.5,33250],[32.5,33332],[32.5,33416],[32.5,33500]]",0,1,1,1,1,"It was just another Sunday afternoon for Lucy, she was on her way to the farmer's market to pick up some produce. When she arrived at the old train depot that housed the market, she noticed two men fighting on the steps. Before she could call for help, one of the men crumpled to his knees. The other man dropped an object that appeared to be a knife and ran off. When Lucy approached the crime scene she realized that the man who had been murdered was the Mayor and that he had a gunshot wound.","One day at work, Margaret walked up to her partner, Al, to ask him to talk to the chief of staff at the local hospital where she worked as a nurse.","Luke always thought of himself as an honest man. That's why during his evening jog around the swamp, he pondered his recent affair with the receptionist at work. Luke looked up at the sky and asked God why he was so weak and unfaithful. He thought of the impact this would have on his family and told God of his conflicted feelings toward telling his wife Marta.","Linda and Amy had been best friends since kindergarten, they even found homes on the same street in the forest on the edge of town. Their biggest fight had been over who gets the bigger slice of cake, until Amy married Dan. Linda loathed Dan, she thought he was manipulative and had a violent temper. She only put up with him because Amy loved him. ",,,,,,,,,,
,,,,,,65c14559b08873161332b3a4,2024-02-08_16h03.39.485,group3.1-3.2-social-tom,2023.2.2,MacIntel,59.52380952,65c5074098b851296ff0b7ed,65c54153c9284a8448373432,,,,,,,,,,,,,,,,,,,,,,,,,,,,,1117.7251,1,audio/Narrative8Situation9.wav,1121.7408,,,,,,,1140.269,1142.708,35.79630534,1.3124,"[{""rating"":35.796305338541664,""responseTime"":1.3123999999911575}]",space,1.9046,,1140.2582,All the time,100,1140.269,,,[],,,,,,,,,,,4,5,2,2,,,,,,,,,,,,,,,,,1121.7409,3,1140.2581,"[[999,9],[999,83],[999,166],[999,249],[999,333],[999,416],[999,499],[999,583],[999,666],[999,750],[999,833],[999,916],[999,999],[999,1083],[999,1166],[999,1249],[999,1333],[999,1416],[999,1499],[999,1583],[999,1666],[999,1749],[999,1833],[999,1916],[999,2000],[999,2083],[999,2166],[999,2248],[999,2333],[999,2415],[999,2499],[999,2583],[999,2666],[999,2750],[999,2833],[999,2916],[999,2999],[999,3083],[999,3166],[999,3249],[999,3333],[999,3416],[999,3499],[999,3582],[999,3666],[999,3749],[999,3833],[999,3916],[999,3999],[999,4083],[999,4166],[999,4249],[999,4333],[999,4416],[999,4499],[999,4582],[999,4666],[999,4749],[999,4833],[999,4916],[999,4999],[999,5083],[999,5166],[999,5249],[999,5333],[999,5416],[999,5498],[999,5583],[999,5666],[999,5749],[999,5833],[999,5915],[999,5999],[999,6082],[999,6166],[999,6249],[999,6333],[999,6415],[999,6499],[999,6582],[999,6666],[999,6749],[999,6832],[999,6916],[999,6999],[999,7083],[999,7166],[999,7249],[999,7333],[999,7416],[999,7500],[999,7583],[999,7666],[999,7749],[999,7833],[999,7916],[999,7999],[999,8083],[999,8166],[999,8250],[999,8333],[999,8416],[999,8499],[999,8582],[999,8666],[999,8749],[999,8832],[999,8916],[999,8999],[999,9083],[999,9166],[999,9250],[999,9333],[999,9416],[999,9499],[999,9583],[999,9666],[999,9749],[999,9833],[999,9916],[999,10000],[999,10083],[999,10166],[999,10249],[999,10333],[999,10415],[999,10499],[999,10583],[999,10666],[999,10750],[999,10833],[999,10916],[999,11000],[999,11083],[999,11166],[999,11249],[999,11333],[999,11416],[999,11499],[999,11582],[999,11666],[999,11750],[999,11833],[999,11916],[999,11999],[999,12083],[999,12166],[999,12250],[999,12333],[999,12416],[999,12499],[999,12583],[999,12666],[999,12749],[999,12833],[999,12916],[999,13000],[999,13083],[999,13166],[999,13250],[999,13333],[999,13416],[999,13500],[999,13583],[999,13666],[999,13749],[999,13832],[999,13916],[999,14000],[999,14083],[999,14166],[999,14250],[999,14333],[999,14416],[999,14500],[999,14583],[999,14666],[999,14750],[999,14833],[999,14916],[999,15000],[999,15083],[999,15166],[999,15250],[999,15332],[999,15416],[999,15500],[999,15583],[999,15666],[999,15750],[999,15833],[999,15916],[999,16000],[999,16083],[999,16166],[999,16250],[999,16333],[999,16416],[999,16500],[999,16583],[999,16666],[999,16749],[999,16833],[999,16916],[999,17000],[999,17083],[999,17166],[999,17250],[999,17333],[999,17416],[999,17500],[999,17583],[999,17666],[999,17750],[999,17833],[999,17916],[999,18000],[999,18083],[999,18166],[999,18249],[999,18333],[999,18416],[999,18500]]",0,2,2,2,1,On the ground beside him was a pen that she had mistaken for a knife. Lucy looked for the gunman and saw a suspicious man in black with distinct pointy features darting into an alley across the street. Cops who were nearby chased the man who had fled and arrested him.,"While waiting outside the chief of staff's office, Al heard nondescript shouting and yelling, there was a loud clatter in the room and then an eerie silence. An unfamiliar employee ran hastily out of the office with a terrified look on their face.","Suddenly, Luke heard a woman call out his name and when he turned around he saw Carly, his receptionist, across the road with a gun in her hand. Carly ran to him and explained how she had followed him here to confess her love. She exclaimed if Luke didn't love her back that she would kill him and his family. Carly explained that the only way they could be together is to kill Marta.","This feeling of hate between Amy and Dan was mutual, Dan didn't like how much time his wife spent with her and thought Amy was creating distance between their marriage. That's why Dan decided to try and tarnish Linda's reputation with his wife, in hopes it would get rid of her. He came home one afternoon and exclaimed that Linda had tried to kiss him. Amy was taken aback and immediately called Linda to confront her about these accusations. When Linda arrived she denied having made a move on Dan, but discovered Dan had enlisted the help of his friend Will who said he witnessed it all happen.",,,,,,,,,,
,,,,,,65c14559b08873161332b3a4,2024-02-08_16h03.39.485,group3.1-3.2-social-tom,2023.2.2,MacIntel,59.52380952,65c5074098b851296ff0b7ed,65c54153c9284a8448373432,,,,,,,,,,,,,,,,,,,,,,,,,,,,,1142.7086,1,audio/Narrative8Situation9.wav,1144.7248,,,,,,,1156.5773,1158.3252,58.49853516,0.8526,"[{""rating"":58.49853515625,""responseTime"":0.8526000000088061}]",space,1.2012,,1156.5746,Not at all,0,1156.5773,,,[],,,,,,,,,,,2,2,1,4,,,,,,,,,,,,,,,,,1144.7248,3,1156.5745,"[[999,0],[999,83],[35.7,1166],[39.5,1248],[41.5,1333],[46.1,1416],[47.9,1499],[47.9,1583],[47.9,1666],[47.9,1749],[48,1832],[47.9,1916],[47.8,1999],[47.8,2082],[47.8,2166],[47.8,2249],[47.4,2333],[47.4,2416],[47.4,2499],[47.4,2583],[47.4,2665],[47.4,2750],[47.4,2832],[47.4,2916],[47.3,2999],[47.3,3083],[47.3,3166],[47.3,3249],[47.3,3333],[47.3,3416],[47.3,3499],[47.3,3583],[47.3,3666],[47.3,3750],[46.1,3833],[43.4,3916],[38.7,4000],[37.5,4083],[36.3,4166],[34.5,4250],[33,4333],[33,4416],[32.8,4500],[32.6,4583],[32,4666],[31.9,4748],[31.9,4833],[31.8,4916],[31.8,4999],[32.1,5083],[32.4,5167],[32.4,5248],[32.4,5333],[32.4,5415],[32.5,5500],[32.5,5583],[32.5,5666],[32.5,5749],[32.5,5833],[32.5,5916],[32.5,5999],[32.5,6083],[32.5,6166],[32.5,6249],[32.5,6333],[32.5,6416],[32.5,6499],[32.5,6583],[32.5,6666],[32.5,6749],[32.5,6833],[32.5,6915],[32.5,6998],[32.5,7083],[32.5,7166],[32.5,7249],[32.5,7333],[32.5,7415],[32.5,7500],[32.5,7583],[32.5,7666],[32.5,7749],[32.5,7833],[32.5,7916],[32.5,7999],[32.5,8083],[32.5,8166],[32.5,8249],[32.5,8332],[32.5,8416],[32.5,8498],[32.5,8583],[32.5,8666],[32.5,8750],[32.5,8832],[32.5,8915],[32.5,8999],[32.5,9083],[32.5,9165],[32.9,9249],[32.9,9331],[32.9,9416],[32.4,9499],[31.1,9583],[30.4,9665],[30.2,9748],[31.3,9833],[31.9,9916],[32.9,9999],[33.8,10082],[35.2,10167],[37,10250],[37,10333],[37.2,10417],[38,10499],[40.5,10583],[47.2,10666],[53.1,10750],[55.2,10832],[55.5,10917],[57.5,11000],[58.7,11082],[58.7,11166],[58.7,11249],[58.5,11333],[58.5,11416],[58.5,11499],[58.5,11583],[58.5,11666],[58.5,11749],[58.5,11832]]",0,3,3,3,1,"But Lucy knew the charged man was innocent, which meant the killer was free. Lucy vowed to find out who the real murderer was and to stop him at all costs.","Al explained to the chief of staff that Margaret wanted to be excused from her absences last week. The chief of staff, Susan, revealed that she wanted to fire Margaret and never see her again. Susan and Al had been having an affair and she wanted Margaret ""out of the picture"". Al was conflicted, but agreed it would be for the best.","Luke thought of his child and felt like this was his only option. He agreed to the plan and called his wife to meet him at the swamp to watch the sunset with him. When she arrived, Marta called out for her husband, but found Carly waiting for her. She immediately drew her gun and shot her in the chest, knocking her unconscious.","Since it was their word against her own, she decided to go home and admit defeat. She knew how much it would hurt Amy to know the truth.",,,,,,,,,,
,,,,,,65c14559b08873161332b3a4,2024-02-08_16h03.39.485,group3.1-3.2-social-tom,2023.2.2,MacIntel,59.52380952,65c5074098b851296ff0b7ed,65c54153c9284a8448373432,,,,,,,,,,,,,,,,,,,,,,,,,,,,,1158.3256,1,audio/Narrative8Situation9.wav,1159.3417,,,,,,,1188.8606,1190.4423,68.83300781,0.8354,"[{""rating"":68.8330078125,""responseTime"":0.8354000000060751}]",space,1.046,,1188.8591,Not at all,0,1188.8606,,,[],,,,,,,,,,,1,1,3,3,,,,,,,,,,,,,,,,,1159.3418,3,1188.8591,"[[59.6,8665],[59.6,8749],[59.6,8832],[58.5,8916],[59.9,9000],[59.9,9083],[60.4,9166],[65,9250],[65,9333],[65.2,9416],[65.3,9500],[65.5,9582],[65.5,9666],[65.5,9749],[65.5,9833],[65.5,9916],[65.7,10000],[66.3,10083],[66.6,10166],[66.9,10250],[67.1,10332],[67.1,10415],[67.1,10500],[67.1,10582],[67.1,10665],[67.1,10749],[67.1,10832],[67.1,10915],[67.1,11000],[67.1,11083],[67.1,11166],[67.1,11250],[67.5,11332],[67.8,11416],[67.9,11500],[68.2,11582],[68.2,11665],[68.2,11750],[68.2,11833],[68.2,11916],[68.2,12000],[68.2,12082],[68.2,12165],[68.2,12249],[68.2,12333],[68.2,12416],[68.2,12500],[68.2,12583],[68.2,12666],[68.2,12750],[68.2,12832],[68.2,12915],[68.2,13000],[68.2,13082],[68.2,13165],[68.2,13250],[68.2,13332],[68.2,13415],[68.2,13500],[68.2,13583],[68.2,13666],[68.2,13750],[68.2,13833],[68.2,13916],[68.2,13999],[68.2,14083],[68.2,14165],[68.2,14249],[68.2,14333],[68.2,14415],[68.2,14499],[68.2,14583],[68.2,14665],[68.2,14750],[68.2,14833],[68.2,14916],[68.2,14999],[68.2,15082],[68.2,15166],[68.2,15250],[68.2,15332],[68.2,15416],[68.2,15500],[68.2,15582],[68.2,15666],[68.2,15750],[68.2,15832],[68.2,15916],[68.2,16000],[68.2,16083],[68.2,16166],[68.2,16250],[68.2,16332],[68.2,16415],[68.2,16499],[68.2,16582],[68.2,16666],[68.2,16750],[68.2,16833],[68.2,16915],[68.2,17000],[68.2,17082],[68.2,17166],[68.2,17250],[68.2,17333],[68.2,17416],[68.2,17499],[68.2,17583],[68.2,17666],[68.2,17749],[68.2,17833],[68.2,17916],[68.2,17999],[68.2,18083],[68.2,18166],[68.2,18250],[68.2,18333],[68.2,18416],[68.2,18499],[68.2,18583],[68.2,18666],[68.2,18750],[68.2,18833],[68.2,18916],[68.2,19000],[68.2,19083],[68.2,19166],[68.2,19250],[68.2,19332],[68.2,19416],[68.2,19499],[68.2,19582],[68.2,19666],[68.2,19750],[68.2,19832],[68.2,19916],[68.2,19999],[68.2,20083],[68.2,20166],[68.2,20249],[68.2,20333],[68.2,20415],[68.2,20500],[68.2,20583],[68.2,20665],[68.2,20749],[68.2,20833],[68.2,20916],[68.2,20999],[68.2,21082],[68.2,21166],[68.2,21249],[68.2,21333],[68.2,21415],[68.2,21499],[68.2,21583],[68.2,21665],[68.2,21750],[68.2,21833],[68.2,21916],[68.2,21999],[68.2,22082],[68.2,22166],[68.2,22250],[68.2,22332],[68.2,22416],[68.2,22500],[68.2,22583],[68.2,22666],[68.2,22750],[68.2,22833],[68.2,22916],[68.2,23000],[68.2,23082],[68.2,23166],[68.2,23250],[68.2,23333],[68.2,23416],[68.2,23500],[68.2,23583],[68.2,23666],[68.2,23750],[68.2,23833],[68.2,23916],[68.2,23999],[68.2,24083],[68.2,24166],[68.2,24249],[68.2,24332],[68.2,24416],[68.2,24500],[68.2,24583],[68.2,24666],[68.2,24750],[68.2,24832],[68.2,24915],[68.2,25000],[68.2,25082],[68.2,25166],[68.2,25249],[68.2,25333],[68.2,25416],[68.2,25500],[68.2,25583],[68.2,25665],[68.2,25750],[68.2,25833],[68.2,25915],[68.2,25999],[68.2,26083],[68.2,26166],[68.2,26249],[68.2,26333],[68.2,26416],[68.2,26500],[68.2,26583],[68.2,26666],[68.2,26749],[68.2,26832],[68.2,26916],[68.2,27000],[68.2,27082],[68.2,27166],[68.2,27249],[68.2,27333],[68.2,27415],[68.2,27500],[68.2,27583],[68.2,27667],[68.2,27750],[68.2,27833],[68.2,27916],[68.2,27999],[68.2,28082],[68.2,28166],[68.2,28249],[68.2,28333],[68.2,28416],[68.9,28500],[68.9,28583],[68.9,28667],[68.9,28750],[68.9,28833],[68.9,28917],[68.9,28999],[68.9,29083],[68.9,29166],[68.9,29249],[68.9,29332],[68.9,29416],[68.9,29499]]",0,4,4,4,1,"The next day the mayors successor, Mr. Smith, a man who was very unpopular due to his strong ties to the oil companies, took office. After a long day of brainstorming about the mysterious killer, Lucy decided to attend his welcome ceremony in the city. During the mayor's speech, she noticed one of the security guards looked strangely familiar. It dawned on her that this new mayor had motive to kill and that the man in black could've been the guard working for him.","Weeks passed and nobody had seen Margaret. Coworkers and friends searched the nearby city looking for her. One day on patrol in a nearby town, a police officer heard someone crying for help in the basement of a house and went in to investigate. Margaret yelled that she was being held captive and needed help.","Luke ran to Marta, and filled with regret over his decision to go along with Carly's plan, picked her up and rushed her to the hospital. The doctors tried to help Marta by taking her into emergency surgery but failed to save her life. Once the doctor called the time of death, Luke fell to his knees and sobbed over his rash decision.","Months later Dan had taken up a mistress, he was growing bored with his marriage ever since he got rid of Linda and was only still with Amy for her family's money. In a hotel room in a nearby town, Dan and his mistress, Nicole, conspired to secretly kill Amy while still obtaining her fortune.",,,,,,,,,,
,,,,,,65c14559b08873161332b3a4,2024-02-08_16h03.39.485,group3.1-3.2-social-tom,2023.2.2,MacIntel,59.52380952,65c5074098b851296ff0b7ed,65c54153c9284a8448373432,,,,,,,,,,,,,,,,,,,,,,,,,,,,,1190.4427,1,audio/Narrative8Situation9.wav,1193.459,,,,,,,1209.9789,1212.2429,63.68693034,1.4288,"[{""rating"":63.68693033854167,""responseTime"":1.4287999999969543}]",space,1.7234,,1209.9761,Half the time,50,1209.9789,,,[],,,,,,,,,,,3,1,3,3,,,,,,,,,,,,,,,,,1193.4591,3,1209.976,"[[70.5,15000],[71.4,15082],[69.2,15166],[63.7,15250],[63.4,15333],[63.3,15416],[63.3,15499],[63.3,15583],[63,15667],[63,15750],[63,15832],[63,15915],[63,16000],[63,16083],[63,16166],[63,16250],[63,16333],[63,16416],[63,16500]]",0,5,5,5,1,"Lucy decided to confront the mayor after his ceremony. But when she tried to accuse him, the security guards threatened to hurt her if she went to the police with her theory. Before she could say another word a man pulled her from the crowd.","In a rush, the police officer broke down the door and was attacked by a man in the house. Without hesitation, the officer shot the man and the man fell to the floor.","He then saw Marta's brother Zach enter the hospital. Zach ran over to Luke and punched him. Zach screamed at Luke that it's his fault his sister is dead and that he knew about the affair. Luke quickly tried to explain that he felt horrible about Marta's death and that Carly had manipulated him into going along with her plan. Zach, still angry at his brother-in-law, realized his mistake in judgement and shifted his anger toward Carly.","They decided to have Dan invite her to the hotel room under the guise of a romantic date. Once she arrived, Nicole was there to tie her up. Once she was secured to a chair, Nicole demanded Amy's bank passwords. Amy obliged and gave her access to her bank accounts.",,,,,,,,,,
