exp_question,consent.started,consent.stopped,consentResponse.keys,consentResponse.rt,consentResponse.duration,participantID,date,expName,psychopyVersion,OS,frameRate,STUDY_ID,SESSION_ID,opening1.started,opening1.stopped,keyEndingOpening1.keys,keyEndingOpening1.rt,keyEndingOpening1.duration,volumeAdjust.started,volumeAdjust.stopped,endingAdjust.keys,endingAdjust.rt,endingAdjust.duration,opening2.started,opening2.stopped,keyEndingOpening.keys,keyEndingOpening.rt,keyEndingOpening.duration,mouse.x,mouse.y,mouse.leftButton,mouse.midButton,mouse.rightButton,mouse.time,instructionLoop.thisRepN,instructionLoop.thisTrialN,instructionLoop.thisN,instructionLoop.thisIndex,instructionLoop.ran,readyForAudio.started,readyForAudio.stopped,fixation.started,run,audio_played,fixation.stopped,endPractice.keys,audioPre.started,audioPre.stopped,continuousResponses_audio,continuousSlider.response,continuousSlider.rt,intRating.started,intRating.stopped,intQuestionSlider.response,intQuestionSlider.rt,intQuestionSlider.history,confirmResponse.keys,confirmResponse.rt,confirmResponse.duration,catchQuestion.started,catch_label,catch_value,catchQuestion.stopped,catchQuestionSlider.response,catchQuestionSlider.rt,catchQuestionSlider.history,confirmResponse_2.keys,audioRunLoop.thisRepN,audioRunLoop.thisTrialN,audioRunLoop.thisN,audioRunLoop.thisIndex,audioRunLoop.ran,conditions1_1,conditions2_1,conditions1_2,conditions2_2,dur1_1,dur2_1,dur1_2,dur2_2,endPractice.rt,endPractice.duration,confirmResponse_2.rt,confirmResponse_2.duration,runIntervalBreak.started,runIntervalBreak.stopped,endingBreakKey.keys,endingBreakKey.rt,endingBreakKey.duration,connection.started,connection.stopped,connectionEnding.keys,connectionEnding.rt,connectionEnding.duration,readyForText.started,readyForText.stopped,textPre.started,run_dup,textPre.stopped,continuousResponses_text,textRunLoop.thisRepN,textRunLoop.thisTrialN,textRunLoop.thisN,textRunLoop.thisIndex,textRunLoop.ran,text1_1,text1_2,text2_1,text2_2,runBreakText.started,runBreakText.stopped,endingBreakKey_2.keys,endingBreakKey_2.rt,endingBreakKey_2.duration,ending.started,ending.stopped,endingEnding.keys,endingEnding.rt,endingEnding.duration
tom,0.0003,42.2226,y,41.8866,,65c243c37e0d77ca70ee030e,2024-05-13_11h45.22.265,group3.1-3.2-social-tom,2023.2.2,Win32,62.89308176,65c5074098b851296ff0b7ed,664233c3ed0e515ac8e302e5,,,,,,,,,,,,,,,,,,,,,,,,,,,,,,,,,,,,,,,,,,,,,,,,,,,,,,,,,,,,,,,,,,,,,,,,,,,,,,,,,,,,,,,,,,,,,,,,,,,,,,,,,,
,,,,,,65c243c37e0d77ca70ee030e,2024-05-13_11h45.22.265,group3.1-3.2-social-tom,2023.2.2,Win32,62.89308176,65c5074098b851296ff0b7ed,664233c3ed0e515ac8e302e5,42.223,47.0711,space,4.8211,,,,,,,,,,,,,,,,,,,,,,,,,,,,,,,,,,,,,,,,,,,,,,,,,,,,,,,,,,,,,,,,,,,,,,,,,,,,,,,,,,,,,,,,,,,,,,,,,,,,,,
,,,,,,65c243c37e0d77ca70ee030e,2024-05-13_11h45.22.265,group3.1-3.2-social-tom,2023.2.2,Win32,62.89308176,65c5074098b851296ff0b7ed,664233c3ed0e515ac8e302e5,,,,,,47.0712,61.0879,space,13.6836,,,,,,,,,,,,,,,,,,,,,,,,,,,,,,,,,,,,,,,,,,,,,,,,,,,,,,,,,,,,,,,,,,,,,,,,,,,,,,,,,,,,,,,,,,,,,,,,,
,,,,,,65c243c37e0d77ca70ee030e,2024-05-13_11h45.22.265,group3.1-3.2-social-tom,2023.2.2,Win32,62.89308176,65c5074098b851296ff0b7ed,664233c3ed0e515ac8e302e5,,,,,,,,,,,61.1099,69.2869,space,8.1538,,[],[],[],[],[],[],0,0,0,0,1,,,,,,,,,,,,,,,,,,,,,,,,,,,,,,,,,,,,,,,,,,,,,,,,,,,,,,,,,,,,,,,,,,,,,,,,,,,,,,,,
,,,,,,65c243c37e0d77ca70ee030e,2024-05-13_11h45.22.265,group3.1-3.2-social-tom,2023.2.2,Win32,62.89308176,65c5074098b851296ff0b7ed,664233c3ed0e515ac8e302e5,,,,,,,,,,,69.298,86.6686,space,17.2792,,[],[],[],[],[],[],1,0,1,0,1,,,,,,,,,,,,,,,,,,,,,,,,,,,,,,,,,,,,,,,,,,,,,,,,,,,,,,,,,,,,,,,,,,,,,,,,,,,,,,,,
,,,,,,65c243c37e0d77ca70ee030e,2024-05-13_11h45.22.265,group3.1-3.2-social-tom,2023.2.2,Win32,62.89308176,65c5074098b851296ff0b7ed,664233c3ed0e515ac8e302e5,,,,,,,,,,,86.6862,102.5008,space,15.7769,,[],[],[],[],[],[],2,0,2,0,1,,,,,,,,,,,,,,,,,,,,,,,,,,,,,,,,,,,,,,,,,,,,,,,,,,,,,,,,,,,,,,,,,,,,,,,,,,,,,,,,
,,,,,,65c243c37e0d77ca70ee030e,2024-05-13_11h45.22.265,group3.1-3.2-social-tom,2023.2.2,Win32,62.89308176,65c5074098b851296ff0b7ed,664233c3ed0e515ac8e302e5,,,,,,,,,,,102.5174,116.9676,space,14.4236,,[],[],[],[],[],[],3,0,3,0,1,,,,,,,,,,,,,,,,,,,,,,,,,,,,,,,,,,,,,,,,,,,,,,,,,,,,,,,,,,,,,,,,,,,,,,,,,,,,,,,,
,,,,,,65c243c37e0d77ca70ee030e,2024-05-13_11h45.22.265,group3.1-3.2-social-tom,2023.2.2,Win32,62.89308176,65c5074098b851296ff0b7ed,664233c3ed0e515ac8e302e5,,,,,,,,,,,116.9839,127.0993,space,10.099,,[],[],[],[],[],[],4,0,4,0,1,,,,,,,,,,,,,,,,,,,,,,,,,,,,,,,,,,,,,,,,,,,,,,,,,,,,,,,,,,,,,,,,,,,,,,,,,,,,,,,,
,,,,,,65c243c37e0d77ca70ee030e,2024-05-13_11h45.22.265,group3.1-3.2-social-tom,2023.2.2,Win32,62.89308176,65c5074098b851296ff0b7ed,664233c3ed0e515ac8e302e5,,,,,,,,,,,,,,,,,,,,,,,,,,,127.1183,129.699,129.7128,1,audio/Narrative13Situation2.wav,131.7161,,131.7163,161.4818,"[[999,1],[999,99],[999,182],[999,265],[999,349],[999,432],[999,515],[999,598],[999,682],[999,765],[999,849],[999,932],[999,1015],[999,1098],[999,1182],[999,1265],[999,1349],[999,1432],[999,1515],[999,1599],[999,1682],[999,1765],[999,1848],[999,1932],[999,2015],[999,2098],[999,2182],[999,2265],[999,2349],[999,2432],[999,2515],[999,2599],[999,2682],[999,2765],[999,2848],[999,2932],[999,3015],[999,3099],[999,3182],[49.8,3265],[49.6,3349],[49.5,3432],[49.4,3516],[49.1,3599],[49.1,3682],[49.1,3765],[49.1,3848],[49.1,3932],[49.3,4015],[49.3,4098],[49.3,4181],[49.3,4265],[49.3,4348],[49.3,4432],[49.3,4515],[49.3,4598],[49.7,4682],[50.9,4766],[52.4,4849],[53.8,4932],[55.4,5015],[57.3,5099],[59.5,5182],[61.6,5265],[63.1,5349],[64.6,5432],[66.3,5515],[68.6,5598],[70.6,5682],[71.6,5766],[72.1,5849],[72.7,5932],[72.9,6015],[73.1,6098],[73.1,6181],[73.1,6266],[73.1,6348],[73.1,6431],[73.1,6515],[73.1,6598],[73.1,6681],[73.1,6765],[73.1,6848],[73.1,6932],[73.1,7015],[73.1,7098],[73.1,7181],[73.1,7265],[73.1,7348],[73.1,7431],[74.9,7515],[77.8,7598],[79.8,7682],[81.5,7765],[82.3,7849],[82.6,7931],[83.8,8015],[84.4,8098],[84.4,8181],[84.4,8265],[84.4,8348],[84.4,8431],[84.4,8515],[84.4,8598],[84.4,8681],[84.4,8765],[84.4,8848],[84.4,8931],[84.4,9015],[84.4,9098],[84.4,9181],[84.4,9265],[84.4,9348],[84.4,9431],[84.4,9515],[84.4,9598],[84.4,9681],[84.4,9765],[84.4,9848],[84.4,9931],[84.4,10015],[84.4,10098],[84.4,10181],[84.4,10265],[84.4,10348],[84.4,10431],[84.4,10515],[84.4,10598],[84.4,10681],[84.4,10765],[84.4,10849],[84.4,10931],[84.4,11015],[84.4,11098],[84.4,11181],[84.4,11265],[84.4,11348],[84,11440],[83.5,11515],[83.3,11598],[82.7,11682],[82.1,11765],[80.9,11848],[79.2,11931],[76.6,12015],[73.6,12098],[71.7,12182],[70.6,12265],[69.9,12348],[69.3,12431],[68.8,12514],[68.3,12598],[68,12681],[67.7,12764],[67.6,12848],[67.6,12931],[67.6,13014],[67.6,13098],[67.6,13181],[67.6,13264],[67.6,13348],[67.6,13431],[67.6,13514],[67.6,13598],[67.6,13681],[67.6,13764],[67.6,13848],[67.6,13931],[67.6,14014],[67.6,14098],[67.6,14181],[67.6,14264],[67.6,14348],[67.6,14431],[67.6,14515],[67.6,14598],[67.6,14681],[69.8,14765],[74.2,14848],[78.3,14931],[81.3,15015],[82.4,15098],[82.5,15181],[82.5,15264],[82.5,15348],[82.5,15431],[82.5,15514],[82.5,15598],[82.5,15681],[82.5,15764],[82.5,15848],[82.5,15931],[82.5,16014],[82.5,16098],[82.5,16181],[82.6,16264],[82.6,16348],[82.6,16431],[82.6,16514],[82.7,16598],[82.8,16681],[82.9,16764],[83.1,16848],[83.5,16931],[83.9,17014],[84.3,17098],[84.5,17181],[84.7,17265],[84.9,17348],[85.1,17431],[85.2,17514],[85.3,17597],[85.3,17681],[85.5,17764],[85.7,17848],[85.7,17931],[85.7,18014],[85.8,18098],[85.8,18181],[85.8,18264],[85.8,18347],[85.8,18431],[85.8,18514],[85.8,18597],[85.8,18681],[85.8,18764],[85.8,18847],[85.8,18931],[85.8,19014],[85.8,19097],[85.8,19181],[85.8,19264],[85.8,19348],[85.8,19431],[85.8,19514],[85.8,19597],[85.8,19681],[85.8,19764],[85.8,19848],[85.8,19931],[85.8,20014],[85.8,20097],[85.8,20181],[86.4,20264],[88.2,20348],[89.4,20431],[90.2,20514],[90.5,20597],[90.5,20681],[90.6,20764],[91.5,20848],[92.2,20931],[92.2,21014],[92.3,21098],[92.5,21181],[92.5,21264],[92.5,21347],[92.5,21431],[92.5,21514],[92.5,21597],[92.5,21681],[92.5,21764],[92.5,21847],[92.5,21931],[92.5,22014],[93.2,22097],[94.5,22181],[95.7,22264],[97.2,22347],[98,22431],[98,22514],[98,22597],[98,22681],[98.2,22764],[100,22847],[100,22931],[100,23014],[100,23097],[100,23181],[100,23264],[100,23347],[100,23430],[100,23514],[100,23597],[100,23680],[100,23764],[100,23847],[100,23931],[100,24014],[100,24097],[100,24180],[100,24264],[100,24347],[100,24430],[100,24514],[100,24597],[100,24680],[100,24764],[100,24847],[100,24930],[100,25014],[100,25097],[100,25180],[100,25264],[100,25347],[100,25431],[100,25514],[100,25597],[100,25680],[100,25764],[100,25847],[100,25930],[100,26013],[100,26097],[100,26181],[100,26264],[100,26347],[100,26430],[100,26513],[100,26597],[100,26680],[100,26764],[100,26847],[100,26930],[100,27014],[100,27097],[100,27180],[100,27263],[100,27347],[100,27430],[100,27514],[100,27597],[100,27680],[100,27764],[100,27848],[100,27930],[100,28013],[100,28097],[100,28180],[100,28263],[100,28347],[100,28430],[100,28513],[100,28597],[100,28680],[100,28763],[100,28847],[100,28931],[100,29013],[100,29097],[100,29180],[100,29264],[100,29347],[100,29430],[100,29514],[99.7,29597],[99.5,29680],[98.6,29764]]",1,0,161.4831,167.5645,86.45833333,3.8623,"[{""rating"":86.45833333333333,""responseTime"":3.862299999952313}]",space,5.5347,,167.5652,Not at all,0,167.5735,,,[],,0,0,0,0,1,audio/Narrative13Situation2.wav,audio/Narrative13Situation2.wav,audio/Narrative13Situation2.wav,audio/Narrative13Situation2.wav,2,2,2,2,,,,,,,,,,,,,,,,,,,,,,,,,,,,,,,,,,,,,,,
,,,,,,65c243c37e0d77ca70ee030e,2024-05-13_11h45.22.265,group3.1-3.2-social-tom,2023.2.2,Win32,62.89308176,65c5074098b851296ff0b7ed,664233c3ed0e515ac8e302e5,,,,,,,,,,,,,,,,,,,,,,,,,,,,,167.574,1,audio/Narrative7Situation1.wav,192.6118,space,192.6119,248.5098,"[[999,2],[999,83],[999,166],[999,249],[999,333],[999,416],[999,499],[999,583],[999,666],[999,749],[999,833],[999,916],[999,999],[999,1083],[999,1166],[999,1249],[999,1333],[999,1416],[999,1499],[999,1583],[999,1667],[999,1749],[999,1833],[999,1916],[999,1999],[999,2083],[999,2167],[999,2250],[999,2333],[59.7,2416],[59.1,2500],[58.8,2583],[59.3,2666],[63.2,2749],[64,2833],[64.6,2916],[65.1,2999],[65.1,3082],[65.1,3166],[65.1,3249],[65.1,3333],[65.1,3416],[65.1,3499],[65.1,3583],[65.1,3666],[65.1,3749],[65.1,3833],[65.1,3916],[65.1,3999],[66,4083],[66,4166],[66,4249],[66,4332],[66,4416],[66,4499],[66,4583],[66,4666],[66,4749],[66,4832],[66,4916],[66,4999],[66,5083],[66,5166],[66.5,5250],[66.8,5332],[68,5416],[71.7,5500],[75.4,5583],[77.7,5666],[80,5750],[81,5833],[81.4,5916],[81.5,5999],[81.5,6082],[81.5,6166],[81.5,6249],[81.5,6332],[81.5,6416],[81.5,6499],[81.5,6582],[81.5,6666],[81.5,6749],[81.5,6832],[81.5,6915],[81.5,6999],[81.5,7082],[81.5,7166],[81.5,7249],[81.5,7333],[81.5,7415],[81.5,7499],[81.5,7582],[81.5,7666],[81.5,7749],[81.5,7832],[81.5,7915],[81.5,7999],[81.5,8082],[81.5,8166],[81.5,8249],[81.5,8332],[81.5,8415],[81.5,8499],[81.5,8582],[81.5,8665],[81.5,8749],[81.5,8832],[81.5,8915],[81.5,8999],[81.5,9082],[81.5,9166],[81.5,9249],[81.5,9332],[81.5,9416],[83,9505],[84,9582],[84,9666],[84,9749],[84,9832],[84,9915],[84,9999],[84,10082],[84,10166],[84,10249],[83.8,10332],[77.1,10416],[70.4,10499],[70.1,10582],[70.1,10665],[70.1,10749],[70.1,10832],[70.1,10915],[70.1,10999],[70.1,11082],[70.1,11165],[70.1,11249],[70.1,11332],[70.1,11415],[70.1,11499],[70.1,11583],[70.1,11666],[70.1,11749],[70.1,11833],[70.1,11915],[70.1,11999],[70.1,12082],[70.1,12165],[70.1,12249],[70.1,12332],[70.1,12415],[70.1,12499],[70.1,12582],[70.1,12665],[70.1,12749],[70.1,12832],[70.1,12915],[70.1,12998],[70.1,13082],[70.1,13165],[70.1,13249],[70.1,13332],[70.1,13415],[70.1,13498],[70.1,13582],[70.1,13665],[70.1,13749],[70.1,13832],[70.1,13915],[70.1,13999],[70.1,14082],[70.1,14165],[70.1,14249],[70.1,14332],[70.7,14416],[72.1,14499],[74.5,14582],[77.1,14665],[79.8,14749],[82.7,14832],[85.4,14915],[86.7,14999],[88,15082],[89.8,15165],[91.1,15248],[91.8,15332],[92.6,15415],[93.4,15498],[94.2,15582],[94.3,15665],[94.6,15748],[94.9,15832],[94.9,15915],[95,15998],[95,16082],[95,16165],[95,16248],[95,16332],[95,16415],[95,16498],[95,16581],[95,16665],[95,16748],[95,16831],[95,16915],[95,16998],[95,17082],[95,17165],[95,17248],[95,17331],[95,17414],[95,17498],[95,17581],[95,17665],[95,17748],[95,17831],[95,17915],[95,17998],[95,18081],[95,18165],[95,18248],[95,18331],[95,18415],[95,18498],[95,18582],[95,18665],[95,18748],[95,18831],[95,18915],[95,18998],[95,19081],[95,19165],[95,19248],[95,19335],[95,19415],[95,19498],[95,19581],[95,19665],[95,19748],[95,19831],[95,19915],[95,19998],[95,20082],[95,20165],[95,20248],[95,20331],[95,20415],[95,20499],[95,20581],[95,20665],[95,20748],[95,20831],[95,20915],[95,20998],[95,21081],[95,21165],[95,21248],[95,21332],[95,21415],[95,21498],[95,21581],[95,21665],[95,21748],[95,21831],[95,21915],[95,21998],[95,22081],[95,22165],[95,22248],[95,22331],[95,22415],[95,22498],[95,22581],[95,22665],[95,22748],[95,22831],[95,22914],[95,22998],[95,23081],[95,23164],[95,23248],[95,23331],[95,23415],[95,23498],[95,23581],[95,23665],[94.9,23748],[94.8,23831],[94.8,23915],[94.8,23998],[94.8,24081],[94.8,24164],[94.8,24248],[94.8,24331],[94.6,24415],[94.6,24498],[94.6,24581],[94.6,24665],[94.6,24748],[94.6,24831],[94.6,24914],[94.9,24998],[96.4,25081],[97.1,25164],[97.3,25248],[98,25331],[98.6,25415],[99,25498],[99.2,25581],[99.3,25664],[99.3,25748],[99.3,25831],[99.5,25915],[99.7,25998],[99.8,26081],[100,26165],[100,26248],[100,26331],[100,26415],[100,26498],[100,26581],[100,26664],[100,26748],[100,26831],[100,26914],[100,26997],[100,27081],[100,27165],[100,27248],[100,27331],[100,27415],[100,27498],[100,27581],[100,27665],[100,27748],[100,27831],[100,27914],[100,27997],[100,28081],[100,28164],[100,28248],[100,28331],[100,28414],[99.2,28497],[98.1,28581],[96.6,28664],[95.7,28747],[95.1,28831],[94,28915],[92.3,28998],[90.7,29081],[89.6,29165],[89.3,29248],[89,29331],[88.6,29414],[88.3,29497],[88,29581],[88,29664],[88,29747],[88,29831],[88,29914],[88,29997],[88,30081],[88,30164],[88,30247],[88,30331],[88,30414],[88,30497],[88,30581],[88,30664],[88,30748],[88,30831],[88,30914],[88,30997],[88,31081],[88,31164],[88,31247],[88,31331],[88,31414],[88,31497],[88,31581],[88,31664],[88,31747],[88,31831],[88,31914],[88,31997],[88,32080],[88,32164],[88,32247],[88,32330],[88,32414],[88,32497],[88,32581],[87.5,32664],[87.4,32747],[87.2,32831],[86.5,32914],[85.7,32997],[85.3,33081],[84.9,33164],[84.3,33248],[84,33330],[84,33414],[84,33497],[84,33581],[84,33664],[84,33747],[84,33830],[84,33914],[84,33997],[84,34081],[84,34164],[84,34247],[84,34330],[84,34414],[84,34497],[84,34581],[84,34664],[83.5,34747],[83.3,34830],[83.3,34914],[83.3,34997],[83.3,35080],[83.3,35164],[83.3,35247],[83.3,35330],[83.3,35414],[83.3,35497],[83.3,35580],[83.3,35664],[83.3,35747],[83,35831],[82.8,35914],[82.7,35997],[82.5,36080],[82.3,36164],[82.3,36247],[82.3,36331],[82.3,36414],[82.3,36497],[82.3,36581],[82.3,36663],[82.3,36748],[82.3,36831],[82.3,36914],[82.3,36997],[82.3,37081],[82.3,37164],[82.3,37247],[82.3,37331],[82.3,37414],[82.3,37497],[82.3,37581],[82.3,37664],[82.3,37747],[82.3,37830],[82.3,37913],[82.3,37997],[82.3,38080],[82.4,38164],[82.5,38247],[82.6,38330],[83,38414],[84,38497],[84.9,38581],[86.3,38664],[87.7,38747],[89.3,38830],[90.5,38914],[92.4,38997],[94.3,39080],[95.6,39164],[96,39247],[96,39330],[96.1,39414],[96.1,39497],[96.1,39581],[96.1,39664],[96.1,39747],[96.1,39830],[96.1,39914],[96.1,39997],[96.1,40080],[96.1,40163],[96.1,40247],[96.1,40330],[96.1,40414],[96.1,40497],[96.1,40581],[96.1,40663],[96.1,40747],[96.1,40831],[96.1,40914],[96.1,40997],[96.1,41081],[96.1,41163],[96.1,41247],[96.1,41330],[96.1,41413],[96.1,41497],[96.1,41581],[96.1,41663],[96.1,41747],[96.1,41830],[96.1,41914],[96.1,41997],[96.1,42080],[96.1,42163],[96.1,42247],[96.1,42330],[96.1,42413],[97.4,42497],[97.8,42580],[98.6,42664],[99.4,42747],[100,42831],[100,42914],[100,42997],[100,43080],[100,43163],[100,43247],[100,43330],[100,43413],[100,43497],[100,43580],[100,43663],[100,43747],[100,43830],[100,43913],[100,43997],[100,44080],[100,44163],[100,44247],[100,44330],[100,44414],[100,44497],[100,44580],[100,44663],[100,44747],[100,44830],[100,44913],[100,44997],[100,45080],[100,45163],[100,45247],[100,45330],[100,45413],[100,45497],[100,45581],[100,45663],[100,45746],[100,45830],[100,45913],[100,45997],[100,46080],[100,46163],[100,46246],[100,46330],[100,46413],[100,46496],[100,46580],[100,46664],[100,46747],[100,46830],[100,46914],[100,46996],[100,47080],[100,47163],[100,47247],[100,47330],[100,47413],[100,47496],[100,47580],[100,47663],[100,47747],[100,47830],[100,47913],[100,47996],[100,48080],[100,48163],[100,48246],[100,48330],[100,48413],[100,48496],[100,48580],[100,48663],[100,48746],[100,48830],[100,48913],[100,48996],[100,49080],[100,49163],[100,49247],[100,49330],[100,49413],[100,49496],[100,49580],[100,49663],[100,49746],[100,49829],[100,49913],[100,49996],[100,50080],[100,50163],[100,50246],[100,50330],[100,50413],[100,50496],[100,50579],[100,50663],[100,50746],[100,50830],[100,50913],[100,50996],[100,51080],[100,51163],[100,51246],[100,51330],[100,51413],[100,51496],[100,51579],[100,51663],[100,51746],[100,51829],[100,51913],[100,51996],[100,52079],[100,52163],[100,52246],[100,52329],[100,52413],[100,52496],[100,52579],[100,52663],[100,52746],[100,52829],[100,52913],[100,52996],[100,53079],[100,53163],[100,53246],[100,53329],[100,53413],[100,53496],[100,53579],[100,53663],[100,53747],[100,53829],[100,53912],[100,53996],[100,54079],[100,54162],[100,54246],[100,54329],[100,54412],[100,54496],[100,54579],[100,54662],[100,54746],[100,54829],[100,54913],[100,54996],[100,55079],[100,55163],[100,55246],[100,55329],[100,55413],[100,55496],[100,55579],[100,55663],[100,55746],[100,55830]]",1,0,248.5104,252.3247,91.14583333,2.4401,"[{""rating"":91.14583333333333,""responseTime"":2.440100000023847}]",space,3.2694,,252.3247,Not at all,0,252.3264,,,[],,0,1,1,1,1,audio/Narrative7Situation1.wav,audio/Narrative8Situation1.wav,audio/Narrative5Situation1.wav,audio/Narrative6Situation1.wav,2,5,5,2,24.9981,,,,,,,,,,,,,,,,,,,,,,,,,,,,,,,,,,,,,,
,,,,,,65c243c37e0d77ca70ee030e,2024-05-13_11h45.22.265,group3.1-3.2-social-tom,2023.2.2,Win32,62.89308176,65c5074098b851296ff0b7ed,664233c3ed0e515ac8e302e5,,,,,,,,,,,,,,,,,,,,,,,,,,,,,252.3266,1,audio/Narrative7Situation2.wav,255.3415,,255.3415,262.8244,"[[90.7,1849],[89.7,1932],[87.5,2016],[78.2,2433],[77.3,2516],[77.1,2599],[77,2683],[77,2766],[75.9,2849],[74.1,2933],[73.6,3016],[73.5,3099],[73.5,3182],[73.5,3266],[73.5,3349],[73.5,3432],[73.5,3516],[73.5,3599],[73.5,3683],[73.5,3766],[73.5,3849],[73.5,3933],[73.5,4016],[73.5,4099],[73.5,4182],[73.5,4266],[73.5,4349],[73.5,4432],[73.5,4516],[73.5,4599],[73.5,4682],[73.5,4766],[73.5,4849],[73.5,4932],[73.5,5016],[73.5,5099],[73.5,5182],[73.5,5266],[73.5,5349],[73.5,5432],[73.5,5516],[73.5,5599],[73.5,5682],[73.5,5766],[73.5,5849],[73.5,5932],[73.5,6016],[73.5,6099],[73.5,6182],[73.5,6266],[74.4,6349],[76.6,6432],[78.6,6516],[80.8,6599],[81.6,6682],[81.8,6766],[81.8,6849],[81.8,6932],[81.8,7016],[81.8,7099],[81.8,7182],[81.8,7266],[81.8,7349],[81.8,7432]]",1,0,262.8247,267.0076,78.85416667,2.2095,"[{""rating"":78.85416666666667,""responseTime"":2.2094999999999914}]",space,3.6358,,267.0076,Half the time,50,267.0138,,,[],,0,2,2,2,1,audio/Narrative7Situation2.wav,audio/Narrative8Situation2.wav,audio/Narrative5Situation2.wav,audio/Narrative6Situation2.wav,3,3,3,3,,,,,,,,,,,,,,,,,,,,,,,,,,,,,,,,,,,,,,,
,,,,,,65c243c37e0d77ca70ee030e,2024-05-13_11h45.22.265,group3.1-3.2-social-tom,2023.2.2,Win32,62.89308176,65c5074098b851296ff0b7ed,664233c3ed0e515ac8e302e5,,,,,,,,,,,,,,,,,,,,,,,,,,,,,267.0141,1,audio/Narrative7Situation3.wav,275.023,,275.0231,284.2731,"[[999,10],[999,83],[999,166],[999,249],[999,333],[999,417],[999,500],[999,583],[999,666],[999,750],[999,833],[999,916],[999,1000],[83.6,1333],[76.4,1416],[76.4,1500],[78.3,1583],[79.7,1666],[79.7,1750],[79.7,1833],[79.7,1916],[79.7,1999],[79.7,2083],[79.7,2166],[79.7,2249],[79.7,2333],[79.7,2416],[79.7,2500],[79.7,2583],[79.7,2666],[79.7,2750],[79.7,2833],[79.7,2917],[79.7,3000],[79.7,3083],[79.7,3166],[79.7,3249],[79.7,3333],[79.7,3416],[79.7,3499],[79.7,3583],[79.6,3666],[79.5,3749],[79.4,3833],[79.3,3916],[78.3,4000],[75.9,4083],[75.7,4166],[75.6,4249],[75.6,4333],[74.8,4416],[74.6,4499],[74.6,4583],[74.6,4666],[74.6,4749],[74.6,4833],[74.6,4916],[75.6,5000],[81.3,5083],[87.7,5166],[89.8,5250],[89.8,5333],[89.8,5416],[89.8,5499],[89.8,5583],[89.8,5666],[89.8,5749],[89.8,5833],[89.8,5916],[89.8,5999],[89.8,6082],[89.8,6166],[89.8,6249],[89.8,6333],[89.8,6416],[89.8,6499],[89.8,6582],[89.8,6666],[89.8,6749],[89.8,6832],[89.8,6916],[89.8,6999],[89.8,7083],[89.8,7166],[89.8,7249],[89.8,7332],[89.8,7415],[89.8,7499],[89.8,7582],[89.8,7665],[89.8,7749],[89.8,7832],[89.8,7916],[89.8,7999],[89.8,8082],[89.8,8165],[89.8,8249],[89.8,8332],[89.8,8415],[89.8,8499],[89.8,8582],[89.8,8665],[89.8,8749],[89.8,8832],[89.8,8916],[89.8,8999],[90.1,9082],[90.2,9165],[90.4,9249]]",1,0,284.2732,286.4561,90.10416667,1.1384,"[{""rating"":90.10416666666667,""responseTime"":1.1383999999761727}]",space,1.6333,,286.4562,All the time,100,286.46,,,[],,0,3,3,3,1,audio/Narrative7Situation3.wav,audio/Narrative8Situation3.wav,audio/Narrative5Situation3.wav,audio/Narrative6Situation3.wav,8,4,3,5,,,,,,,,,,,,,,,,,,,,,,,,,,,,,,,,,,,,,,,
,,,,,,65c243c37e0d77ca70ee030e,2024-05-13_11h45.22.265,group3.1-3.2-social-tom,2023.2.2,Win32,62.89308176,65c5074098b851296ff0b7ed,664233c3ed0e515ac8e302e5,,,,,,,,,,,,,,,,,,,,,,,,,,,,,286.4601,1,audio/Narrative7Situation4.wav,289.4722,,289.4722,301.1888,"[[999,8],[999,83],[999,166],[999,250],[999,333],[999,416],[999,500],[999,583],[999,666],[999,750],[999,833],[999,916],[999,1000],[999,1083],[999,1167],[999,1250],[999,1333],[999,1417],[999,1500],[999,1583],[73.5,1667],[73.9,1750],[73.6,1833],[73.8,1916],[73.8,2000],[74.2,2083],[77.9,2167],[84.5,2250],[85.4,2333],[85.5,2416],[85.5,2500],[85.5,2583],[85.5,2666],[85.5,2750],[85.5,2833],[85.5,2916],[85.5,2999],[85.5,3083],[85.5,3166],[85.5,3249],[85.5,3333],[85.5,3416],[85.5,3500],[85.5,3583],[85.5,3666],[85.5,3750],[85.5,3833],[85.5,3916],[85.5,4000],[85.5,4083],[85.5,4166],[85.5,4249],[85.5,4333],[85.5,4416],[85.5,4500],[85.5,4583],[85.5,4666],[85.5,4750],[85.5,4833],[85.5,4916],[85.5,5000],[85.5,5083],[85.5,5166],[85.5,5250],[85.3,5333],[85.1,5416],[85.1,5500],[85.1,5583],[85.1,5666],[85.1,5749],[85.1,5833],[85.1,5916],[85.1,5999],[85.1,6083],[85.1,6166],[85.1,6250],[85.1,6333],[85.1,6416],[85.1,6500],[85.1,6583],[85.1,6666],[85.1,6749],[85.1,6833],[85.1,6916],[85.1,6999],[85.1,7083],[85.1,7166],[85.1,7249],[85.1,7333],[85.1,7416],[85.1,7499],[85.1,7583],[85.1,7666],[85.1,7749],[85.1,7833],[85.1,7916],[85.1,7999],[85.1,8083],[85.1,8166],[85.1,8249],[85.1,8333],[85.1,8416],[85.1,8499],[85.1,8583],[85.1,8666],[85.1,8749],[85.1,8833],[85.1,8916],[85.1,8999],[85.1,9083],[85.1,9166],[85.1,9249],[85.1,9333],[85.1,9416],[85.1,9499],[85.1,9583],[85.1,9666],[85.1,9749],[85.1,9833],[85.1,9916],[85.1,9999],[85.1,10083],[85.1,10166],[85.1,10249],[85.1,10333],[85.1,10416],[85.1,10499],[85.1,10583],[85.1,10666],[85.1,10749],[85.1,10833],[85.1,10916],[85.1,10999],[85.1,11082],[85.1,11166],[85.1,11249],[85.1,11333],[84.3,11416],[84.1,11499],[83,11583],[80.6,11666]]",1,0,301.1891,303.0383,85.41666667,1.0484,"[{""rating"":85.41666666666667,""responseTime"":1.0483999999761977}]",space,1.302,,303.0384,Not at all,0,303.0425,,,[],,0,4,4,4,1,audio/Narrative7Situation4.wav,audio/Narrative8Situation4.wav,audio/Narrative5Situation4.wav,audio/Narrative6Situation4.wav,3,3,1,2,,,,,,,,,,,,,,,,,,,,,,,,,,,,,,,,,,,,,,,
,,,,,,65c243c37e0d77ca70ee030e,2024-05-13_11h45.22.265,group3.1-3.2-social-tom,2023.2.2,Win32,62.89308176,65c5074098b851296ff0b7ed,664233c3ed0e515ac8e302e5,,,,,,,,,,,,,,,,,,,,,,,,,,,,,303.0427,1,audio/Narrative7Situation5.wav,308.055,,308.0551,316.5543,"[[999,16],[999,83],[999,166],[999,249],[999,332],[999,416],[999,499],[999,582],[999,665],[999,749],[999,833],[999,916],[999,999],[999,1082],[999,1166],[999,1249],[999,1332],[999,1416],[999,1499],[999,1582],[999,1665],[999,1749],[999,1832],[999,1916],[999,1999],[999,2083],[999,2166],[999,2249],[999,2333],[75.3,2416],[76,2499],[76.3,2583],[76.8,2665],[76.8,2749],[77,2832],[76.7,2915],[76.7,2999],[76.7,3082],[76.7,3166],[76.7,3249],[76.9,3332],[77.3,3416],[77.6,3499],[78.3,3582],[79.9,3666],[80.4,3749],[80.4,3832],[80.4,3916],[80.4,3999],[80.4,4082],[80.4,4165],[80.4,4250],[80.4,4332],[80.4,4416],[80.4,4499],[80.4,4583],[81.3,4666],[81.8,4749],[82.1,4832],[82.4,4915],[82.4,4999],[82.4,5082],[82.4,5165],[82.8,5249],[83.1,5332],[83.9,5415],[85.3,5499],[85.8,5582],[85.9,5666],[85.9,5749],[85.9,5832],[85.9,5915],[85.9,5999],[85.9,6082],[85.9,6165],[84.7,6249],[80.1,6332],[76.4,6415],[73.3,6499],[70.8,6582],[70.2,6666],[70.2,6749],[70.2,6832],[70.2,6915],[70.2,6999],[70.2,7082],[70.2,7165],[70.2,7249],[70.2,7332],[70.2,7415],[70.2,7499],[70.2,7582],[70.2,7665],[70.2,7749],[70.2,7832],[71.3,7915],[73.5,7999],[73.5,8082],[73.5,8165],[73.5,8249],[73.5,8332],[73.5,8415],[73.5,8499]]",1,0,316.5543,319.0376,78.4375,1.1211,"[{""rating"":78.4375,""responseTime"":1.12110000002383}]",space,1.948,,319.0378,Not at all,0,319.0412,,,[],,0,5,5,5,1,audio/Narrative7Situation5.wav,audio/Narrative8Situation5.wav,audio/Narrative5Situation5.wav,audio/Narrative6Situation5.wav,5,2,5,2,,,,,,,,,,,,,,,,,,,,,,,,,,,,,,,,,,,,,,,
,,,,,,65c243c37e0d77ca70ee030e,2024-05-13_11h45.22.265,group3.1-3.2-social-tom,2023.2.2,Win32,62.89308176,65c5074098b851296ff0b7ed,664233c3ed0e515ac8e302e5,,,,,,,,,,,,,,,,,,,,,,,,,,,,,319.0416,1,audio/Narrative7Situation6.wav,322.054,,322.054,332.0369,"[[77.9,1999],[79.8,2083],[80.4,2166],[80.7,2249],[80.7,2332],[80.7,2416],[80.7,2499],[80.7,2583],[80.7,2666],[80.7,2749],[80.7,2833],[80.7,2916],[80.7,2999],[80.7,3083],[80.7,3166],[80.7,3249],[80.7,3332],[80.7,3416],[80.7,3499],[80.7,3582],[80.7,3666],[80.7,3749],[80.7,3832],[80.7,3916],[80.7,3999],[80.7,4082],[80.7,4166],[80.7,4249],[80.7,4333],[80.7,4416],[80.7,4499],[80.7,4582],[80.7,4666],[80.7,4749],[80.7,4833],[80.7,4916],[80.7,4999],[80.7,5082],[80.7,5165],[82.1,5249],[82.2,5333],[82.2,5416],[82.2,5499],[82.9,5583],[83.2,5666],[83.5,5749],[83.5,5832],[83.5,5916],[83.5,5999],[83.5,6082],[84.1,6166],[84.9,6249],[85.9,6333],[87.4,6416],[88.8,6499],[89.3,6583],[89.5,6665],[89.5,6749],[89.5,6832],[89.5,6915],[89.5,6999],[89.5,7082],[89.5,7166],[89.5,7249],[89.5,7333],[89.5,7415],[89.5,7499],[89.5,7582],[89.5,7665],[89.5,7749],[89.5,7832],[89.5,7915],[89.5,7999],[89.5,8082],[89.5,8165],[89.5,8249],[89.5,8332],[89.5,8415],[89.5,8499],[89.5,8582],[89.5,8665],[89.5,8749],[89.5,8832],[89.5,8915],[89.5,8998],[89.5,9082],[89.9,9166],[89.9,9249],[89.9,9333],[89.9,9415],[89.9,9498],[89.9,9582],[89.9,9665],[89.9,9749],[89.9,9832],[89.6,9916]]",1,0,332.0371,334.053,85.52083333,1.0299,"[{""rating"":85.52083333333333,""responseTime"":1.0298999999761804}]",space,1.4744,,334.0531,Not at all,0,334.0548,,,[],,0,6,6,6,1,audio/Narrative7Situation6.wav,audio/Narrative8Situation6.wav,audio/Narrative5Situation6.wav,audio/Narrative6Situation6.wav,3,2,3,2,,,,,,,,,,,,,,,,,,,,,,,,,,,,,,,,,,,,,,,
,,,,,,65c243c37e0d77ca70ee030e,2024-05-13_11h45.22.265,group3.1-3.2-social-tom,2023.2.2,Win32,62.89308176,65c5074098b851296ff0b7ed,664233c3ed0e515ac8e302e5,,,,,,,,,,,,,,,,,,,,,,,,,,,,,334.0559,1,audio/Narrative7Situation7.wav,339.0694,,339.0695,356.2353,"[[999,6],[999,83],[999,167],[999,249],[999,332],[999,416],[999,500],[999,583],[999,666],[999,750],[999,833],[999,916],[999,999],[999,1084],[999,1166],[999,1250],[999,1333],[999,1416],[999,1499],[999,1583],[999,1666],[999,1749],[999,1833],[999,1916],[999,1999],[999,2083],[999,2166],[999,2249],[999,2333],[999,2416],[999,2499],[999,2583],[999,2667],[999,2749],[999,2833],[999,2916],[999,2999],[999,3083],[999,3166],[999,3249],[999,3333],[999,3416],[999,3499],[999,3583],[999,3667],[999,3749],[84,3833],[85.9,3916],[86.1,3999],[86.1,4083],[86.1,4166],[86.3,4249],[86.3,4333],[86.3,4416],[86.3,4499],[86.3,4583],[86.3,4666],[86.3,4749],[86.3,4833],[86.3,4916],[86.3,4999],[86.3,5082],[86.3,5166],[86.3,5249],[86.3,5333],[86.3,5416],[86.3,5499],[86.3,5583],[86.3,5666],[86.3,5749],[86.3,5832],[86.3,5916],[86.3,5999],[86.3,6083],[86.3,6166],[86.3,6249],[86.3,6333],[86.3,6416],[86.3,6499],[86.3,6582],[86.3,6665],[86.3,6749],[86.3,6833],[86.3,6915],[86.3,6999],[86.3,7082],[86.3,7165],[86.3,7249],[86.3,7332],[86.3,7416],[86.3,7499],[86.3,7582],[86.3,7666],[88.1,7749],[88.2,7833],[89.4,7916],[90.9,7999],[91,8083],[91,8165],[91.9,8249],[92.2,8332],[92.3,8416],[92.3,8499],[92.3,8583],[92.3,8667],[92.3,8749],[92.3,8833],[92.3,8915],[92.3,8999],[92.3,9082],[92.3,9166],[92.3,9249],[92.3,9332],[92.3,9415],[92.3,9499],[92.3,9583],[92.3,9665],[92.3,9749],[92.3,9832],[92.3,9916],[92.3,9999],[92.3,10082],[92.3,10166],[92.3,10249],[92.3,10332],[92.3,10416],[92.3,10499],[92.3,10582],[92.3,10666],[92.3,10749],[92.3,10832],[92.3,10915],[92.3,10999],[92.3,11082],[92.3,11165],[92.3,11249],[92.3,11332],[92.3,11415],[92.3,11499],[92.3,11582],[92.3,11665],[92.3,11749],[92.3,11832],[92.3,11916],[92.3,11999],[92.3,12082],[92.3,12165],[92.3,12249],[92.3,12332],[92.3,12415],[92.3,12499],[92.3,12582],[92.3,12665],[92.3,12749],[92.3,12832],[92.3,12915],[92.3,12999],[92.3,13082],[92.3,13165],[92.3,13248],[92.3,13332],[92.3,13415],[92.3,13498],[92.3,13582],[92.3,13665],[92.3,13749],[92.3,13832],[92.3,13915],[92.3,13999],[92.3,14082],[92.3,14165],[92.3,14249],[92.3,14332],[92.3,14415],[92.3,14498],[92.3,14582],[92.3,14665],[92.3,14749],[92.3,14832],[92.3,14915],[92.3,14999],[92.3,15082],[92.3,15165],[92.3,15249],[92.3,15332],[92.3,15415],[92.3,15498],[92.3,15582],[92.3,15665],[92.3,15748],[92.3,15832],[92.3,15915],[92.3,15999],[92.3,16082],[92.3,16165],[92.3,16249],[92.3,16332],[92.3,16415],[92.3,16499],[92.3,16582],[92.3,16665],[92.3,16749],[92.3,16832],[92.3,16915],[92.3,16999],[92.3,17082],[92.3,17165]]",1,0,356.2355,358.8684,89.0625,1.3659,"[{""rating"":89.0625,""responseTime"":1.3658999999761932}]",space,2.0906,,358.8684,Not at all,0,358.8714,,,[],,0,7,7,7,1,audio/Narrative7Situation7.wav,audio/Narrative8Situation7.wav,audio/Narrative5Situation7.wav,audio/Narrative6Situation7.wav,5,3,4,5,,,,,,,,,,,,,,,,,,,,,,,,,,,,,,,,,,,,,,,
,,,,,,65c243c37e0d77ca70ee030e,2024-05-13_11h45.22.265,group3.1-3.2-social-tom,2023.2.2,Win32,62.89308176,65c5074098b851296ff0b7ed,664233c3ed0e515ac8e302e5,,,,,,,,,,,,,,,,,,,,,,,,,,,,,358.872,1,audio/Narrative7Situation8.wav,360.8848,,360.8848,370.9006,"[[88.2,167],[87.7,249],[87.7,333],[87.7,416],[87.7,500],[87.7,583],[87.7,666],[87.9,750],[88,833],[88,916],[87.9,999],[87.8,1082],[87.8,1166],[87.8,1250],[87.8,1333],[87.8,1416],[86.1,1499],[83.2,1583],[82.7,1666],[82.1,1750],[82.1,1833],[82.1,1916],[81.8,2000],[81.8,2083],[81.8,2166],[81.8,2249],[81.8,2333],[81.8,2416],[81.8,2499],[81.8,2583],[81.8,2666],[81.8,2749],[81.8,2833],[81.8,2916],[81.8,2999],[81.8,3083],[81.8,3166],[81.8,3249],[81.8,3333],[81.8,3416],[81.8,3500],[81.8,3583],[81.8,3666],[81.8,3749],[81.8,3832],[81.8,3916],[81.8,3999],[81.8,4082],[81.8,4166],[81.8,4249],[81.8,4333],[81.8,4416],[81.7,4499],[81.7,4583],[81.7,4666],[81.6,4749],[81.6,4832],[81.5,4916],[81.5,4999],[81.5,5082],[81.5,5166],[81.5,5249],[81.5,5332],[81.5,5415],[81.5,5499],[81.5,5582],[81.5,5666],[81.5,5749],[81.5,5832],[81.5,5916],[81.5,6000],[81.5,6082],[81.5,6165],[81.6,6249],[83.6,6332],[84,6415],[84,6499],[84,6582],[84,6665],[83.9,6749],[82.8,6832],[80.7,6916],[78.4,6999],[74.9,7082],[68.3,7166],[66.7,7249],[66.7,7332],[67.1,7416],[72.2,7499],[75.4,7582],[82.7,7665],[92.2,7749],[97.1,7832],[98.1,7916],[98.4,7999],[98.4,8082],[98.4,8165],[97.8,8249],[96.6,8332],[96.6,8415],[96.3,8499],[94.6,8583],[94.6,8666],[94.6,8749],[94.6,8832],[94.6,8916],[94.6,8999],[94.6,9082],[94.6,9165],[94.6,9249],[94.6,9332],[94.6,9415],[94.6,9499],[94.6,9582],[94.6,9665],[94.6,9749],[94.6,9832],[94.6,9915],[94.6,9999]]",1,0,370.9008,372.434,91.66666667,0.773,"[{""rating"":91.66666666666667,""responseTime"":0.7730000000000246}]",space,1.006,,372.434,Not at all,0,372.4353,,,[],,0,8,8,8,1,audio/Narrative7Situation8.wav,audio/Narrative8Situation8.wav,audio/Narrative5Situation8.wav,audio/Narrative6Situation8.wav,2,3,3,5,,,,,,,,,,,,,,,,,,,,,,,,,,,,,,,,,,,,,,,
,,,,,,65c243c37e0d77ca70ee030e,2024-05-13_11h45.22.265,group3.1-3.2-social-tom,2023.2.2,Win32,62.89308176,65c5074098b851296ff0b7ed,664233c3ed0e515ac8e302e5,,,,,,,,,,,,,,,,,,,,,,,,,,,,,372.4361,1,audio/Narrative7Situation9.wav,374.4505,,374.4505,383.0669,"[[87.3,1083],[83.6,1166],[83.1,1249],[83.1,1333],[83.1,1416],[84.8,1500],[85.1,1583],[85.4,1666],[90,1750],[90.9,1833],[90.9,1916],[90.9,2000],[90.9,2083],[90.9,2166],[90.9,2249],[90.9,2333],[90.9,2416],[90.9,2499],[90.9,2583],[90.9,2666],[90.9,2749],[90.9,2833],[90.9,2916],[90.9,3000],[90.9,3084],[90.9,3166],[90.9,3250],[90.9,3333],[90.9,3416],[90.9,3499],[90.9,3583],[90.9,3666],[90.9,3749],[90.9,3833],[90.9,3916],[90.9,4000],[90.9,4083],[90.9,4166],[90.9,4249],[90.9,4333],[90.9,4416],[90.9,4499],[90.9,4583],[90.9,4666],[90.9,4749],[90.9,4832],[90.9,4916],[90.9,4999],[90.9,5083],[90.9,5166],[90.9,5249],[90.9,5332],[90.9,5416],[90.9,5500],[90.9,5582],[90.9,5666],[90.9,5749],[90.9,5832],[90.2,5916],[90.2,5999],[88.5,6082],[81.7,6166],[80.9,6249],[80.9,6333],[80.9,6416],[80.9,6499],[80.9,6583],[80.9,6666],[80.9,6749],[81.3,6832],[81.4,6916],[81.4,6999],[81.4,7083],[82.9,7166],[95.1,7249],[97.4,7332],[97.4,7416],[97.4,7499],[97.4,7582],[96.5,7666],[95.9,7749],[95.8,7832],[95.6,7916],[95.5,7999],[95.5,8082],[95.5,8166],[95.5,8249],[95.5,8332],[95.5,8416],[95.5,8499],[95.5,8582]]",1,0,383.067,384.9,92.5,0.7784,"[{""rating"":92.5,""responseTime"":0.778399999976159}]",space,1.3061,,384.9,Not at all,0,384.9015,,,[],,0,9,9,9,1,audio/Narrative7Situation9.wav,audio/Narrative8Situation9.wav,audio/Narrative5Situation9.wav,audio/Narrative6Situation9.wav,2,3,3,4,,,,,,,,,,,,,,,,,,,,,,,,,,,,,,,,,,,,,,,
,,,,,,65c243c37e0d77ca70ee030e,2024-05-13_11h45.22.265,group3.1-3.2-social-tom,2023.2.2,Win32,62.89308176,65c5074098b851296ff0b7ed,664233c3ed0e515ac8e302e5,,,,,,,,,,,,,,,,,,,,,,,,,,,,,384.9017,1,audio/Narrative8Situation1.wav,389.9167,,389.9167,405.8497,"[[76.6,1416],[76.1,1500],[75.9,1583],[75.7,1666],[75.7,1749],[75.7,1832],[75.7,1915],[75.7,1999],[75.7,2082],[75.7,2166],[75.7,2249],[75.7,2332],[76.5,2416],[76.7,2499],[76.7,2583],[76.7,2666],[76.7,2749],[76.7,2832],[76.7,2916],[73.1,3000],[62.7,3082],[49.7,3165],[42.6,3249],[35.2,3332],[31.1,3415],[30.8,3499],[30.8,3582],[30.8,3665],[30.8,3749],[30.8,3832],[30.8,3916],[30.7,3999],[30.6,4082],[30.6,4165],[30.6,4249],[30.5,4332],[30.5,4415],[30.5,4499],[30.5,4582],[30.5,4666],[30.5,4749],[30.5,4832],[30.5,4916],[30.5,4999],[30.5,5082],[30.5,5166],[30.5,5249],[30.5,5332],[30.5,5415],[30.5,5499],[31.8,5582],[33.8,5665],[34.7,5749],[35.7,5832],[39.3,5916],[44,5999],[45.7,6083],[47.7,6166],[49.5,6249],[50.6,6335],[50.7,6415],[50.7,6498],[50.7,6582],[50.7,6665],[50.7,6749],[50.7,6832],[50.7,6915],[50.7,6999],[50.7,7082],[50.7,7165],[50.7,7249],[50.7,7332],[50.7,7415],[50.7,7499],[50.7,7582],[50.7,7665],[50.7,7749],[50.7,7832],[50.7,7915],[50.7,7999],[50.7,8082],[50.7,8166],[51.4,8249],[51.8,8332],[52.3,8416],[52.6,8499],[52.6,8582],[52.6,8665],[52.6,8749],[52.6,8832],[52.9,8916],[53.3,8999],[55,9082],[56.1,9165],[56.8,9249],[57.3,9332],[57.9,9416],[58.5,9499],[59,9582],[59.2,9665],[59.6,9749],[60.2,9832],[60.8,9915],[61.5,9999],[62,10082],[62.5,10165],[63,10249],[63.6,10332],[64.2,10416],[65,10499],[65.7,10582],[66,10665],[66.5,10748],[66.7,10832],[66.9,10915],[67,10998],[67,11081],[67,11165],[67.4,11249],[67.8,11332],[68,11416],[68,11499],[68,11582],[68.4,11665],[68.6,11749],[69.1,11832],[69.5,11916],[70.1,11999],[70.6,12082],[70.9,12165],[71.4,12248],[71.6,12331],[71.8,12415],[72,12498],[72.2,12582],[72.4,12665],[72.8,12749],[73.2,12832],[73.6,12915],[74.3,12999],[74.9,13082],[75.6,13165],[76.3,13249],[77.1,13332],[77.5,13415],[77.5,13498],[77.5,13581],[77.5,13665],[77.5,13748],[77.5,13831],[77.5,13915],[77.5,13998],[77.5,14081],[77.5,14165],[77.5,14248],[77.5,14331],[77.5,14415],[77.5,14499],[77.5,14582],[77.5,14665],[77.5,14748],[77.5,14831],[77.5,14915],[77.5,14998],[77.5,15081],[77.5,15165],[77.5,15248],[77.5,15332],[77.5,15415],[77.5,15498],[76,15582],[72.3,15665],[70.7,15748],[70.7,15831],[70.7,15915]]",1,0,405.8499,407.5152,71.45833333,0.7547,"[{""rating"":71.45833333333333,""responseTime"":0.7547000000476487}]",space,1.1162,,407.5153,Half the time,50,407.5193,,,[],,0,10,10,10,1,audio/Narrative8Situation1.wav,audio/Narrative7Situation1.wav,audio/Narrative6Situation1.wav,audio/Narrative5Situation1.wav,5,2,2,5,,,,,,,,,,,,,,,,,,,,,,,,,,,,,,,,,,,,,,,
,,,,,,65c243c37e0d77ca70ee030e,2024-05-13_11h45.22.265,group3.1-3.2-social-tom,2023.2.2,Win32,62.89308176,65c5074098b851296ff0b7ed,664233c3ed0e515ac8e302e5,,,,,,,,,,,,,,,,,,,,,,,,,,,,,407.5195,1,audio/Narrative8Situation2.wav,410.5319,,410.532,420.6648,"[[999,0],[999,82],[999,166],[999,249],[999,332],[999,416],[999,500],[999,583],[999,666],[999,749],[77.6,833],[80.2,916],[80.2,999],[79.9,1083],[77.9,1166],[77.5,1249],[77.5,1332],[77.5,1416],[77.5,1499],[77.5,1582],[77.5,1666],[77.5,1753],[77.5,1832],[77.5,1916],[77.5,1999],[77.5,2082],[77.5,2166],[77.5,2249],[77.5,2333],[77.5,2416],[77.5,2499],[77.5,2582],[77.5,2666],[77.5,2749],[77.5,2833],[77.5,2916],[77.5,2999],[77.5,3082],[77.5,3166],[77.5,3249],[77.5,3332],[77.4,3415],[77.2,3500],[77.2,3582],[77.1,3665],[77,3749],[76.9,3832],[76.9,3916],[76.9,3999],[76.9,4082],[76.9,4165],[76.9,4249],[76.9,4332],[76.9,4416],[76.9,4499],[76.9,4583],[76.9,4666],[76.9,4749],[76.9,4832],[76.9,4916],[76.9,4999],[76.9,5082],[76.9,5165],[76.9,5249],[76.9,5332],[76.9,5415],[76.9,5499],[76.9,5582],[76.9,5666],[76.9,5749],[76.9,5832],[76.9,5915],[76.9,5999],[76.9,6082],[76.9,6165],[76.9,6249],[76.9,6332],[76.9,6416],[76.9,6499],[76.9,6582],[76.9,6665],[76.9,6749],[76.9,6832],[76.9,6915],[76.9,6999],[76.9,7082],[76.9,7165],[76.9,7249],[76.9,7332],[76.9,7415],[76.9,7499],[76.9,7582],[76.9,7665],[76.9,7749],[76.9,7832],[76.9,7915],[78.9,7999],[80.6,8082],[81.5,8165],[83.1,8249],[84.3,8332],[84.5,8415],[84.6,8499],[84.6,8582],[84.6,8665],[84.6,8749],[84.6,8832],[84.6,8915],[84.6,8999],[84.6,9082],[84.6,9165],[84.6,9249],[84.6,9332],[84.6,9415],[84.6,9498],[86.1,9582],[88.1,9666],[88.9,9749],[88.9,9832],[88.9,9915],[88.9,9999],[88.9,10082]]",1,0,420.6649,422.4815,81.77083333,0.7298,"[{""rating"":81.77083333333333,""responseTime"":0.7298000000715206}]",space,1.2746,,422.4816,Half the time,50,422.4841,,,[],,0,11,11,11,1,audio/Narrative8Situation2.wav,audio/Narrative7Situation2.wav,audio/Narrative6Situation2.wav,audio/Narrative5Situation2.wav,3,3,3,3,,,,,,,,,,,,,,,,,,,,,,,,,,,,,,,,,,,,,,,
,,,,,,65c243c37e0d77ca70ee030e,2024-05-13_11h45.22.265,group3.1-3.2-social-tom,2023.2.2,Win32,62.89308176,65c5074098b851296ff0b7ed,664233c3ed0e515ac8e302e5,,,,,,,,,,,,,,,,,,,,,,,,,,,,,422.4844,1,audio/Narrative8Situation3.wav,426.4972,,426.4972,448.8632,"[[81.3,3833],[81.1,3916],[81.1,4000],[81.1,4083],[81.1,4166],[79.5,4250],[73.4,4333],[71.7,4416],[69.7,4500],[68.8,4583],[68.5,4666],[68.9,4750],[77.4,4833],[81.7,4916],[82.8,5000],[83.8,5083],[85.1,5166],[85.3,5249],[86,5333],[86.5,5416],[86.5,5499],[86.5,5583],[86.5,5666],[86.5,5749],[86.8,5833],[87.2,5916],[87.3,6000],[87.3,6083],[87.3,6166],[87.3,6249],[87.3,6333],[87.3,6416],[87.3,6499],[87.3,6583],[87.3,6666],[87.3,6749],[87.3,6832],[87.3,6916],[85.5,7000],[80.6,7083],[77.1,7166],[76.8,7249],[76.8,7333],[80.6,7416],[85.1,7499],[88,7582],[88.8,7666],[89.4,7749],[90,7832],[90.3,7916],[90.8,7999],[91.5,8083],[91.9,8166],[92.3,8249],[92.7,8333],[93.2,8416],[93.3,8500],[93.3,8582],[93.3,8666],[93.3,8749],[93.3,8832],[93.3,8916],[93.3,8999],[93.3,9083],[93.3,9166],[93.3,9249],[93.3,9332],[93.3,9416],[93.3,9499],[93.3,9582],[93.3,9666],[93.3,9749],[93.3,9832],[93.3,9916],[93.3,9999],[93.3,10083],[93.3,10165],[93.3,10249],[93.3,10333],[93.3,10416],[93.3,10499],[93.3,10582],[93.3,10666],[93.3,10749],[93.3,10832],[93.3,10916],[93.3,10999],[93.3,11082],[93.3,11166],[93.3,11249],[93.3,11332],[93.3,11416],[93.3,11499],[93.3,11582],[93.3,11666],[93.3,11749],[93.3,11832],[93.1,11916],[92.7,11999],[91.6,12082],[91.4,12166],[90.9,12249],[90.5,12332],[90.4,12416],[90.3,12499],[90.3,12582],[90.3,12666],[90.3,12749],[90.3,12832],[90.3,12916],[90.3,12999],[90.3,13082],[90.3,13166],[90.3,13249],[90.3,13332],[90.3,13415],[90.3,13499],[90.3,13582],[90.3,13666],[90.3,13749],[90.3,13832],[90.3,13915],[90.3,13999],[90.3,14082],[90.3,14165],[90.3,14249],[90.3,14332],[90.3,14415],[90.3,14498],[90.3,14582],[90.3,14665],[90.3,14748],[90.3,14833],[90.3,14915],[90.3,14999],[91,15082],[91.8,15166],[92.2,15249],[92.2,15332],[92.2,15415],[92.2,15499],[92.2,15582],[92.2,15665],[92.2,15749],[92.2,15832],[92.2,15915],[92.2,15999],[92.2,16082],[92.2,16165],[92.2,16249],[92.2,16332],[92.2,16415],[92.2,16499],[92.2,16582],[92.2,16665],[92.2,16749],[92.2,16832],[92.2,16915],[92.2,16998],[92.2,17082],[92.2,17165],[92.2,17249],[92.2,17332],[92.2,17415],[92.2,17499],[92.2,17582],[92.2,17665],[92.2,17749],[92.2,17832],[92.2,17915],[92.2,17999],[92.2,18082],[92.2,18165],[92.2,18249],[92.2,18332],[92.2,18416],[92.2,18499],[92.2,18582],[92.2,18665],[92.2,18749],[92.2,18832],[92.2,18915],[92.2,18999],[92.2,19082],[92.2,19165],[92.2,19248],[92.2,19332],[92.2,19415],[92.2,19498],[92.2,19582],[92.2,19665],[92.2,19748],[92.2,19832],[92.2,19915],[92.2,19998],[92.2,20082],[92.2,20165],[92.2,20248],[92.2,20332],[92.2,20415],[92.2,20498],[92.2,20581],[92.2,20665],[92.2,20749],[92.2,20831],[92.2,20915],[92.2,20998],[92.2,21082],[92.2,21165],[92.2,21248],[92.2,21332],[92.2,21415],[92.2,21498],[92.2,21582],[92.2,21665],[92.2,21748],[92.2,21831],[92.2,21915],[90.8,21999],[90.8,22082],[90.8,22165],[90.8,22249],[90.8,22332]]",1,0,448.8634,450.7127,91.04166667,0.813,"[{""rating"":91.04166666666667,""responseTime"":0.8129999999999882}]",space,1.3055,,450.7127,Not at all,0,450.7164,,,[],,0,12,12,12,1,audio/Narrative8Situation3.wav,audio/Narrative7Situation3.wav,audio/Narrative6Situation3.wav,audio/Narrative5Situation3.wav,4,8,5,3,,,,,,,,,,,,,,,,,,,,,,,,,,,,,,,,,,,,,,,
,,,,,,65c243c37e0d77ca70ee030e,2024-05-13_11h45.22.265,group3.1-3.2-social-tom,2023.2.2,Win32,62.89308176,65c5074098b851296ff0b7ed,664233c3ed0e515ac8e302e5,,,,,,,,,,,,,,,,,,,,,,,,,,,,,450.7166,1,audio/Narrative8Situation4.wav,453.7291,,453.7291,467.9119,"[[85.7,83],[85.4,166],[85.4,249],[85.3,333],[85.3,416],[85.3,499],[85.3,583],[85.3,666],[85.3,750],[85.3,833],[85.3,916],[84.7,999],[84.7,1083],[84.7,1166],[84.7,1249],[84.7,1333],[84.7,1416],[84.7,1500],[84.7,1582],[82.9,1666],[78.6,1750],[75.5,1834],[73.8,1916],[70.3,2000],[68.6,2083],[68.6,2166],[68.6,2249],[68.6,2333],[68.6,2416],[69.9,2500],[72.3,2583],[72.4,2666],[72.4,2749],[72.4,2833],[72.4,2916],[72.4,2999],[72.4,3083],[72.4,3166],[72.4,3249],[72.4,3333],[72.4,3416],[72.1,3499],[72,3583],[71.8,3666],[71.8,3749],[71.8,3833],[71.8,3916],[71.8,3999],[71.8,4083],[71.8,4166],[71.8,4249],[71.8,4333],[71.8,4416],[71.8,4499],[71.8,4583],[71.8,4666],[77.5,4750],[78,4833],[78,4916],[78,4999],[78,5083],[78,5166],[78,5249],[78,5333],[78,5416],[78,5499],[78,5583],[78,5666],[78,5749],[78,5833],[78,5916],[78,5999],[78,6083],[78,6165],[78,6249],[78,6333],[78,6416],[78,6499],[78,6582],[78,6666],[78,6749],[78,6833],[78,6915],[78,6999],[78,7083],[78,7166],[78,7249],[80.7,7332],[81.3,7416],[82,7499],[82.3,7582],[82.6,7666],[82.7,7749],[83.1,7833],[84.7,7916],[85.5,7999],[85.5,8082],[85.5,8166],[85.5,8249],[85.5,8332],[85.5,8415],[85.5,8499],[85.5,8582],[85.5,8666],[85.5,8749],[85.5,8832],[85.5,8916],[85.5,8999],[85.5,9082],[85.5,9166],[85.5,9249],[85.5,9332],[85.5,9416],[85.5,9499],[85.5,9582],[85.5,9666],[85.5,9749],[85.5,9832],[85.5,9916],[85.5,9999],[85.5,10082],[85.5,10166],[85.5,10249],[85.5,10332],[85.5,10416],[85.5,10499],[85.5,10582],[85.5,10666],[85.5,10749],[85.5,10832],[85.5,10916],[85.5,10999],[85.5,11082],[85.5,11165],[85.5,11249],[85.5,11332],[85.5,11416],[85.5,11499],[85.5,11582],[85.5,11665],[85.5,11749],[85.5,11832],[85.5,11916],[85.5,11999],[85.5,12082],[85.5,12165],[85.5,12249],[85.5,12332],[85.5,12415],[85.5,12499],[85.5,12582],[85.5,12665],[85.5,12749],[85.5,12832],[85.5,12916],[85.5,12999],[85.5,13082],[85.5,13165],[85.5,13249],[85.5,13332],[85.5,13415],[85.5,13499],[85.5,13582],[85.5,13665],[85.5,13749],[85.5,13832],[85.5,13916],[85.5,13999],[85.5,14082],[85.5,14165]]",1,0,467.9122,470.2784,82.70833333,1.0457,"[{""rating"":82.70833333333334,""responseTime"":1.0457000000476455}]",space,1.8172,,470.2785,All the time,100,470.2844,,,[],,0,13,13,13,1,audio/Narrative8Situation4.wav,audio/Narrative7Situation4.wav,audio/Narrative6Situation4.wav,audio/Narrative5Situation4.wav,3,3,2,1,,,,,,,,,,,,,,,,,,,,,,,,,,,,,,,,,,,,,,,
,,,,,,65c243c37e0d77ca70ee030e,2024-05-13_11h45.22.265,group3.1-3.2-social-tom,2023.2.2,Win32,62.89308176,65c5074098b851296ff0b7ed,664233c3ed0e515ac8e302e5,,,,,,,,,,,,,,,,,,,,,,,,,,,,,470.2847,1,audio/Narrative8Situation5.wav,472.2948,,472.2949,480.544,"[[85.7,999],[85.3,1083],[85.1,1166],[85.1,1249],[85.1,1333],[85.1,1416],[85.1,1499],[85.1,1582],[85.1,1666],[85.1,1749],[85.1,1833],[85.1,1916],[85.1,1999],[85.1,2083],[85.1,2166],[85.1,2249],[85.1,2332],[85.1,2416],[85.1,2499],[85.1,2583],[85.1,2666],[85.1,2749],[85.1,2832],[85.1,2916],[85.1,2999],[85.1,3082],[85.1,3166],[85.1,3249],[85.1,3332],[85.1,3416],[85.1,3499],[85.1,3582],[85.1,3666],[85.1,3749],[85.1,3832],[85.1,3916],[85.1,3999],[85.1,4083],[85.1,4166],[85.1,4249],[85.1,4332],[85.1,4416],[85.1,4499],[85.1,4582],[85.1,4666],[85.1,4749],[85.1,4832],[85.1,4916],[85.1,4999],[85.1,5082],[85.1,5166],[85.1,5249],[85.1,5332],[85.1,5416],[85.1,5499],[85.1,5582],[85.1,5666],[85.1,5749],[85.1,5832],[85.1,5916],[85.1,5999],[85.1,6082],[85.1,6166],[85.1,6250],[85.1,6332],[85.1,6415],[85.1,6499],[85.4,6582],[86,6666],[86.4,6749],[87.1,6832],[87.5,6915],[87.8,6999],[87.8,7082],[87.8,7166],[87.8,7249],[88.5,7334],[88.8,7416],[88.8,7499],[88.8,7582],[88.8,7666],[88.8,7749],[88.8,7832],[88.8,7915],[88.8,7999],[88.8,8082],[88.8,8165],[88.8,8249]]",1,0,480.544,482.3276,88.75,1.0317,"[{""rating"":88.75,""responseTime"":1.0317000000477492}]",space,1.2516,,482.3276,All the time,100,482.3293,,,[],,0,14,14,14,1,audio/Narrative8Situation5.wav,audio/Narrative7Situation5.wav,audio/Narrative6Situation5.wav,audio/Narrative5Situation5.wav,2,5,2,5,,,,,,,,,,,,,,,,,,,,,,,,,,,,,,,,,,,,,,,
,,,,,,65c243c37e0d77ca70ee030e,2024-05-13_11h45.22.265,group3.1-3.2-social-tom,2023.2.2,Win32,62.89308176,65c5074098b851296ff0b7ed,664233c3ed0e515ac8e302e5,,,,,,,,,,,,,,,,,,,,,,,,,,,,,482.3295,1,audio/Narrative8Situation6.wav,484.3443,,484.3443,490.8271,"[[89.3,82],[89.3,166],[89.3,249],[89.3,332],[89.3,416],[89.3,499],[89.1,583],[88.6,666],[88.2,749],[87.9,832],[87.6,916],[87.6,999],[87.6,1082],[87.6,1166],[87.6,1249],[87.6,1332],[87.6,1415],[87.6,1499],[87.6,1582],[87.6,1665],[87.6,1749],[87.6,1832],[87.6,1916],[87.6,1999],[87.5,2082],[87.5,2165],[87.5,2249],[87.5,2332],[87.5,2416],[87.5,2499],[87.5,2582],[87.5,2666],[87.5,2749],[87.5,2833],[87.5,2916],[87.5,2999],[85.1,3083],[80.2,3166],[76,3249],[74.1,3332],[73.5,3416],[73.5,3499],[73.5,3582],[73.5,3666],[73.5,3749],[73.5,3832],[73.5,3915],[73.5,3999],[73.5,4082],[73.5,4165],[73.5,4249],[73.5,4332],[73.4,4415],[73.4,4500],[73.3,4582],[73.2,4666],[73.1,4749],[73.1,4832],[73.1,4916],[73.1,4999],[73.1,5082],[73.1,5166],[73.1,5249],[73.1,5332],[73.1,5416],[73.1,5499],[73.1,5582],[73.1,5665],[73.1,5749],[73.1,5832],[73.1,5915],[75.2,5999],[76.1,6082],[76.1,6165],[76.1,6249],[76.1,6332],[76.1,6415]]",1,0,490.8273,492.277,75.9375,0.722,"[{""rating"":75.9375,""responseTime"":0.72199999999998}]",space,0.9077,,492.277,All the time,100,492.2799,,,[],,0,15,15,15,1,audio/Narrative8Situation6.wav,audio/Narrative7Situation6.wav,audio/Narrative6Situation6.wav,audio/Narrative5Situation6.wav,2,3,2,3,,,,,,,,,,,,,,,,,,,,,,,,,,,,,,,,,,,,,,,
,,,,,,65c243c37e0d77ca70ee030e,2024-05-13_11h45.22.265,group3.1-3.2-social-tom,2023.2.2,Win32,62.89308176,65c5074098b851296ff0b7ed,664233c3ed0e515ac8e302e5,,,,,,,,,,,,,,,,,,,,,,,,,,,,,492.28,1,audio/Narrative8Situation7.wav,495.2932,,495.2932,507.3925,"[[76.5,1416],[76.9,1499],[76.9,1583],[77.3,1666],[77.3,1749],[77.3,1833],[77.3,1916],[77.3,1999],[77.3,2083],[77.3,2166],[77.3,2249],[77.3,2333],[77.3,2416],[77.2,2500],[77.2,2583],[77.1,2666],[77,2749],[77,2833],[77,2916],[77,2999],[77,3083],[77,3166],[77,3249],[77,3333],[77,3416],[77,3499],[77,3582],[77,3666],[77,3749],[77,3833],[77,3916],[77,3999],[77,4083],[77,4166],[77,4249],[77,4333],[77,4416],[77,4499],[77,4583],[77,4666],[77,4749],[77,4833],[77,4916],[77,4999],[77,5082],[77,5166],[77,5249],[77,5332],[77,5416],[77,5499],[77,5582],[77,5666],[77,5749],[77,5832],[77,5916],[77,5999],[77,6083],[77,6166],[77,6249],[77,6333],[77,6415],[77,6499],[77,6582],[77,6666],[77,6749],[77,6832],[77,6916],[77,6999],[77.1,7083],[77.3,7166],[77.4,7249],[77.6,7333],[78,7416],[78.4,7499],[79.1,7582],[79.6,7666],[79.7,7749],[79.7,7832],[79.7,7916],[79.7,7999],[79.5,8082],[79.1,8166],[79.1,8249],[79.1,8332],[79.1,8415],[79.1,8499],[79.1,8582],[79.1,8666],[79.1,8749],[79.1,8832],[81.4,8916],[83.6,8999],[84.4,9083],[84.7,9166],[84.7,9249],[84.7,9332],[84.7,9415],[84.7,9499],[84.7,9582],[84.7,9665],[84.7,9749],[84.7,9833],[84.7,9915],[84.7,9999],[84.7,10082],[84.7,10166],[84.7,10249],[84.7,10332],[84.7,10415],[84.7,10499],[84.7,10583],[84.7,10665],[84.7,10749],[84.7,10832],[84.9,10916],[85.1,10999],[85.1,11082],[85.1,11165],[85.1,11249],[85.1,11332],[85.1,11415],[85.1,11499],[85.1,11582],[85.1,11666],[85.1,11749],[85.1,11832],[85.1,11915],[85.1,11999],[85.1,12082]]",1,0,507.3926,509.5259,85.10416667,0.9223,"[{""rating"":85.10416666666667,""responseTime"":0.9222999999523154}]",space,1.5874,,509.5261,Half the time,50,509.5315,,,[],,0,16,16,16,1,audio/Narrative8Situation7.wav,audio/Narrative7Situation7.wav,audio/Narrative6Situation7.wav,audio/Narrative5Situation7.wav,3,5,5,4,,,,,,,,,,,,,,,,,,,,,,,,,,,,,,,,,,,,,,,
,,,,,,65c243c37e0d77ca70ee030e,2024-05-13_11h45.22.265,group3.1-3.2-social-tom,2023.2.2,Win32,62.89308176,65c5074098b851296ff0b7ed,664233c3ed0e515ac8e302e5,,,,,,,,,,,,,,,,,,,,,,,,,,,,,509.5319,1,audio/Narrative8Situation8.wav,512.5423,,512.5423,525.3916,"[[82.6,1416],[76.5,1500],[74.5,1583],[74.3,1665],[74.3,1749],[74.5,1832],[74.7,1915],[75,1999],[75.2,2083],[75.2,2166],[75.2,2249],[75.2,2332],[75.2,2416],[75.2,2499],[75.2,2582],[75.2,2666],[75.2,2749],[75.2,2832],[75.2,2915],[75.2,2999],[75.2,3082],[75.2,3165],[75.2,3249],[75.2,3332],[75.2,3416],[75.2,3499],[75.2,3583],[75.2,3666],[75.2,3749],[75.2,3832],[75.2,3918],[75.2,3999],[75.2,4082],[75.2,4165],[75.2,4249],[75.2,4332],[75.2,4416],[75.2,4499],[75.2,4582],[75.2,4667],[75.2,4749],[75.2,4832],[75.2,4916],[75.2,4999],[75.2,5083],[75.2,5166],[75.2,5249],[75.2,5332],[75.2,5416],[75.2,5499],[75.2,5582],[75.2,5666],[75.2,5749],[75.2,5832],[75.2,5916],[75.2,5999],[75.2,6082],[75.2,6166],[75.2,6249],[75.2,6332],[75.2,6416],[75.2,6499],[75.2,6582],[75.2,6666],[75.2,6749],[75.2,6832],[75.2,6916],[75.2,6999],[75.2,7082],[75.2,7165],[75.2,7249],[75.2,7332],[75.2,7415],[75.2,7499],[75.2,7582],[75.3,7666],[76.8,7749],[77.7,7833],[79.3,7916],[80.8,8000],[81.6,8082],[81.9,8165],[82,8249],[82,8332],[82,8416],[82,8499],[82,8582],[82,8665],[82,8749],[82,8832],[82,8916],[82,8999],[82,9082],[82,9165],[82,9249],[82,9332],[82,9415],[82,9499],[82,9582],[82,9665],[82,9749],[82,9832],[82,9916],[82,9999],[82,10082],[82,10165],[82,10249],[82,10332],[82,10416],[82,10498],[82,10582],[82,10665],[82,10749],[82,10832],[82,10915],[82,10999],[82,11082],[82,11166],[82,11249],[82,11332],[82,11415],[82,11499],[82,11582],[82,11665],[82,11749],[82,11832],[82,11915],[82,11999],[82,12082],[84.1,12165],[84.9,12249],[85.5,12332],[87,12416],[88.3,12499],[90.5,12582],[91.1,12665],[91.1,12749],[91.1,12832]]",1,0,525.3918,527.0245,86.97916667,0.8106,"[{""rating"":86.97916666666667,""responseTime"":0.8106000000237827}]",space,1.1038,,527.0245,Not at all,0,527.0289,,,[],,0,17,17,17,1,audio/Narrative8Situation8.wav,audio/Narrative7Situation8.wav,audio/Narrative6Situation8.wav,audio/Narrative5Situation8.wav,3,2,5,3,,,,,,,,,,,,,,,,,,,,,,,,,,,,,,,,,,,,,,,
,,,,,,65c243c37e0d77ca70ee030e,2024-05-13_11h45.22.265,group3.1-3.2-social-tom,2023.2.2,Win32,62.89308176,65c5074098b851296ff0b7ed,664233c3ed0e515ac8e302e5,,,,,,,,,,,,,,,,,,,,,,,,,,,,,527.0291,1,audio/Narrative8Situation9.wav,530.0409,,530.0409,541.3574,"[[85.8,2500],[85.3,2583],[84.9,2666],[84.8,2750],[84.8,2833],[84.8,2916],[84.8,3000],[84.8,3084],[84.8,3166],[84.8,3250],[84.8,3333],[84.8,3416],[84.8,3500],[84.8,3583],[84.8,3666],[84.8,3750],[84.8,3833],[84.8,3916],[84.8,3999],[84.8,4083],[84.8,4167],[84.8,4250],[84.8,4333],[84.8,4416],[84.8,4499],[84.8,4583],[84.8,4666],[84.8,4749],[84.8,4833],[84.8,4917],[85.8,5000],[87.2,5083],[88.3,5166],[90.2,5249],[90.9,5333],[90.9,5416],[90.9,5499],[90.9,5583],[90.9,5666],[90.9,5749],[90.9,5833],[90.9,5916],[90.9,5999],[90.9,6083],[90.9,6166],[90.9,6249],[90.9,6333],[90.9,6416],[90.9,6499],[90.9,6583],[90.9,6666],[90.9,6749],[90.9,6833],[90.9,6916],[90.9,6999],[90.9,7083],[90.9,7166],[90.9,7249],[90.9,7333],[90.9,7416],[90.9,7499],[90.9,7583],[90.9,7666],[90.9,7749],[90.9,7833],[90.9,7916],[90.9,7999],[90.9,8082],[90.9,8166],[90.9,8249],[90.9,8333],[90.9,8416],[90.9,8500],[90.9,8583],[90.9,8666],[90.9,8749],[90.9,8833],[90.9,8916],[90.9,8999],[90.9,9083],[90.9,9166],[90.9,9249],[90.9,9333],[90.9,9416],[90.9,9499],[90.9,9583],[90.9,9666],[90.9,9749],[90.9,9833],[90.9,9916],[90.9,10000],[90.9,10083],[90.9,10166],[90.9,10249],[90.9,10333],[90.9,10416],[90.9,10499],[90.9,10583],[91.4,10666],[91.6,10749],[91.6,10833],[91.6,10916],[91.6,10999],[91.6,11083],[91.6,11166],[91.6,11249]]",1,0,541.3576,543.1071,91.5625,0.7223,"[{""rating"":91.5625,""responseTime"":0.7223000000715274}]",space,1.1974,,543.1072,Not at all,0,563.4893,0,18.4596,"[{""rating"":0.2083333333333326,""responseTime"":8.72329999995236},{""rating"":0,""responseTime"":10.557299999952306},{""rating"":0,""responseTime"":18.45959999990464}]",space,0,18,18,18,1,audio/Narrative8Situation9.wav,audio/Narrative7Situation9.wav,audio/Narrative6Situation9.wav,audio/Narrative5Situation9.wav,3,2,4,3,,,19.8392,,,,,,,,,,,,,,,,,,,,,,,,,,,,,,,,,,,,
,,,,,,65c243c37e0d77ca70ee030e,2024-05-13_11h45.22.265,group3.1-3.2-social-tom,2023.2.2,Win32,62.89308176,65c5074098b851296ff0b7ed,664233c3ed0e515ac8e302e5,,,,,,,,,,,,,,,,,,,,,,,,,,,623.499,626.0685,626.0771,2,audio/Narrative13Situation2.wav,626.0772,,626.0772,655.834,"[[999,0],[999,74],[999,158],[999,241],[999,324],[999,407],[999,490],[999,574],[999,657],[999,741],[999,824],[999,907],[999,991],[999,1074],[999,1158],[999,1241],[999,1324],[999,1408],[999,1491],[999,1574],[999,1664],[999,1741],[999,1824],[78.4,1908],[78.3,1991],[76.6,2075],[76.5,2157],[76.5,2241],[76.5,2324],[76.5,2408],[76.3,2491],[76.3,2574],[76.3,2657],[76.3,2740],[76.3,2824],[76.3,2908],[77.3,2991],[77.8,3074],[77.9,3158],[78,3241],[78.3,3324],[78.8,3407],[78.9,3491],[78.9,3574],[78.8,3657],[78.8,3741],[78.8,3824],[78.8,3908],[78.8,3990],[78.8,4074],[78.8,4157],[78.8,4240],[78.8,4324],[78.8,4407],[78.8,4490],[78.8,4574],[78,4657],[76.9,4740],[75.5,4824],[70.4,4907],[61.9,4990],[55.6,5074],[52.3,5157],[51.9,5241],[51.1,5325],[51.1,5407],[51.1,5490],[50.8,5574],[50.5,5657],[50.5,5740],[50.2,5824],[50.1,5907],[50.1,5990],[50.1,6074],[50.1,6157],[50.1,6240],[50.1,6324],[50.1,6407],[50.1,6491],[50.1,6574],[50.1,6657],[50.1,6740],[50.1,6824],[50.1,6907],[50.1,6991],[50.1,7074],[50.1,7157],[50.1,7240],[50.1,7324],[50.1,7407],[50.1,7491],[50.9,7574],[53,7657],[54.8,7740],[57,7824],[57.9,7907],[58.6,7990],[59.3,8074],[59.4,8157],[59.4,8240],[59.4,8324],[59.4,8408],[59.4,8490],[59.4,8574],[59.4,8657],[59.4,8740],[59.4,8824],[59.4,8907],[59.4,8990],[59.4,9074],[59.4,9157],[59.4,9240],[59.4,9324],[59.4,9407],[59.4,9490],[59.4,9574],[59.4,9657],[59.4,9740],[59.4,9823],[59.4,9907],[59.4,9990],[59.4,10074],[59.4,10157],[59.4,10240],[59.4,10323],[59.4,10407],[59.4,10490],[59.4,10575],[59.4,10657],[59.4,10740],[59.4,10823],[59.4,10907],[59.4,10990],[59.4,11073],[59.4,11157],[59.4,11240],[59.4,11323],[59.4,11407],[59.4,11490],[59.4,11573],[59.4,11657],[59.4,11740],[59.4,11823],[59.4,11908],[59.6,11990],[61.5,12073],[62.1,12157],[62.9,12240],[63.6,12323],[64.1,12407],[64.1,12490],[64.2,12573],[64.2,12657],[64.4,12740],[64.4,12823],[64.4,12907],[64.4,12990],[64.4,13073],[64.4,13157],[64.4,13240],[64.4,13323],[64.4,13407],[64.4,13490],[64.4,13573],[64.4,13657],[64.4,13740],[64.4,13823],[64.4,13907],[64.4,13990],[64.4,14073],[64.4,14157],[64.4,14240],[64.4,14323],[64.4,14407],[64.4,14490],[64.4,14573],[64.4,14657],[64.4,14740],[64.4,14823],[64.4,14907],[64.4,14990],[64.4,15073],[64.4,15157],[64.4,15240],[64.4,15323],[64.4,15407],[64.4,15490],[64.4,15573],[64.4,15657],[64.4,15740],[64.4,15823],[64.4,15907],[64.4,15990],[64.4,16073],[64.4,16157],[64.4,16240],[64.4,16323],[64.4,16407],[64.4,16490],[64.4,16573],[64.4,16657],[64.4,16740],[64.4,16823],[64.4,16907],[64.4,16990],[64.4,17074],[64.4,17157],[64.4,17240],[64.4,17323],[64.4,17407],[64.4,17490],[64.4,17573],[64.5,17657],[64.8,17740],[64.8,17823],[65,17907],[65.1,17990],[65.2,18073],[65.6,18157],[65.9,18240],[66.1,18323],[66.3,18406],[66.3,18490],[66.3,18573],[66.3,18657],[66.4,18740],[66.7,18823],[66.9,18906],[67,18990],[67.1,19074],[67.3,19157],[67.4,19239],[67.6,19323],[67.6,19406],[67.6,19490],[67.6,19573],[67.6,19656],[67.6,19740],[67.6,19823],[67.6,19906],[67.6,19990],[67.6,20073],[67.6,20157],[67.6,20240],[67.6,20323],[67.6,20407],[67.6,20490],[67.5,20573],[66.9,20657],[66.1,20740],[65.7,20823],[65.4,20907],[64.8,20990],[63.9,21073],[62.7,21157],[62,21240],[61.3,21323],[60.5,21407],[59.7,21490],[59.2,21573],[58.9,21656],[58.4,21740],[58.2,21823],[57.8,21906],[57.2,21990],[57,22073],[56.8,22156],[56.8,22240],[56.8,22323],[56.8,22406],[57.4,22490],[61.5,22573],[64.3,22657],[67.3,22740],[68.8,22823],[70.1,22906],[71.6,22990],[73.1,23073],[73.6,23157],[74.4,23240],[74.9,23323],[75,23406],[75,23490],[75,23573],[75,23656],[75,23740],[75,23823],[75,23906],[75,23990],[75,24073],[75,24156],[75,24239],[75,24323],[75,24406],[75,24490],[75,24573],[75,24656],[75,24739],[75,24823],[75,24906],[75,24990],[75,25073],[75,25156],[75,25240],[75,25323],[75,25406],[75,25489],[75,25573],[75,25656],[75,25739],[75,25823],[75,25906],[75,25991],[75,26072],[75,26156],[75,26239],[75,26323],[75,26406],[75,26490],[75,26573],[75,26656],[75,26739],[75,26823],[75,26906],[75,26990],[75,27072],[75,27156],[75.5,27240],[76.1,27322],[77,27406],[77.9,27490],[78.5,27573],[79,27656],[79.1,27739],[79.1,27822],[79.6,27906],[79.6,27990],[79.6,28072],[79.6,28156],[79.6,28240],[79.6,28323],[79.6,28406],[79.6,28489],[79.6,28572],[79.6,28656],[79.6,28740],[79.6,28822],[79.6,28906],[79.6,28990],[79.6,29072],[79.6,29156],[79.6,29239],[79.6,29322],[79.6,29406],[79.6,29489],[79.6,29572],[79.6,29656],[79.6,29739]]",1,0,655.8345,655.8383,,,[],,,,655.8383,Not at all,0,655.8399,,,[],,0,0,0,0,1,audio/Narrative13Situation2.wav,audio/Narrative13Situation2.wav,audio/Narrative13Situation2.wav,audio/Narrative13Situation2.wav,2,2,2,2,,,,,563.4898,623.4867,,,,,,,,,,,,,,,,,,,,,,,,,,,,,,,,,
,,,,,,65c243c37e0d77ca70ee030e,2024-05-13_11h45.22.265,group3.1-3.2-social-tom,2023.2.2,Win32,62.89308176,65c5074098b851296ff0b7ed,664233c3ed0e515ac8e302e5,,,,,,,,,,,,,,,,,,,,,,,,,,,,,655.8402,2,audio/Narrative5Situation1.wav,660.8498,,660.8499,674.1494,"[[999,14],[999,82],[999,166],[999,249],[999,333],[999,416],[999,499],[999,583],[999,666],[999,749],[999,832],[999,916],[999,999],[999,1083],[999,1166],[999,1249],[999,1332],[999,1416],[999,1499],[999,1583],[999,1666],[999,1749],[999,1833],[999,1916],[999,1999],[999,2082],[999,2166],[999,2249],[999,2332],[999,2416],[999,2499],[999,2582],[999,2666],[999,2749],[999,2832],[999,2916],[999,2999],[999,3082],[999,3166],[999,3249],[999,3333],[999,3416],[999,3500],[84.7,3832],[83.6,3916],[83.2,3999],[82.9,4083],[82.5,4166],[82.2,4249],[82.2,4332],[81.3,4416],[77.8,4499],[76.9,4582],[75.7,4666],[74.5,4749],[74.5,4832],[74.5,4916],[72.8,4999],[72.6,5082],[72.6,5165],[71.7,5250],[70.1,5333],[69.5,5416],[69.3,5499],[69.2,5582],[69.2,5665],[69.2,5749],[69,5832],[69,5916],[68.9,5999],[68.9,6082],[68.9,6166],[68.9,6249],[68.8,6332],[68.8,6416],[68.8,6499],[68.8,6582],[68.8,6666],[68.8,6749],[68.8,6832],[68.8,6915],[68.8,6999],[66.6,7084],[64.9,7166],[64.1,7249],[62.3,7332],[62,7415],[62,7499],[62,7582],[62,7666],[62,7749],[62,7832],[61.9,7915],[61.9,7999],[61.8,8082],[61.8,8165],[61.8,8250],[61.8,8332],[61.8,8416],[61.8,8499],[61.8,8582],[61.8,8666],[61.8,8749],[61.8,8832],[61.8,8916],[61.8,8999],[61.8,9082],[61.8,9166],[61.8,9249],[61.8,9332],[61.8,9415],[61.8,9499],[61.8,9582],[61.8,9665],[61.8,9749],[61.8,9832],[61.8,9916],[61.8,9999],[61.8,10082],[61.8,10165],[61.8,10249],[61.8,10332],[61.8,10415],[61.8,10499],[61.8,10582],[61.8,10665],[61.8,10748],[61.8,10832],[61.8,10915],[61.8,10999],[61.8,11082],[61.8,11165],[61.8,11249],[61.8,11332],[61.8,11415],[61.8,11499],[61.8,11582],[61.8,11665],[61.8,11749],[61.8,11832],[61.8,11915],[61.8,11998],[61.8,12082],[61.8,12165],[61.8,12249],[61.8,12332],[61.8,12415],[61.8,12499],[61.8,12582],[61.8,12666],[61.8,12749],[61.8,12832],[61.8,12915],[61.8,12999],[61.8,13082],[61.8,13165],[61.8,13249]]",1,0,674.1496,677.1157,64.79166667,1.6425,"[{""rating"":64.79166666666667,""responseTime"":1.6424999999999272}]",space,2.4257,,677.1158,Half the time,50,677.1195,,,[],,0,1,1,1,1,audio/Narrative7Situation1.wav,audio/Narrative8Situation1.wav,audio/Narrative5Situation1.wav,audio/Narrative6Situation1.wav,2,5,5,2,,,,,,,,,,,,,,,,,,,,,,,,,,,,,,,,,,,,,,,
,,,,,,65c243c37e0d77ca70ee030e,2024-05-13_11h45.22.265,group3.1-3.2-social-tom,2023.2.2,Win32,62.89308176,65c5074098b851296ff0b7ed,664233c3ed0e515ac8e302e5,,,,,,,,,,,,,,,,,,,,,,,,,,,,,677.1197,2,audio/Narrative5Situation2.wav,680.132,,680.1321,709.5972,"[[999,16],[999,82],[999,166],[999,250],[999,332],[999,416],[999,499],[999,582],[999,666],[999,749],[999,833],[999,916],[999,1000],[999,1083],[999,1166],[999,1249],[999,1332],[999,1416],[999,1499],[999,1582],[999,1666],[999,1749],[999,1833],[999,1916],[999,1999],[999,2083],[66.7,2166],[66.7,2249],[67.7,2333],[68.3,2416],[69.1,2500],[72.6,2583],[72.5,2666],[72.5,2749],[72.5,2833],[72.5,2916],[72.5,2999],[72.5,3082],[72.5,3166],[72.3,3249],[70.2,3333],[67.9,3416],[67.7,3500],[67.7,3582],[67.7,3666],[67.7,3749],[67.7,3832],[67.7,3916],[67.7,3999],[67.7,4083],[67.7,4166],[67.7,4249],[67.7,4332],[67.7,4416],[67.7,4499],[67.7,4582],[67.7,4665],[67.7,4749],[67.7,4832],[67.7,4916],[67.7,4999],[67.7,5082],[67.7,5166],[67.7,5249],[67.7,5332],[67.7,5416],[67.7,5499],[67.6,5582],[65.9,5666],[57.7,5749],[56.1,5832],[55.2,5916],[55.2,5999],[55.1,6083],[55.1,6166],[55.1,6249],[55.1,6332],[55.1,6415],[55.1,6499],[55.1,6582],[55.1,6665],[55.1,6749],[55.1,6832],[55.1,6916],[55,6999],[54.9,7082],[54.9,7166],[54.9,7249],[54.9,7332],[54.9,7415],[54.9,7499],[54.9,7582],[54.9,7666],[54.9,7749],[54.9,7832],[54.9,7915],[54.9,7999],[54.9,8082],[54.4,8165],[54.1,8249],[54.1,8332],[54.1,8415],[54.1,8499],[54.1,8582],[54.1,8665],[54.1,8749],[54.1,8832],[54.1,8916],[53.5,8999],[53.2,9082],[53.1,9165],[53,9249],[52.5,9332],[51.9,9415],[51.7,9499],[51.6,9582],[51.1,9666],[50.1,9749],[48.5,9832],[47.9,9915],[47.7,9999],[47.7,10082],[47.7,10165],[47.7,10249],[47.7,10332],[48.3,10415],[48.3,10499],[48.3,10582],[48.3,10665],[48.3,10749],[48.3,10832],[48.3,10915],[48.3,10999],[48.3,11082],[49.2,11165],[50,11249],[52,11332],[54.2,11416],[54.5,11499],[54.5,11582],[54.5,11665],[54.5,11748],[54.5,11832],[54.5,11915],[54.5,11999],[54.5,12082],[54.5,12165],[54.5,12249],[54.6,12332],[54.6,12415],[54.6,12498],[54.6,12582],[54.6,12665],[54.6,12748],[54.6,12832],[54.6,12915],[54.6,12999],[54.6,13082],[55.3,13165],[55.6,13249],[55.7,13332],[55.8,13415],[55.8,13498],[55.8,13582],[55.9,13665],[56,13749],[56.3,13832],[56.4,13915],[56.6,13999],[56.7,14082],[56.7,14165],[56.7,14248],[56.7,14332],[56.7,14415],[56.7,14498],[56.7,14582],[56.7,14665],[56.7,14748],[56.7,14832],[56.7,14915],[56.7,14998],[56.7,15082],[56.7,15165],[56.7,15249],[56.7,15332],[56.7,15415],[56.7,15498],[56.7,15582],[56.7,15665],[56.7,15748],[56.7,15832],[56.7,15915],[56.7,15998],[56.7,16082],[56.7,16165],[56.7,16248],[56.7,16332],[56.7,16415],[56.7,16499],[56.7,16582],[56.7,16665],[56.7,16748],[57,16832],[57.2,16915],[57.3,16998],[57.4,17082],[57.5,17165],[57.5,17248],[57.5,17332],[57.5,17415],[57.5,17498],[57.5,17581],[57.5,17665],[57.5,17748],[57.5,17832],[57.5,17914],[57.5,17998],[57.5,18081],[57.5,18165],[57.5,18248],[57.6,18332],[57.6,18415],[57.7,18499],[57.8,18582],[57.8,18665],[57.8,18748],[57.9,18831],[57.9,18915],[57.9,18998],[57.9,19081],[57.9,19165],[57.9,19248],[57.9,19331],[57.9,19415],[57.9,19498],[57.9,19582],[57.9,19665],[57.9,19748],[57.9,19831],[58,19915],[58,19998],[58,20081],[58,20164],[58.1,20248],[58.1,20331],[58.1,20414],[58.1,20498],[58.1,20582],[58.1,20665],[58.1,20748],[58.1,20831],[60.6,23748],[59.8,23831],[59.6,23914],[59.5,23998],[59.5,24082],[59.5,24164],[59.6,24248],[59.8,24331],[59.9,24415],[60,24498],[60.1,24581],[60.3,24665],[60.5,24748],[60.6,24831],[60.9,24915],[61.1,24998],[61.7,25081],[62.3,25164],[62.8,25248],[63.2,25331],[63.5,25414],[63.6,25498],[63.6,25581],[63.6,25664],[63.6,25748],[63.6,25831],[63.6,25914],[63.6,25998],[62.8,26081],[62,26165],[61.8,26248],[61,26331],[60.3,26415],[60.2,26498],[60.1,26581],[60.1,26665],[60.1,26748],[60.1,26831],[60.1,26915],[60.1,26998],[60.1,27081],[60.1,27164],[60.1,27248],[60.1,27331],[60.1,27415],[60.1,27498],[60.1,27581],[60.1,27665],[60.1,27748],[60.1,27831],[60.1,27914],[60.1,27998],[60.1,28081],[60.1,28165],[60.1,28248],[60.1,28331],[60.1,28414],[60.1,28498],[60.1,28581],[60.1,28665],[60.1,28748],[60.1,28831],[60.5,28915],[62.6,28998],[65.6,29081],[65.8,29164],[65.8,29247],[65.8,29331],[65.8,29414]]",1,0,709.5975,712.2134,64.47916667,1.0107,"[{""rating"":64.47916666666667,""responseTime"":1.0106999999285335}]",space,2.0766,,712.2134,Not at all,0,712.217,,,[],,0,2,2,2,1,audio/Narrative7Situation2.wav,audio/Narrative8Situation2.wav,audio/Narrative5Situation2.wav,audio/Narrative6Situation2.wav,3,3,3,3,,,,,,,,,,,,,,,,,,,,,,,,,,,,,,,,,,,,,,,
,,,,,,65c243c37e0d77ca70ee030e,2024-05-13_11h45.22.265,group3.1-3.2-social-tom,2023.2.2,Win32,62.89308176,65c5074098b851296ff0b7ed,664233c3ed0e515ac8e302e5,,,,,,,,,,,,,,,,,,,,,,,,,,,,,712.2174,2,audio/Narrative5Situation3.wav,715.2296,,715.2297,729.1458,"[[999,0],[999,83],[999,166],[999,250],[999,333],[999,416],[999,500],[999,583],[999,666],[999,750],[999,833],[999,916],[999,1000],[999,1083],[999,1166],[999,1249],[999,1333],[999,1416],[999,1500],[999,1583],[85.5,1667],[73.9,1916],[71.6,2000],[70.1,2083],[69,2167],[67.1,2250],[62.9,2333],[59.7,2416],[57.5,2500],[57.5,2583],[57.5,2666],[57.5,2749],[57.5,2833],[57.5,2916],[57.5,2999],[57.5,3083],[57.5,3166],[57.5,3249],[57.5,3333],[57.5,3416],[57.5,3500],[57.5,3582],[57.5,3666],[57.5,3749],[57.5,3833],[57.5,3916],[57.5,3999],[57.5,4083],[57.5,4166],[57.5,4250],[57.5,4333],[57.5,4416],[57.5,4499],[57.5,4583],[57.5,4666],[57.5,4749],[57.5,4833],[57.5,4916],[57.5,5000],[57.5,5083],[57.5,5166],[57.5,5249],[57.5,5333],[57.5,5416],[57.5,5499],[57.5,5583],[57.5,5666],[57.5,5749],[57.5,5832],[57.5,5916],[57.5,6005],[57.5,6083],[57.5,6166],[57.5,6249],[57.5,6333],[57.5,6417],[57.5,6499],[57.5,6583],[57.5,6666],[57.5,6749],[57.5,6833],[57.5,6916],[57.5,6999],[58,7083],[58.4,7166],[58.8,7249],[59.8,7333],[60.3,7416],[60.4,7499],[60.4,7582],[60.4,7666],[60.9,7749],[61.4,7832],[61.8,7916],[62.2,8000],[62.5,8082],[62.7,8166],[62.9,8249],[63,8333],[63.1,8416],[63.1,8499],[63.1,8582],[63.1,8666],[63.1,8749],[63.1,8832],[63.1,8916],[63.1,8999],[63.1,9082],[63.1,9166],[63.1,9249],[62.8,9333],[61.5,9416],[58.9,9499],[57.5,9583],[57,9666],[56.6,9749],[56.5,9833],[56.4,9916],[56.4,9999],[56.4,10082],[56.9,10166],[62,10249],[68.3,10333],[70.1,10416],[72.7,10499],[74.7,10582],[75,10666],[76.4,10749],[78.1,10832],[79.3,10915],[79.6,10999],[79.9,11082],[79.9,11166],[80.1,11249],[80.5,11332],[80.5,11416],[80.5,11499],[80.5,11582],[80.5,11666],[80.5,11749],[80.5,11832],[80.5,11916],[80.2,11999],[79.9,12082],[79.5,12166],[79.5,12249],[79.5,12332],[79.5,12416],[79.5,12499],[79.5,12582],[79.6,12666],[79.9,12749],[80.1,12832],[80.2,12915],[80.2,12999],[80.2,13082],[80.2,13165],[80.2,13249],[80.2,13332],[80.2,13415],[80.2,13499],[80.2,13582],[80.2,13665],[80.2,13748],[80.2,13832],[80.2,13915]]",1,0,729.146,731.4625,76.5625,0.9807,"[{""rating"":76.5625,""responseTime"":0.9806999999285608}]",space,1.7671,,731.4626,All the time,100,731.4672,,,[],,0,3,3,3,1,audio/Narrative7Situation3.wav,audio/Narrative8Situation3.wav,audio/Narrative5Situation3.wav,audio/Narrative6Situation3.wav,8,4,3,5,,,,,,,,,,,,,,,,,,,,,,,,,,,,,,,,,,,,,,,
,,,,,,65c243c37e0d77ca70ee030e,2024-05-13_11h45.22.265,group3.1-3.2-social-tom,2023.2.2,Win32,62.89308176,65c5074098b851296ff0b7ed,664233c3ed0e515ac8e302e5,,,,,,,,,,,,,,,,,,,,,,,,,,,,,731.4675,2,audio/Narrative5Situation4.wav,732.4788,,732.4788,752.8607,"[[79,250],[76.3,333],[76.3,416],[76.9,500],[79.7,583],[81.1,667],[82.2,750],[81.4,833],[75.8,916],[71.7,1000],[70,1083],[69.5,1166],[68.3,1250],[67.6,1333],[65.3,1417],[65.1,1499],[65,1583],[65,1666],[65,1749],[65,1833],[65,1916],[65,2000],[65,2083],[65,2166],[65,2250],[64.9,2333],[64.8,2416],[64.8,2499],[64.8,2583],[64.8,2667],[64.8,2749],[64.8,2833],[64.8,2916],[64.8,2999],[64.8,3082],[64.7,3166],[64.6,3249],[64.5,3333],[64.5,3416],[64.5,3499],[64.5,3583],[64.5,3666],[64.5,3749],[64.5,3832],[64.5,3916],[64.5,3999],[64.5,4083],[64.5,4166],[64.5,4249],[64.5,4333],[64.5,4416],[64.5,4499],[64.5,4583],[64.5,4666],[64.5,4749],[64.5,4832],[64.5,4916],[64.5,4999],[64.5,5083],[64.5,5166],[64.5,5249],[64.5,5332],[64.5,5416],[64.5,5499],[64.5,5582],[64.5,5666],[64.5,5749],[64.5,5832],[64.5,5916],[64.5,5999],[64.5,6082],[64.5,6166],[64.5,6250],[64.5,6332],[64.5,6416],[64.5,6499],[64.5,6582],[64.5,6666],[64.5,6749],[63.8,6833],[63.3,6916],[63.3,6999],[63.3,7082],[63.3,7165],[63.3,7249],[63.3,7332],[63.3,7416],[63.3,7499],[63.3,7582],[63.3,7665],[63.3,7749],[63.3,7832],[63.3,7916],[63.3,7999],[63.3,8083],[63.3,8165],[63.3,8249],[63.5,8332],[65.1,8416],[66.4,8499],[67.8,8582],[70,8666],[71.8,8749],[73.2,8832],[74.9,8916],[76.8,8999],[77.8,9082],[78.2,9166],[78.6,9249],[78.6,9332],[78.6,9416],[78.6,9499],[78.6,9583],[78.6,9665],[78.6,9749],[78.6,9832],[78.6,9916],[78.6,9999],[78.6,10082],[78.6,10165],[78.6,10249],[78.6,10332],[78.6,10416],[78.6,10499],[78.6,10582],[78.6,10665],[78.6,10749],[78.6,10832],[78.6,10915],[78.6,10999],[78.6,11082],[78.6,11166],[78.8,11249],[79,11332],[79.1,11415],[79.2,11499],[79.2,11582],[79.2,11665],[79.2,11749],[79.2,11832],[79.2,11915],[79.2,11998],[79.2,12082],[79.2,12165],[79.2,12249],[79.2,12332],[79.2,12415],[79.2,12499],[79.2,12582],[79.2,12666],[79.2,12749],[79.2,12832],[79.2,12915],[79.2,12999],[79.2,13082],[79.2,13165],[79.2,13248],[79.2,13332],[79.3,13415],[79.3,13499],[79.3,13582],[79.3,13665],[79.3,13748],[79.3,13832],[79.3,13915],[79.3,13999],[79.3,14082],[79.3,14165],[79.3,14249],[79.3,14332],[79.3,14415],[79.3,14498],[79.3,14582],[79.3,14665],[79.3,14748],[79.3,14832],[79.3,14915],[79.3,14998],[79.3,15082],[79.3,15165],[79,15249],[77.9,15332],[76.7,15415],[76.3,15499],[76.1,15582],[76.1,15665],[76.1,15748],[76.1,15832],[76.1,15915],[76.1,15998],[76.4,16082],[77.3,16165],[78.1,16249],[78.8,16332],[79.4,16415],[79.8,16498],[80.1,16582],[80.2,16665],[80.2,16748],[80.4,16832],[80.4,16915],[80.6,16998],[80.7,17082],[80.9,17165],[81.3,17248],[81.3,17332],[81.3,17415],[81.4,17498],[81.5,17582],[81.7,17665],[81.9,17748],[82,17832],[82.1,17915],[82.1,17999],[82.1,18082],[82.1,18165],[82.1,18248],[82.1,18332],[82.1,18415],[82.1,18498],[82.1,18582],[82.1,18665],[82.1,18748],[82.1,18831],[82.1,18915],[82.1,18998],[82.1,19081],[82.1,19165],[82.1,19248],[82.1,19331],[82.1,19415],[82.1,19498],[82.1,19582],[82.1,19665],[82.1,19748],[82.1,19832],[82.1,19915],[82.1,19998],[82.2,20082],[85.1,20165],[85.7,20248],[85.7,20331]]",1,0,752.8609,754.9939,85.41666667,0.9252,"[{""rating"":85.41666666666667,""responseTime"":0.9252000000476528}]",space,1.6057,,754.994,Half the time,50,754.9974,,,[],,0,4,4,4,1,audio/Narrative7Situation4.wav,audio/Narrative8Situation4.wav,audio/Narrative5Situation4.wav,audio/Narrative6Situation4.wav,3,3,1,2,,,,,,,,,,,,,,,,,,,,,,,,,,,,,,,,,,,,,,,
,,,,,,65c243c37e0d77ca70ee030e,2024-05-13_11h45.22.265,group3.1-3.2-social-tom,2023.2.2,Win32,62.89308176,65c5074098b851296ff0b7ed,664233c3ed0e515ac8e302e5,,,,,,,,,,,,,,,,,,,,,,,,,,,,,754.9976,2,audio/Narrative5Situation5.wav,760.0105,,760.0106,775.4432,"[[999,9],[999,83],[999,166],[999,249],[999,333],[999,416],[999,499],[999,583],[999,666],[999,749],[999,833],[999,916],[999,999],[999,1083],[63.6,1166],[64.3,1249],[64.3,1333],[64.3,1416],[64.1,1500],[62.1,1582],[62.1,1666],[62.1,1749],[62.1,1833],[62.1,1916],[62.1,1999],[62.1,2083],[62.7,2166],[63.3,2249],[63.5,2333],[63.5,2416],[63.5,2499],[63.5,2583],[63.5,2666],[63.5,2749],[63.5,2833],[63.5,2916],[63.5,2999],[63.5,3083],[63.5,3166],[63.5,3249],[63.5,3333],[64.4,3416],[65,3499],[65.9,3583],[67.1,3666],[67.1,3749],[67.1,3832],[67.1,3916],[67.1,3999],[67.1,4083],[67.1,4166],[67.1,4249],[67.1,4333],[67.1,4416],[67.1,4499],[67.1,4583],[67.1,4666],[67.1,4749],[67.1,4832],[67.1,4916],[65.7,4999],[65,5083],[64.7,5166],[64.7,5249],[64.7,5333],[64.8,5416],[66.9,5499],[68.4,5583],[69.3,5667],[71.1,5749],[73.6,5833],[74.3,5916],[74.7,5999],[75.2,6083],[75.9,6166],[76.1,6249],[76.1,6332],[76.1,6416],[76.1,6499],[76.1,6582],[76.1,6666],[76.1,6749],[76.1,6832],[76.1,6916],[76.1,6999],[76.1,7082],[76.1,7166],[76.1,7249],[76.1,7332],[76.1,7416],[76.1,7499],[79,7582],[85.4,7666],[90.7,7749],[93,7832],[93.3,7916],[93.3,7999],[93.3,8082],[93.4,8166],[93.4,8249],[93.4,8332],[93.4,8416],[93.4,8499],[93.4,8582],[93.4,8666],[93.4,8749],[93.4,8832],[93.4,8916],[93.4,8999],[93.4,9082],[93.4,9166],[93.4,9249],[93.4,9332],[93.4,9416],[93.4,9499],[93.4,9582],[93.4,9666],[93.4,9748],[93.4,9832],[93.4,9916],[93.4,9999],[93.4,10082],[93.4,10165],[93.4,10248],[93.4,10332],[93.4,10416],[93.4,10499],[93.4,10582],[93.4,10665],[93.4,10749],[93.4,10832],[93.4,10915],[93.4,10999],[93.4,11082],[93.4,11165],[93.4,11249],[93.4,11332],[93.4,11415],[93.4,11499],[93.4,11582],[93.4,11665],[93.4,11749],[93.4,11832],[93.4,11915],[93.4,11999],[93.4,12082],[93.4,12166],[93.4,12249],[93.4,12332],[93.4,12415],[93.4,12499],[93.4,12582],[93.4,12665],[93.4,12748],[93.4,12832],[93.4,12915],[93.4,12998],[93.4,13082],[93.4,13165],[93.4,13249],[93.4,13332],[93.4,13415],[93.4,13498],[93.4,13582],[93.4,13665],[93.4,13749],[93.4,13832],[93.4,13915],[93.4,13998],[93.4,14082],[93.4,14165],[93.4,14248],[93.3,14332],[92.9,14416],[92.8,14499],[92.7,14582],[92.6,14665],[92.5,14749],[92.5,14832],[92.5,14915],[92.5,14998],[92.5,15082],[92.5,15165],[92.5,15248],[92.5,15332],[92.5,15415]]",1,0,775.4435,777.5595,93.95833333,1.0944,"[{""rating"":93.95833333333333,""responseTime"":1.09439999997619}]",space,1.5735,,777.5597,Not at all,0,777.5649,,,[],,0,5,5,5,1,audio/Narrative7Situation5.wav,audio/Narrative8Situation5.wav,audio/Narrative5Situation5.wav,audio/Narrative6Situation5.wav,5,2,5,2,,,,,,,,,,,,,,,,,,,,,,,,,,,,,,,,,,,,,,,
,,,,,,65c243c37e0d77ca70ee030e,2024-05-13_11h45.22.265,group3.1-3.2-social-tom,2023.2.2,Win32,62.89308176,65c5074098b851296ff0b7ed,664233c3ed0e515ac8e302e5,,,,,,,,,,,,,,,,,,,,,,,,,,,,,777.5652,2,audio/Narrative5Situation6.wav,780.576,,780.5761,786.2594,"[[95.3,833],[80.8,1166],[79.6,1250],[79.6,1333],[79.8,1416],[79.8,1499],[79.8,1582],[79.8,1666],[79.8,1749],[79.8,1833],[79.8,1916],[79.8,1999],[79.8,2083],[79.8,2166],[79.8,2249],[79.8,2332],[79.8,2416],[79.8,2499],[79.8,2582],[79.8,2666],[79.8,2749],[79.8,2832],[79.8,2916],[79.8,2999],[79.8,3082],[79.8,3166],[79.8,3249],[79.8,3332],[79.8,3416],[79.8,3499],[79.8,3582],[79.8,3666],[79.8,3749],[79.8,3832],[79.8,3916],[79.8,3999],[79.8,4082],[79.8,4166],[79.8,4249],[79.8,4336],[79.8,4416],[79.8,4499],[79.6,4582],[75.2,4665],[74.1,4749],[74.1,4832],[77.5,4916],[88.8,4999],[91.6,5082],[91.6,5166],[91.6,5249],[91.6,5333],[91.6,5416],[91.6,5499],[91.6,5582],[91.6,5665]]",1,0,786.2595,788.1753,84.6875,1.0395,"[{""rating"":84.6875,""responseTime"":1.0394999999999754}]",space,1.3665,,788.1753,Not at all,0,788.1769,,,[],,0,6,6,6,1,audio/Narrative7Situation6.wav,audio/Narrative8Situation6.wav,audio/Narrative5Situation6.wav,audio/Narrative6Situation6.wav,3,2,3,2,,,,,,,,,,,,,,,,,,,,,,,,,,,,,,,,,,,,,,,
,,,,,,65c243c37e0d77ca70ee030e,2024-05-13_11h45.22.265,group3.1-3.2-social-tom,2023.2.2,Win32,62.89308176,65c5074098b851296ff0b7ed,664233c3ed0e515ac8e302e5,,,,,,,,,,,,,,,,,,,,,,,,,,,,,788.1773,2,audio/Narrative5Situation7.wav,792.1916,,792.1916,813.2238,"[[92.2,1583],[83.9,2083],[84.5,2166],[85,2250],[85.6,2333],[86.1,2416],[86.5,2500],[86.5,2583],[86.5,2666],[86.5,2750],[86.5,2833],[86.5,2916],[86.5,3000],[86.5,3083],[86.5,3166],[86.5,3250],[86.5,3333],[86.5,3416],[86.5,3499],[86.5,3583],[86.5,3666],[86.5,3750],[86.5,3833],[86.5,3916],[86.5,4000],[86.5,4083],[86.5,4166],[86.5,4249],[86.5,4333],[86.5,4416],[86.5,4500],[86.5,4583],[86.5,4666],[86.5,4750],[86.5,4833],[86.5,4916],[86.5,4999],[86.5,5083],[86.5,5166],[86.5,5249],[86.5,5333],[86.5,5417],[86.5,5500],[86.5,5583],[86.5,5666],[86.5,5750],[86.5,5833],[86.5,5916],[86.5,6000],[86.5,6083],[86.5,6166],[86.5,6249],[86.5,6333],[86.5,6416],[86.5,6500],[86.5,6583],[86.5,6666],[86.5,6749],[86.5,6833],[86.5,6916],[86.5,7000],[86.5,7082],[86.5,7166],[86.5,7249],[86.5,7333],[86.5,7416],[86.5,7499],[86.5,7583],[86.5,7666],[86.5,7749],[86.5,7832],[86.5,7916],[86.5,7999],[86.5,8083],[86.5,8166],[86.5,8249],[86.5,8332],[86.5,8416],[86.5,8499],[86.5,8582],[86.5,8666],[86.5,8749],[86.5,8833],[86.5,8916],[86.5,9000],[86.5,9083],[86.5,9166],[86.5,9249],[86.5,9332],[86.5,9416],[86.5,9499],[86.5,9583],[86.5,9666],[86.5,9749],[86.5,9832],[86.5,9916],[86.5,9999],[86.5,10082],[86.5,10166],[86.5,10249],[86.5,10333],[86.5,10416],[86.5,10499],[86.5,10582],[86.5,10666],[86.5,10750],[86.5,10832],[86.5,10916],[86.5,10999],[86.5,11082],[86.5,11166],[86.5,11249],[86.5,11332],[86.5,11416],[86.5,11499],[86.5,11582],[86.5,11666],[86.5,11749],[86.5,11832],[86.5,11915],[86.5,11999],[86.5,12082],[86.5,12165],[86.5,12249],[86.5,12332],[86.5,12415],[86.5,12499],[86.5,12582],[86.5,12665],[86.5,12749],[86.5,12832],[86.5,12915],[86.5,12999],[86.5,13082],[86.5,13165],[86.5,13249],[86.5,13332],[90.3,13415],[90.8,13499],[90.8,13582],[90.9,13665],[90.9,13749],[90.9,13832],[90.9,13915],[90.9,13999],[91,14082],[91.4,14165],[92.1,14249],[92.4,14332],[92.4,14415],[92.4,14499],[93.3,14582],[93.3,14665],[93.3,14749],[93.3,14832],[93.3,14915],[93.3,14999],[93.3,15082],[93.3,15165],[93.3,15249],[93.4,15332],[93.5,15415],[93.5,15499],[93.5,15582],[93.5,15665],[93.5,15749],[93.5,15832],[93.5,15915],[93.5,15999],[93.5,16082],[93.5,16165],[93.5,16249],[93.5,16332],[93.5,16415],[93.5,16499],[93.5,16582],[93.5,16665],[93.5,16749],[93.5,16832],[93.5,16915],[93.5,16999],[93.5,17082],[93.5,17165],[93.5,17249],[93.5,17332],[93.5,17415],[93.5,17499],[93.5,17582],[93.5,17665],[93.5,17749],[93.5,17832],[93.5,17915],[93.5,17999],[93.5,18082],[93.5,18165],[93.5,18249],[93.5,18332],[93.5,18415],[93.5,18498],[93.5,18582],[93.5,18665],[93.5,18749],[93.5,18832],[93.8,18915],[94.8,18998],[94.9,19082],[94.9,19165],[94.9,19249],[94.9,19332],[94.9,19415],[94.9,19498],[94.9,19582],[94.9,19665],[94.9,19748],[94.9,19832],[94.9,19915],[94.9,19999],[94.9,20082],[94.9,20165],[94.9,20249],[94.9,20332],[94.9,20415],[94.9,20499],[94.9,20582],[94.9,20665],[94.9,20749],[94.9,20832],[94.9,20915],[94.9,20998]]",1,0,813.224,814.7738,91.5625,0.6882,"[{""rating"":91.5625,""responseTime"":0.688199999928429}]",space,1.0187,,814.7739,All the time,100,814.7757,,,[],,0,7,7,7,1,audio/Narrative7Situation7.wav,audio/Narrative8Situation7.wav,audio/Narrative5Situation7.wav,audio/Narrative6Situation7.wav,5,3,4,5,,,,,,,,,,,,,,,,,,,,,,,,,,,,,,,,,,,,,,,
,,,,,,65c243c37e0d77ca70ee030e,2024-05-13_11h45.22.265,group3.1-3.2-social-tom,2023.2.2,Win32,62.89308176,65c5074098b851296ff0b7ed,664233c3ed0e515ac8e302e5,,,,,,,,,,,,,,,,,,,,,,,,,,,,,814.7759,2,audio/Narrative5Situation8.wav,817.7903,,817.7903,826.6234,"[[92.6,917],[88.6,999],[84.9,1083],[84.8,1166],[84.8,1249],[84.8,1333],[84.8,1416],[84.8,1499],[84.8,1583],[84.8,1666],[84.3,1749],[83.3,1833],[82.8,1916],[82.5,2000],[82.2,2083],[82.1,2166],[82.1,2249],[82.1,2333],[82.1,2416],[82.1,2499],[82.1,2583],[82.1,2666],[82.1,2749],[82.1,2833],[82.4,2916],[82.7,3000],[83,3083],[83.4,3167],[83.6,3249],[83.6,3333],[83.8,3416],[83.8,3499],[83.9,3583],[84.1,3666],[84.2,3750],[84.3,3833],[84.3,3916],[84.5,3999],[84.6,4083],[84.6,4166],[84.6,4249],[84.6,4333],[84.6,4416],[84.6,4499],[84.6,4583],[84.6,4666],[84.6,4749],[84.6,4832],[84.6,4916],[84.6,4999],[84.6,5083],[84.6,5166],[84.6,5249],[84.6,5334],[84.6,5416],[84.6,5499],[84.6,5582],[84.6,5666],[84.6,5749],[84.6,5833],[84.6,5916],[84.6,5999],[84.6,6083],[84.6,6166],[84.6,6249],[84.6,6332],[84.6,6416],[84.6,6499],[84.6,6582],[84.6,6666],[84.6,6749],[84.6,6832],[84.6,6916],[84.6,6999],[84.6,7082],[84.6,7170],[84.6,7249],[84.6,7333],[84.6,7416],[84.6,7499],[84.6,7583],[84.6,7666],[84.6,7749],[84.6,7833],[84.6,7916],[84.6,7999],[84.6,8082],[84.6,8166],[88.1,8249],[89.5,8332],[89.6,8416],[89.6,8499],[89.6,8582],[89.5,8666],[89.5,8749],[89.5,8832]]",1,0,826.6235,839.5559,88.22916667,2.6378,"[{""rating"":88.22916666666667,""responseTime"":2.6377999999523354}]",space,12.3819,,839.556,Half the time,50,839.5777,,,[],,0,8,8,8,1,audio/Narrative7Situation8.wav,audio/Narrative8Situation8.wav,audio/Narrative5Situation8.wav,audio/Narrative6Situation8.wav,2,3,3,5,,,,,,,,,,,,,,,,,,,,,,,,,,,,,,,,,,,,,,,
,,,,,,65c243c37e0d77ca70ee030e,2024-05-13_11h45.22.265,group3.1-3.2-social-tom,2023.2.2,Win32,62.89308176,65c5074098b851296ff0b7ed,664233c3ed0e515ac8e302e5,,,,,,,,,,,,,,,,,,,,,,,,,,,,,839.5779,2,audio/Narrative5Situation9.wav,842.5891,,842.5891,882.1369,"[[999,0],[999,82],[999,166],[999,249],[999,333],[999,416],[999,499],[999,582],[999,666],[999,749],[999,832],[999,916],[999,999],[999,1082],[999,1166],[999,1249],[999,1332],[999,1416],[999,1499],[999,1582],[999,1666],[999,1749],[999,1833],[999,1916],[999,2000],[81.6,2083],[81.5,2166],[81.5,2249],[81.6,2332],[81.6,2416],[81.6,2499],[82.9,2583],[83.3,2666],[84,2749],[84.6,2833],[85.1,2916],[85.4,2999],[85.5,3082],[85.8,3166],[85.8,3249],[85.8,3332],[85.8,3416],[85.8,3499],[85.8,3582],[85.8,3665],[85.8,3749],[85.8,3832],[85.8,3915],[85.8,3999],[85.8,4082],[85.8,4165],[85.8,4249],[85.8,4332],[85.8,4415],[85.8,4499],[85.8,4582],[85.8,4665],[85.8,4749],[85.8,4832],[85.8,4915],[85.8,4999],[85.8,5082],[85.8,5165],[85.8,5249],[85.8,5332],[85.8,5415],[85.8,5499],[85.8,5582],[85.8,5665],[85.8,5748],[85.8,5832],[85.8,5915],[85.8,5998],[85.8,6082],[85.8,6165],[85.8,6249],[85.8,6332],[85.8,6415],[85.8,6498],[85.8,6582],[85.8,6665],[85.8,6750],[85.8,6832],[85.8,6915],[85.8,6998],[85.8,7082],[85.8,7165],[85.8,7248],[85.8,7332],[85.8,7415],[85.8,7499],[85.8,7582],[85.8,7665],[85.8,7748],[85.8,7832],[85.8,7915],[85.8,7998],[85.8,8082],[85.8,8165],[85.8,8248],[85.8,8332],[85.8,8415],[85.8,8498],[85.8,8582],[85.8,8665],[85.8,8748],[85.8,8832],[85.8,8915],[85.8,8998],[85.8,9082],[85.8,9165],[85.8,9248],[85.8,9332],[85.8,9415],[85.8,9498],[85.8,9582],[85.8,9665],[85.8,9748],[85.8,9832],[85.8,9915],[85.8,9998],[85.8,10082],[85.8,10165],[85.8,10248],[85.8,10332],[85.8,10415],[85.8,10498],[85.8,10582],[85.8,10665],[85.8,10748],[85.8,10832],[85.8,10915],[85.8,10999],[85.8,11081],[85.8,11165],[85.8,11249],[85.8,11332],[85.8,11415],[85.8,11498],[85.8,11582],[85.8,11665],[85.8,11748],[85.8,11832],[85.8,11915],[85.8,11998],[85.8,12082],[86,12174],[86.7,12249],[87,12332],[87.1,12415],[87.8,12499],[88.2,12581],[89.7,12665],[90.3,12748],[91.3,12832],[91.4,12915],[91.4,12998],[91.4,13082],[91.4,13165],[91.4,13248],[91.4,13332],[91.4,13415],[91.4,13498],[91.4,13582],[91.4,13665],[91.4,13748],[91.4,13832],[91.4,13915],[91.4,13998],[91.4,14082],[91.4,14165],[91.4,14248],[91.4,14331],[91.4,14415],[91.4,14498],[91.4,14582],[91.4,14665],[91.4,14748],[91.4,14832],[91.4,14915],[91.4,14998],[91.4,15081],[91.4,15165],[91.4,15248],[91.4,15331],[91.4,15415],[91.4,15498],[91.4,15582],[91.4,15665],[91.4,15748],[91.4,15832],[91.4,15915],[91.4,15998],[91.4,16081],[91.4,16165],[91.4,16248],[91.4,16331],[91.4,16415],[91.4,16498],[91.4,16582],[91.4,16665],[91.4,16748],[91.4,16831],[91.4,16915],[91.4,16998],[91.4,17082],[91.4,17165],[91.4,17248],[91.4,17331],[91.4,17415],[91.4,17498],[91.4,17581],[91.4,17665],[91.4,17748],[91.4,17831],[91.4,17915],[91.4,17998],[91.4,18081],[91.4,18165],[91.4,18248],[91.4,18331],[91.4,18414],[91.4,18498],[91.4,18581],[91.4,18665],[91.4,18748],[91.4,18831],[91.4,18915],[91.4,18998],[91.4,19081],[91.4,19165],[91.4,19248],[91.4,19331],[91.4,19415],[91.4,19498],[91.4,19581],[91.4,19665],[91.4,19748],[91.4,19831],[91.4,19915],[91.4,19998],[91.4,20081],[91.4,20165],[91.4,20249],[91.4,20331],[91.4,20415],[91.4,20498],[91.4,20581],[91.4,20665],[91.4,20748],[91.4,20831],[91.4,20915],[91.4,20998],[91.4,21081],[91.4,21165],[91.4,21248],[91.4,21331],[91.4,21414],[91.4,21499],[91.4,21582],[91.4,21664],[91.4,21748],[91.4,21831],[91.4,21915],[91.4,21998],[91.4,22081],[91.4,22165],[91.4,22247],[91.4,22331],[91.4,22417],[91.4,22498],[91.4,22581],[91.4,22664],[91.4,22748],[91.4,22831],[91.4,22914],[91.4,22997],[91.4,23081],[91.4,23165],[91.4,23248],[91.4,23331],[91.4,23414],[91.4,23497],[91.4,23581],[92.1,23665],[93.5,23748],[93.8,23831],[94.2,23914],[94.3,23998],[94.3,24081],[94.3,24164],[94.3,24248],[94.3,24331],[94.3,24414],[94.3,24498],[94.3,24581],[94.3,24664],[94.3,24747],[94.3,24831],[94.3,24914],[94.3,24997],[94.3,25081],[94.3,25165],[94.3,25247],[94.3,25331],[94.3,25414],[94.3,25497],[94.3,25581],[94.3,25664],[94.3,25747],[94.3,25831],[94.3,25914],[94.3,25997],[94.3,26081],[94.3,26164],[94.3,26247],[94.3,26331],[94.3,26414],[94.3,26497],[94.3,26581],[94.3,26664],[94.3,26747],[94.3,26831],[94.3,26914],[94.3,26997],[94.3,27081],[94.3,27164],[94.3,27247],[94.3,27331],[94.3,27414],[94.3,27497],[94.3,27581],[94.3,27664],[94.3,27747],[94.3,27831],[94.3,27914],[94.3,27997],[94.3,28081],[94.3,28164],[94.3,28247],[94.3,28331],[94.3,28415],[94.3,28497],[94.3,28581],[94.3,28664],[94.3,28747],[94.3,28831],[94.3,28914],[94.3,28997],[94.3,29081],[94.3,29164],[94.3,29247],[94.3,29331],[94.3,29414],[94.3,29498],[94.3,29581],[94.3,29664],[94.3,29747],[94.3,29831],[94.3,29914],[94.3,29998],[94.3,30080],[94.3,30164],[94.3,30247],[94.3,30331],[94.3,30414],[94.3,30497],[94.3,30581],[94.3,30664],[94.3,30747],[94.3,30831],[94.3,30914],[94.3,30997],[94.3,31080],[94.3,31164],[94.3,31247],[94.3,31330],[94.3,31414],[94.3,31497],[94.3,31581],[94.3,31664],[94.3,31747],[94.3,31831],[94.3,31914],[94.3,31997],[94.3,32080],[94.3,32164],[94.3,32247],[94.3,32331],[94.3,32414],[94.3,32497],[94.3,32580],[94.3,32664],[94.3,32747],[94.3,32830],[94.3,32914],[94.3,32997],[94.3,33080],[94.3,33164],[94.3,33247],[94.3,33330],[94.3,33414],[94.3,33497],[94.3,33580],[94.3,33664],[94.3,33747],[94.3,33831],[94.3,33914],[94.3,33998],[94.3,34081],[94.3,34164],[94.3,34247],[94.3,34331],[94.3,34414],[94.3,34497],[94.3,34580],[94.3,34664],[94.3,34747],[94.3,34830],[94.3,34913],[94.3,34997],[94.3,35081],[94.3,35164],[94.3,35247],[94.3,35330],[94.3,35414],[94.3,35497],[94.3,35580],[94.3,35663],[94.3,35747],[94.3,35831],[94.3,35913],[94.3,35997],[94.3,36080],[94.3,36164],[94.3,36247],[94.3,36330],[94.3,36413],[94.3,36497],[94.3,36580],[94.3,36663],[94.3,36747],[94.3,36830],[94.3,36913],[94.3,36997],[94.3,37080],[94.3,37163],[94.3,37247],[94.3,37330],[94.3,37413],[94.3,37497],[94.3,37580],[94.3,37663],[94.3,37747],[94.3,37830],[94.3,37913],[94.3,37997],[94.3,38080],[94.3,38164],[94.3,38247],[94.3,38330],[94.3,38413],[94.3,38497],[94.3,38580],[94.3,38663],[94.3,38746],[94.3,38830],[94.3,38913],[94.3,38997],[94.3,39080],[94.3,39163],[94.3,39247],[94.3,39330],[94.3,39413],[94.3,39497]]",1,0,882.1373,884.5363,93.54166667,1.3446,"[{""rating"":93.54166666666667,""responseTime"":1.3446000000238882}]",space,1.8512,,884.5363,Half the time,50,884.5392,,,[],,0,9,9,9,1,audio/Narrative7Situation9.wav,audio/Narrative8Situation9.wav,audio/Narrative5Situation9.wav,audio/Narrative6Situation9.wav,2,3,3,4,,,,,,,,,,,,,,,,,,,,,,,,,,,,,,,,,,,,,,,
,,,,,,65c243c37e0d77ca70ee030e,2024-05-13_11h45.22.265,group3.1-3.2-social-tom,2023.2.2,Win32,62.89308176,65c5074098b851296ff0b7ed,664233c3ed0e515ac8e302e5,,,,,,,,,,,,,,,,,,,,,,,,,,,,,884.5394,2,audio/Narrative6Situation1.wav,886.5531,,886.5531,913.1516,"[[93.2,2000],[89.2,2083],[88.4,2166],[85.4,2249],[83,2333],[82.5,2416],[80.6,2500],[74.4,2582],[69.9,2666],[67.7,2749],[60.2,2833],[54.9,2916],[54.8,2999],[58.5,3083],[61.3,3166],[61.6,3249],[63.4,3332],[68.5,3416],[74,3499],[81.6,3582],[83.8,3666],[86.7,3749],[87.5,3832],[87.5,3916],[87.5,3999],[87.5,4082],[87.5,4166],[87.5,4249],[87.5,4332],[87.5,4416],[87.5,4499],[87.5,4582],[87.5,4666],[87.5,4749],[87.5,4832],[87.5,4916],[87.5,4999],[87.5,5082],[87.5,5165],[87.5,5249],[87.5,5332],[87.5,5416],[87.5,5499],[87.5,5582],[87.5,5665],[87.5,5749],[87.5,5832],[87.5,5915],[87.5,5999],[87.5,6082],[87.5,6165],[87.5,6249],[87.5,6332],[87.5,6415],[87.5,6499],[87.5,6582],[87.5,6665],[87.5,6749],[87.5,6832],[87.5,6915],[87.5,6999],[87.5,7082],[87.5,7165],[87.5,7249],[87.5,7332],[87.5,7416],[87.5,7499],[87.5,7582],[87.5,7665],[87.5,7749],[87.5,7832],[87.5,7915],[87.5,7999],[87.5,8082],[87.5,8166],[87.5,8249],[87.5,8332],[87.5,8415],[87.5,8499],[87.5,8582],[87.5,8665],[87.5,8749],[87.5,8832],[87.5,8915],[87.5,8999],[87.5,9082],[87.5,9165],[87.5,9249],[87.5,9332],[87.5,9415],[87.5,9499],[87.5,9582],[87.5,9665],[87.5,9749],[87.5,9832],[87.5,9915],[87.5,9999],[87.5,10082],[87.5,10165],[87.5,10248],[87.5,10332],[87.5,10415],[87.5,10500],[87.5,10582],[87.5,10666],[87.5,10749],[87.5,10832],[87.5,10915],[87.5,10999],[87.5,11082],[87.5,11165],[87.5,11248],[87.5,11332],[87.5,11415],[87.5,11498],[87.5,11582],[87.5,11665],[87.5,11749],[87.5,11832],[87.5,11915],[87.5,11999],[87.5,12082],[87.5,12165],[87.5,12249],[87.5,12332],[87.5,12415],[87.5,12498],[87.5,12582],[87.5,12665],[87.5,12748],[87.5,12832],[87.5,12915],[87.5,12999],[87.5,13082],[87.5,13165],[87.5,13248],[87.5,13332],[87.5,13415],[87.5,13498],[87.5,13581],[87.5,13665],[87.5,13748],[87.5,13831],[87.5,13915],[87.5,13998],[87.5,14082],[87.5,14165],[87.5,14249],[87.5,14332],[87.5,14415],[87.5,14498],[87.5,14582],[87.5,14665],[87.5,14748],[87.5,14832],[87.5,14915],[87.5,14999],[87.5,15082],[87.5,15165],[87.5,15248],[87.5,15332],[87.5,15415],[87.5,15498],[87.5,15581],[87.5,15665],[87.5,15748],[87.5,15833],[87.5,15915],[87.5,15998],[87.5,16081],[87.5,16165],[87.5,16248],[87.5,16331],[87.5,16415],[87.5,16498],[87.5,16581],[87.5,16665],[87.5,16748],[87.5,16831],[87.5,16914],[87.5,16998],[87.5,17081],[87.5,17165],[87.5,17248],[87.5,17331],[87.5,17415],[87.5,17498],[87.5,17581],[87.5,17665],[87.5,17748],[87.5,17831],[87.5,17915],[87.5,17998],[87.5,18082],[87.5,18164],[87.5,18248],[87.5,18331],[87.5,18415],[87.5,18498],[87.5,18581],[87.5,18664],[87.5,18748],[87.5,18831],[87.5,18914],[87.5,18998],[87.5,19081],[87.5,19164],[87.5,19248],[87.5,19331],[87.5,19415],[87.5,19498],[87.5,19581],[87.5,19664],[87.5,19748],[87.5,19831],[87.5,19915],[87.5,19998],[87.5,20081],[87.5,20164],[87.5,20248],[87.5,20331],[87.5,20414],[87.5,20498],[87.5,20581],[87.5,20664],[87.5,20748],[87.5,20831],[87.5,20914],[87.5,20998],[87.5,21081],[87.5,21164],[87.5,21248],[87.5,21331],[87.5,21414],[87.5,21498],[87.5,21581],[87.5,21664],[87.5,21748],[87.5,21831],[87.5,21914],[87.5,21998],[87.5,22081],[87.5,22164],[87.5,22248],[87.5,22331],[87.5,22414],[87.5,22498],[87.5,22581],[87.5,22664],[87.5,22748],[87.5,22831],[87.5,22914],[87.5,22998],[87.5,23081],[87.8,23164],[88.5,23248],[89.5,23331],[89.9,23414],[90.1,23498],[90.2,23581],[90.2,23664],[90.2,23748],[90.2,23831],[90.2,23914],[90.2,23998],[90.2,24081],[90.2,24164],[90.2,24248],[90.2,24331],[90.2,24414],[90.2,24497],[90.2,24581],[90.2,24664],[90.2,24748],[90.2,24831],[90.2,24914],[90.2,24998],[90.2,25081],[90.2,25164],[90.2,25248],[90.2,25331],[90.2,25414],[90.2,25498],[90.2,25581],[90.2,25664],[90.2,25748],[90.2,25831],[90.2,25914],[90.2,25998],[90.2,26081],[90.2,26164],[90.2,26248],[90.2,26331],[90.2,26414],[90.2,26498],[90.2,26581]]",1,0,913.1519,916.2179,85.52083333,2.1966,"[{""rating"":85.52083333333333,""responseTime"":2.19660000002375}]",space,2.5194,,916.218,All the time,100,916.2232,,,[],,0,10,10,10,1,audio/Narrative8Situation1.wav,audio/Narrative7Situation1.wav,audio/Narrative6Situation1.wav,audio/Narrative5Situation1.wav,5,2,2,5,,,,,,,,,,,,,,,,,,,,,,,,,,,,,,,,,,,,,,,
,,,,,,65c243c37e0d77ca70ee030e,2024-05-13_11h45.22.265,group3.1-3.2-social-tom,2023.2.2,Win32,62.89308176,65c5074098b851296ff0b7ed,664233c3ed0e515ac8e302e5,,,,,,,,,,,,,,,,,,,,,,,,,,,,,916.2235,2,audio/Narrative6Situation2.wav,919.2344,,919.2344,947.7495,"[[81.8,1499],[79.6,1583],[79.6,1666],[79.6,1749],[79.6,1832],[79.6,1916],[79.6,1999],[79.6,2082],[79.6,2166],[79.6,2249],[79.6,2332],[79.6,2416],[79.6,2499],[79.6,2582],[79.6,2666],[79.6,2749],[79.6,2832],[79.6,2916],[79.6,2999],[79.6,3082],[79.6,3166],[79.6,3249],[79.6,3332],[79.7,3416],[80,3499],[85.3,5332],[85,5416],[84.9,5499],[84.9,5582],[84.9,5666],[84.9,5749],[84.9,5832],[85,5915],[85.3,5999],[85.7,6082],[85.8,6165],[85.9,6249],[85.9,6332],[85.9,6415],[85.9,6499],[85.9,6582],[85.9,6665],[85.9,6749],[85.9,6832],[85.9,6915],[85.9,6998],[85.9,7082],[85.9,7165],[85.9,7249],[85.9,7332],[85.9,7416],[85.9,7499],[85.9,7582],[85.9,7665],[85.9,7749],[85.9,7832],[85.9,7915],[85.9,7999],[85.9,8082],[85.9,8165],[85.9,8249],[85.9,8332],[85.9,8415],[85.9,8499],[85.9,8582],[85.9,8665],[85.9,8748],[85.9,8832],[85.9,8915],[85.9,8999],[85.9,9082],[85.9,9165],[85.9,9249],[85.9,9332],[85.9,9415],[85.9,9498],[85.9,9582],[85.9,9665],[85.9,9749],[85.9,9832],[85.9,9915],[85.9,9998],[85.9,10082],[85.9,10165],[85.9,10248],[85.9,10332],[85.9,10415],[85.9,10498],[85.9,10582],[85.9,10665],[85.9,10748],[85.9,10832],[85.9,10915],[85.9,10998],[85.9,11082],[85.9,11165],[85.9,11249],[85.9,11332],[85.9,11415],[85.9,11498],[85.9,11582],[85.9,11665],[85.9,11748],[85.9,11833],[85.9,11915],[85.9,11999],[85.9,12082],[85.9,12165],[85.9,12249],[85.9,12331],[85.9,12415],[85.9,12498],[85.9,12582],[85.9,12665],[85.9,12748],[85.9,12832],[85.9,12915],[85.9,12998],[85.9,13082],[85.9,13165],[85.9,13248],[85.9,13332],[85.9,13415],[85.9,13498],[85.9,13582],[85.9,13665],[85.9,13749],[85.9,13832],[85.9,13915],[85.9,13998],[85.9,14082],[85.9,14165],[85.9,14248],[85.9,14332],[85.9,14415],[85.9,14498],[85.9,14582],[85.9,14665],[85.9,14748],[85.9,14831],[85.9,14914],[85.9,14998],[85.9,15081],[85.9,15165],[85.9,15248],[85.9,15331],[85.9,15414],[85.9,15498],[85.9,15582],[85.9,15664],[85.9,15748],[85.9,15831],[85.9,15915],[85.9,15998],[85.9,16082],[85.9,16165],[85.9,16248],[85.9,16332],[85.9,16415],[85.9,16498],[85.9,16582],[85.9,16665],[85.9,16748],[85.9,16832],[85.9,16915],[85.9,16998],[85.9,17082],[85.9,17165],[85.9,17248],[85.9,17331],[85.9,17414],[85.9,17498],[85.9,17581],[85.9,17665],[85.9,17748],[85.9,17832],[85.9,17915],[85.9,17998],[85.9,18081],[85.9,18165],[85.9,18248],[85.9,18331],[85.9,18415],[85.9,18498],[85.9,18582],[85.9,18665],[85.9,18748],[85.9,18831],[85.9,18914],[85.9,18998],[85.9,19081],[85.9,19164],[85.9,19248],[85.9,19332],[85.9,19415],[85.9,19498],[85.9,19581],[85.9,19664],[85.9,19748],[85.9,19831],[85.9,19914],[85.9,19998],[85.9,20081],[85.9,20164],[85.9,20248],[85.9,20331],[85.9,20414],[85.9,20498],[85.9,20581],[85.9,20664],[85.9,20748],[85.9,20831],[85.9,20914],[85.9,20998],[85.9,21081],[85.9,21164],[85.9,21248],[85.9,21331],[85.9,21414],[85.9,21498],[85.9,21581],[85.9,21664],[85.9,21748],[85.9,21831],[85.9,21914],[85.9,21998],[85.9,22081],[86.7,22164],[88.1,22248],[90.1,22331],[90.6,22414],[90.6,22498],[90.6,22581],[90.6,22664],[90.6,22748],[90.6,22831],[90.6,22914],[90.6,22998],[90.3,23081],[90,23164],[90,23248],[90,23331],[90,23414],[90,23498],[90,23581],[90,23664],[90,23747],[90,23831],[90,23914],[90,23998],[90,24081],[90,24164],[90,24248],[89.9,24331],[89.9,24414],[89.7,24498],[89.4,24581],[88.2,24664],[84.8,24748],[82.1,24831],[79.3,24914],[77.4,24998],[77.1,25081],[76.4,25164],[76,25247],[75.9,25331],[75.8,25414],[75.1,25498],[75,25581],[75,25664],[75,25748],[75,25831],[74.9,25914],[74.9,25997],[75.5,26081],[77.9,26164],[81.4,26248],[82.7,26332],[84.7,26414],[85.2,26497],[85.5,26581],[85.5,26664],[85.5,26747],[85.5,26831],[85.5,26915],[85.5,26997],[85.5,27081],[85.5,27164],[85.5,27247],[85.5,27331],[85.5,27414],[85.5,27497],[85.5,27581],[85.5,27664],[85.5,27748],[85.5,27831],[85.5,27914],[85.5,27997],[85.5,28081],[85.5,28164],[85.5,28247],[85.5,28331],[85.5,28414],[85.5,28497]]",1,0,947.7497,949.299,85.72916667,0.7878,"[{""rating"":85.72916666666667,""responseTime"":0.7878000000715701}]",space,0.9991,,949.2992,Not at all,0,949.3038,,,[],,0,11,11,11,1,audio/Narrative8Situation2.wav,audio/Narrative7Situation2.wav,audio/Narrative6Situation2.wav,audio/Narrative5Situation2.wav,3,3,3,3,,,,,,,,,,,,,,,,,,,,,,,,,,,,,,,,,,,,,,,
,,,,,,65c243c37e0d77ca70ee030e,2024-05-13_11h45.22.265,group3.1-3.2-social-tom,2023.2.2,Win32,62.89308176,65c5074098b851296ff0b7ed,664233c3ed0e515ac8e302e5,,,,,,,,,,,,,,,,,,,,,,,,,,,,,949.3042,2,audio/Narrative6Situation3.wav,954.3155,,954.3155,966.9314,"[[999,17],[999,82],[999,166],[999,249],[999,332],[999,416],[999,500],[83.9,583],[83.5,666],[83.3,750],[83.3,832],[83.3,916],[83.3,999],[83.3,1083],[83.3,1166],[83.3,1249],[83.3,1332],[83.3,1416],[83.3,1499],[83.3,1582],[83.3,1666],[83.3,1749],[83.3,1832],[83.3,1916],[83.3,2000],[83.3,2082],[83.3,2166],[83.3,2249],[83.3,2332],[83.3,2416],[83.3,2499],[83.3,2582],[83.3,2666],[83.3,2749],[83.3,2832],[83.3,2916],[83.3,2999],[83.3,3082],[83.3,3166],[83.3,3249],[83.3,3332],[83.3,3416],[83.3,3499],[83.3,3582],[83.3,3666],[83.3,3749],[83.3,3832],[83.3,3916],[83.3,3999],[83.3,4082],[83.3,4166],[83.3,4249],[83.3,4332],[83.3,4416],[83.3,4499],[83.3,4582],[83.3,4666],[83.3,4749],[83.3,4832],[83.3,4915],[83.3,4999],[83.3,5082],[83.3,5165],[83.3,5249],[83.3,5332],[83.3,5416],[83.3,5499],[83.3,5582],[83.3,5666],[83.3,5749],[83.3,5832],[83.3,5916],[83.3,5999],[83.3,6082],[83.3,6166],[83.3,6249],[83.3,6332],[83.3,6416],[83.3,6499],[83.3,6582],[83.3,6666],[83.3,6749],[83.3,6832],[83.3,6916],[83.3,6999],[83.3,7082],[83.3,7166],[83.3,7249],[83.3,7332],[83.3,7416],[83.3,7499],[83.3,7582],[83.3,7666],[83.3,7749],[83.3,7832],[83.3,7915],[83.3,7999],[83.3,8082],[83.3,8166],[83.3,8249],[83.3,8332],[83.3,8415],[83.3,8499],[83.3,8582],[83.3,8665],[83.3,8749],[83.3,8832],[83.3,8915],[83.3,8999],[83.3,9082],[83.3,9166],[83.3,9249],[83.3,9332],[83.3,9415],[83.3,9499],[83.3,9582],[83.3,9665],[83.3,9749],[83.3,9832],[83.3,9915],[83.3,9999],[83.3,10082],[83.3,10165],[83.3,10249],[83.3,10332],[83.3,10415],[83.3,10499],[83.3,10582],[83.3,10665],[83.3,10749],[83.3,10835],[83.3,10915],[83.3,10999],[83.3,11082],[83.3,11165],[83.3,11249],[83.3,11332],[83.3,11415],[83.3,11499],[83.3,11582],[83.3,11665],[83.3,11749],[83.3,11832],[83.3,11915],[83.8,11998],[84.1,12082],[84.1,12165],[84.1,12248],[84.1,12332],[84.1,12415],[84.1,12499],[84.1,12582]]",1,0,966.9316,968.8315,83.54166667,1.072,"[{""rating"":83.54166666666667,""responseTime"":1.0720000000000027}]",space,1.3517,,968.8317,All the time,100,968.8348,,,[],,0,12,12,12,1,audio/Narrative8Situation3.wav,audio/Narrative7Situation3.wav,audio/Narrative6Situation3.wav,audio/Narrative5Situation3.wav,4,8,5,3,,,,,,,,,,,,,,,,,,,,,,,,,,,,,,,,,,,,,,,
