exp_question,consent.started,consent.stopped,consentResponse.keys,consentResponse.rt,consentResponse.duration,participantID,date,expName,psychopyVersion,OS,frameRate,STUDY_ID,SESSION_ID,opening1.started,opening1.stopped,keyEndingOpening1.keys,keyEndingOpening1.rt,keyEndingOpening1.duration,volumeAdjust.started,volumeAdjust.stopped,endingAdjust.keys,endingAdjust.rt,endingAdjust.duration,opening2.started,opening2.stopped,keyEndingOpening.keys,keyEndingOpening.rt,keyEndingOpening.duration,mouse.x,mouse.y,mouse.leftButton,mouse.midButton,mouse.rightButton,mouse.time,instructionLoop.thisRepN,instructionLoop.thisTrialN,instructionLoop.thisN,instructionLoop.thisIndex,instructionLoop.ran,readyForAudio.started,readyForAudio.stopped,fixation.started,run,audio_played,fixation.stopped,endPractice.keys,audioPre.started,audioPre.stopped,continuousResponses_audio,continuousSlider.response,continuousSlider.rt,intRating.started,intRating.stopped,intQuestionSlider.response,intQuestionSlider.rt,intQuestionSlider.history,confirmResponse.keys,confirmResponse.rt,confirmResponse.duration,catchQuestion.started,catch_label,catch_value,catchQuestion.stopped,catchQuestionSlider.response,catchQuestionSlider.rt,catchQuestionSlider.history,confirmResponse_2.keys,audioRunLoop.thisRepN,audioRunLoop.thisTrialN,audioRunLoop.thisN,audioRunLoop.thisIndex,audioRunLoop.ran,conditions1_1,conditions2_1,conditions1_2,conditions2_2,dur1_1,dur2_1,dur1_2,dur2_2,endPractice.rt,endPractice.duration,confirmResponse_2.rt,confirmResponse_2.duration,runIntervalBreak.started,runIntervalBreak.stopped,endingBreakKey.keys,endingBreakKey.rt,endingBreakKey.duration,connection.started,connection.stopped,connectionEnding.keys,connectionEnding.rt,connectionEnding.duration,readyForText.started,readyForText.stopped,textPre.started,run_dup,textPre.stopped,continuousResponses_text,textRunLoop.thisRepN,textRunLoop.thisTrialN,textRunLoop.thisN,textRunLoop.thisIndex,textRunLoop.ran,text1_1,text1_2,text2_1,text2_2,runBreakText.started,runBreakText.stopped,endingBreakKey_2.keys,endingBreakKey_2.rt,endingBreakKey_2.duration,ending.started,ending.stopped,endingEnding.keys,endingEnding.rt,endingEnding.duration
social,0.002,20.67,y,20.341,,65c25cf77dca9d7ca7d9ebdb,2024-02-08_09h41.50.619,group3.1-3.2-social-tom,2023.2.2,Win32,60.0240096,65c5074098b851296ff0b7ed,65c51249c55d9e86fc51f0f0,,,,,,,,,,,,,,,,,,,,,,,,,,,,,,,,,,,,,,,,,,,,,,,,,,,,,,,,,,,,,,,,,,,,,,,,,,,,,,,,,,,,,,,,,,,,,,,,,,,,,,,,,,
,,,,,,65c25cf77dca9d7ca7d9ebdb,2024-02-08_09h41.50.619,group3.1-3.2-social-tom,2023.2.2,Win32,60.0240096,65c5074098b851296ff0b7ed,65c51249c55d9e86fc51f0f0,20.67,26.821,space,6.108,,,,,,,,,,,,,,,,,,,,,,,,,,,,,,,,,,,,,,,,,,,,,,,,,,,,,,,,,,,,,,,,,,,,,,,,,,,,,,,,,,,,,,,,,,,,,,,,,,,,,,
,,,,,,65c25cf77dca9d7ca7d9ebdb,2024-02-08_09h41.50.619,group3.1-3.2-social-tom,2023.2.2,Win32,60.0240096,65c5074098b851296ff0b7ed,65c51249c55d9e86fc51f0f0,,,,,,26.821,49.62,space,22.472,,,,,,,,,,,,,,,,,,,,,,,,,,,,,,,,,,,,,,,,,,,,,,,,,,,,,,,,,,,,,,,,,,,,,,,,,,,,,,,,,,,,,,,,,,,,,,,,,
,,,,,,65c25cf77dca9d7ca7d9ebdb,2024-02-08_09h41.50.619,group3.1-3.2-social-tom,2023.2.2,Win32,60.0240096,65c5074098b851296ff0b7ed,65c51249c55d9e86fc51f0f0,,,,,,,,,,,49.626,59.787,space,10.125,,[],[],[],[],[],[],0,0,0,0,1,,,,,,,,,,,,,,,,,,,,,,,,,,,,,,,,,,,,,,,,,,,,,,,,,,,,,,,,,,,,,,,,,,,,,,,,,,,,,,,,
,,,,,,65c25cf77dca9d7ca7d9ebdb,2024-02-08_09h41.50.619,group3.1-3.2-social-tom,2023.2.2,Win32,60.0240096,65c5074098b851296ff0b7ed,65c51249c55d9e86fc51f0f0,,,,,,,,,,,59.787,77.12,space,17.258,,[],[],[],[],[],[],1,0,1,0,1,,,,,,,,,,,,,,,,,,,,,,,,,,,,,,,,,,,,,,,,,,,,,,,,,,,,,,,,,,,,,,,,,,,,,,,,,,,,,,,,
,,,,,,65c25cf77dca9d7ca7d9ebdb,2024-02-08_09h41.50.619,group3.1-3.2-social-tom,2023.2.2,Win32,60.0240096,65c5074098b851296ff0b7ed,65c51249c55d9e86fc51f0f0,,,,,,,,,,,77.121,80.437,space,3.268,,[],[],[],[],[],[],2,0,2,0,1,,,,,,,,,,,,,,,,,,,,,,,,,,,,,,,,,,,,,,,,,,,,,,,,,,,,,,,,,,,,,,,,,,,,,,,,,,,,,,,,
,,,,,,65c25cf77dca9d7ca7d9ebdb,2024-02-08_09h41.50.619,group3.1-3.2-social-tom,2023.2.2,Win32,60.0240096,65c5074098b851296ff0b7ed,65c51249c55d9e86fc51f0f0,,,,,,,,,,,80.437,97.436,space,16.947,,[],[],[],[],[],[],3,0,3,0,1,,,,,,,,,,,,,,,,,,,,,,,,,,,,,,,,,,,,,,,,,,,,,,,,,,,,,,,,,,,,,,,,,,,,,,,,,,,,,,,,
,,,,,,65c25cf77dca9d7ca7d9ebdb,2024-02-08_09h41.50.619,group3.1-3.2-social-tom,2023.2.2,Win32,60.0240096,65c5074098b851296ff0b7ed,65c51249c55d9e86fc51f0f0,,,,,,,,,,,97.436,105.069,space,7.608,,[],[],[],[],[],[],4,0,4,0,1,,,,,,,,,,,,,,,,,,,,,,,,,,,,,,,,,,,,,,,,,,,,,,,,,,,,,,,,,,,,,,,,,,,,,,,,,,,,,,,,
,,,,,,65c25cf77dca9d7ca7d9ebdb,2024-02-08_09h41.50.619,group3.1-3.2-social-tom,2023.2.2,Win32,60.0240096,65c5074098b851296ff0b7ed,65c51249c55d9e86fc51f0f0,,,,,,,,,,,,,,,,,,,,,,,,,,,105.071,107.652,107.663,1,audio/Narrative13Situation2.wav,109.669,,109.669,139.419,"[[67,8333],[82.8,8416],[83,8499],[89.5,8583],[95.5,8749],[94.6,8833],[94.2,8916],[92,8999],[91.6,9083],[91.6,9166],[91.6,9249],[91.6,9332],[91.6,9415],[91.5,9499],[89.6,9582],[93,10166],[93.4,10249],[93.6,10333],[93,10416],[91.6,10499],[91.5,10582],[91.5,10666],[91.5,10749],[91.5,10833],[91.6,10916],[91.6,10999],[91.6,11083],[91.6,11166],[91.6,11249],[91.6,11332],[91.6,11416],[91.6,11499],[91.6,11582],[91.6,11666],[91.6,11749],[91.6,11833],[91.6,11916],[91.6,11999],[91.6,12082],[91.6,12166],[91.6,12249],[91.6,12332],[91.6,12416],[91.6,12499],[91.6,12582],[91.6,12666],[91.6,12749],[91.6,12832],[91.6,12916],[91.6,12999],[91.6,13082],[91.6,13165],[91.4,13249],[91.4,13333],[91.4,13415],[91.4,13499],[91.4,13582],[91.4,13666],[91.4,13749],[91.4,13833],[91.4,13915],[91.2,13999],[91,14082],[90.9,14165],[90.9,14249],[90.9,14332],[90.9,14415],[90.9,14499],[90.9,14582],[90.9,14665],[90.9,14749],[90.9,14832],[90.9,14915],[90.9,14999],[91,15083],[91.5,15165],[91.6,15249],[91.6,15332],[91.6,15415],[91.6,15499],[91.6,15582],[91.6,15665],[86,15750],[83.8,15832],[82,15915],[69.8,15999],[62.7,16082],[62.4,16165],[59.1,16249],[56.3,16332],[54,16415],[49.8,16499],[46.9,16582],[44.8,16666],[44.1,16749],[44,16832],[44,16915],[44.1,16999],[46.3,17082],[46.3,17166],[43.9,17249],[33.3,17332],[25.3,17415],[23.6,17499],[22.9,17583],[21.6,17666],[21.6,17749],[21.6,17832],[21.6,17916],[21.6,17999],[21.6,18082],[21.6,18166],[21.6,18249],[21.6,18332],[21.6,18415],[21.6,18499],[21.6,18582],[21.6,18665],[21.6,18749],[21.6,18832],[21.6,18915],[21.6,18999],[21.6,19082],[21.5,19166],[21.2,19249],[21.2,19333],[21.2,19415],[21.2,19499],[21.2,19583],[21.2,19666],[21.2,19749],[21.2,19833],[21.2,19915],[21.2,19999],[21.2,20082],[21.2,20165],[21.2,20249],[21.2,20332],[21.2,20415],[21.2,20499],[21.2,20582],[21.2,20666],[21.2,20749],[21.2,20832],[21.2,20915],[21.2,20999],[21.2,21083],[21.2,21165],[21.2,21249],[21.2,21332],[21.2,21415],[21.2,21499],[21.2,21582],[21.2,21665],[21.2,21749],[21.2,21832],[21.2,21915],[21.2,21999],[21.2,22083],[21.2,22165],[21.2,22249],[21.2,22332],[21.2,22415],[21.2,22499],[21.2,22582],[21.2,22666],[21.2,22749],[21.2,22832],[21.2,22915],[21.2,23000],[21.2,23082],[21.2,23166],[21.2,23249],[21.2,23332],[21.2,23415],[21.2,23499],[21.2,23582],[22.6,23666],[24.6,23749],[24.6,23832],[24.6,23915],[24.6,23999],[24.6,24082],[24.6,24166],[24.6,24249],[24.6,24332],[24.6,24415],[24.6,24499],[24.6,24583],[24.6,24665],[24.6,24749],[24.6,24832],[24.6,24916],[24.6,24999],[24.6,25082],[24.6,25165],[24.6,25249],[24.6,25332],[24.6,25415],[24.6,25499],[24.6,25582],[24.6,25666],[24.6,25749],[24.6,25832],[24.6,25915],[24.6,25999],[24.6,26082],[24.6,26165],[24.6,26249],[24.6,26332],[24.6,26416],[24.6,26499],[24.6,26582],[24.6,26665],[24.6,26749],[24.6,26832],[24.6,26915],[24.6,26999],[24.6,27082],[24.6,27165],[24.6,27249],[24.6,27332],[24.6,27416],[24.6,27499],[24.6,27582],[24.6,27666],[24.6,27749],[24.8,27832],[25.4,27916],[24.8,27999],[24.8,28082],[24.8,28166],[24.8,28249],[24.8,28332],[24.8,28416],[24.7,28499],[24.6,28582],[24.6,28666],[24.6,28749],[24.6,28832],[24.6,28915],[24.6,28999],[24.6,29082],[24.6,29165],[24.6,29249],[24.6,29332],[24.6,29416],[24.6,29499],[24.6,29582],[24.6,29665],[24.6,29749]]",1,0,139.419,153.469,19.140625,10.764,"[{""rating"":19.140625,""responseTime"":10.76400000000001}]",space,13.516,,153.469,Partially,50,153.472,,,[],,0,0,0,0,1,audio/Narrative13Situation2.wav,audio/Narrative13Situation2.wav,audio/Narrative13Situation2.wav,audio/Narrative13Situation2.wav,2,2,2,2,,,,,,,,,,,,,,,,,,,,,,,,,,,,,,,,,,,,,,,
,,,,,,65c25cf77dca9d7ca7d9ebdb,2024-02-08_09h41.50.619,group3.1-3.2-social-tom,2023.2.2,Win32,60.0240096,65c5074098b851296ff0b7ed,65c51249c55d9e86fc51f0f0,,,,,,,,,,,,,,,,,,,,,,,,,,,,,153.473,1,audio/Narrative8Situation1.wav,156.285,space,156.285,172.219,"[[999,1],[999,84],[999,167],[999,250],[999,334],[999,417],[999,500],[999,582],[999,665],[999,750],[999,832],[999,917],[999,1000],[999,1084],[999,1167],[999,1250],[999,1334],[999,1417],[999,1500],[999,1582],[999,1667],[999,1750],[999,1834],[49.2,1917],[49.3,2001],[49.2,2082],[48.7,2167],[44.1,2250],[43.2,2332],[44.7,2417],[45.9,2500],[46.6,2582],[48.1,2667],[48.3,2750],[49,2832],[49.7,2915],[49.7,3001],[49.7,3082],[49.7,3167],[49.7,3250],[49.8,3332],[49.8,3415],[49.8,3500],[49.8,3582],[49.8,3667],[49.8,3750],[49.8,3834],[49.8,3917],[49.8,4000],[49.8,4084],[49.8,4167],[49.8,4250],[49.8,4334],[49.8,4417],[49.8,4500],[49.8,4582],[49.8,4667],[49.8,4750],[49.8,4834],[50.4,4917],[59.6,5000],[73.5,5082],[80,5167],[80.1,5250],[80.1,5334],[81.7,5417],[84.5,5500],[86.2,5582],[87.4,5667],[87.9,5751],[87.9,5832],[88,5917],[88.9,6000],[89.4,6084],[89.4,6165],[89.4,6250],[89.4,6334],[89.4,6417],[89.4,6500],[89.4,6584],[89.4,6665],[89.4,6750],[89.4,6834],[89.4,6917],[89.4,7000],[89.4,7084],[89.4,7165],[89.4,7250],[89.4,7334],[89.4,7417],[89.4,7500],[81.3,7582],[66.3,7667],[60.2,7750],[57.5,7834],[54.4,7917],[53.3,8000],[53,8084],[50.2,8167],[49.8,8250],[49.8,8332],[49.8,8417],[50.3,8500],[50.6,8582],[50.6,8667],[50.6,8750],[50.6,8832],[50.6,8915],[50.6,9000],[50.6,9082],[50.6,9165],[50.6,9250],[50.6,9332],[50.6,9415],[52.7,9500],[67.4,9582],[81.5,9667],[86.8,9750],[90,9832],[91.5,9917],[92.1,10000],[92.1,10082],[91,10167],[90.6,10250],[90.4,10334],[90.4,10417],[90.4,10500],[90.4,10582],[90.4,10667],[90.4,10750],[89.9,10834],[85.1,10917],[81.6,11000],[82.2,11082],[87,11167],[89.2,11250],[89.2,11334],[89.2,11417],[89.2,11500],[89.2,11582],[89.2,11667],[89.2,11750],[89.2,11834],[89.2,11917],[89.2,12000],[89.2,12082],[89.2,12165],[89.2,12250],[89.2,12332],[89.2,12417],[89.2,12500],[89.2,12582],[89.2,12665],[89.2,12750],[89.2,12832],[89.2,12917],[89.2,13000],[89.2,13082],[89.2,13165],[89.2,13250],[89.2,13332],[89.2,13417],[89.2,13500],[89.2,13582],[89.2,13665],[89.2,13750],[89.2,13832],[89.2,13915],[89.2,14000],[89.2,14082],[89.2,14167],[89.2,14250],[89.2,14332],[89.2,14417],[89.2,14500],[89.2,14584],[89.2,14667],[89.2,14750],[89.2,14832],[89.2,14917],[89.2,15000],[89.2,15082],[89.2,15167],[89.2,15250],[89.2,15332],[89.2,15417],[89.2,15500],[89.2,15582],[89.2,15665],[89.2,15750],[89.2,15832],[89.2,15917]]",1,0,172.219,182.502,78.984375,4.941,"[{""rating"":78.984375,""responseTime"":4.9410000000000025}]",space,9.761,,182.502,Definitely yes,100,182.507,,,[],,0,1,1,1,1,audio/Narrative7Situation1.wav,audio/Narrative8Situation1.wav,audio/Narrative5Situation1.wav,audio/Narrative6Situation1.wav,2,5,5,2,2.789,,,,,,,,,,,,,,,,,,,,,,,,,,,,,,,,,,,,,,
,,,,,,65c25cf77dca9d7ca7d9ebdb,2024-02-08_09h41.50.619,group3.1-3.2-social-tom,2023.2.2,Win32,60.0240096,65c5074098b851296ff0b7ed,65c51249c55d9e86fc51f0f0,,,,,,,,,,,,,,,,,,,,,,,,,,,,,182.507,1,audio/Narrative8Situation2.wav,185.518,,185.518,195.652,"[[999,1],[999,84],[999,165],[999,251],[999,334],[999,417],[999,500],[999,584],[999,667],[999,750],[999,834],[999,917],[999,1000],[999,1084],[999,1165],[999,1250],[999,1332],[999,1417],[999,1500],[999,1584],[999,1665],[999,1750],[999,1834],[999,1915],[999,2000],[999,2082],[999,2165],[999,2250],[999,2334],[999,2415],[999,2500],[999,2584],[999,2665],[999,2750],[999,2832],[999,2917],[999,3000],[999,3082],[58.8,3165],[58.5,3250],[47.7,3667],[40.3,3750],[28,3834],[25.6,3917],[22.7,4000],[17.1,4082],[15.9,4167],[15.9,4250],[15.9,4332],[15.9,4415],[15.9,4500],[15.9,4582],[15.9,4667],[15.9,4750],[15.9,4834],[15.9,4917],[15.9,5000],[15.9,5082],[15.9,5167],[15.9,5250],[15.9,5332],[15.9,5417],[15.9,5500],[15.9,5582],[15.9,5665],[15.9,5751],[15.9,5832],[15.9,5917],[15.9,6000],[15.9,6084],[15.9,6165],[15.9,6250],[15.9,6332],[15.9,6417],[15.9,6501],[15.9,6584],[16.2,6667],[16.3,6750],[16.4,6832],[16.4,6917],[16.4,7000],[16.4,7082],[16.4,7167],[16.4,7250],[16.4,7332],[16.4,7417],[16.4,7500],[16.4,7582],[16.4,7665],[16.3,7750],[16.3,7834],[16.3,7917],[16.3,8000],[16.3,8084],[16.5,8167],[16.5,8250],[16.5,8332],[16.5,8417],[16.5,8500],[16.5,8584],[16.5,8667],[16.5,8750],[16.5,8834],[16.5,8917],[16.5,9000],[16.5,9084],[16.5,9167],[16.5,9250],[16.5,9332],[16.5,9417],[16.5,9500],[16.5,9582],[16.5,9667],[16.5,9750],[16.5,9834],[16.5,9917],[16.5,10000],[16.5,10082]]",1,0,195.652,199.452,13.984375,1.057,"[{""rating"":13.984374999999998,""responseTime"":1.0570000000000164}]",space,3.262,,199.452,Partially,50,199.459,,,[],,0,2,2,2,1,audio/Narrative7Situation2.wav,audio/Narrative8Situation2.wav,audio/Narrative5Situation2.wav,audio/Narrative6Situation2.wav,3,3,3,3,,,,,,,,,,,,,,,,,,,,,,,,,,,,,,,,,,,,,,,
,,,,,,65c25cf77dca9d7ca7d9ebdb,2024-02-08_09h41.50.619,group3.1-3.2-social-tom,2023.2.2,Win32,60.0240096,65c5074098b851296ff0b7ed,65c51249c55d9e86fc51f0f0,,,,,,,,,,,,,,,,,,,,,,,,,,,,,199.46,1,audio/Narrative8Situation3.wav,203.468,,203.468,225.835,"[[999,1],[999,84],[999,167],[999,250],[999,332],[999,415],[999,500],[999,582],[999,665],[999,750],[999,834],[999,917],[999,1000],[999,1082],[999,1167],[999,1250],[999,1334],[999,1415],[999,1500],[999,1582],[999,1667],[999,1750],[49.8,1832],[49.8,1917],[49.8,1998],[48.8,2084],[40.7,2167],[31.8,2250],[29.8,2334],[24.1,2415],[19.8,2500],[19.8,2582],[19.8,2665],[19.9,2750],[33.8,2832],[80.5,3250],[81.6,3332],[81.3,3415],[81,3500],[81,3582],[81.3,3665],[82,3750],[82,3832],[82,3917],[81.9,4000],[81.9,4082],[81.9,4165],[81.9,4250],[82.6,4334],[82.7,4415],[82.7,4500],[82.7,4582],[82.7,4665],[82.7,4750],[82.7,4832],[82.7,4915],[82.7,4998],[82.7,5082],[82.7,5167],[82.7,5250],[82.7,5332],[82.7,5415],[84,5500],[84.5,5582],[84.5,5667],[83.9,5750],[83.5,5834],[83.4,5915],[83.4,6000],[83.4,6082],[83.4,6167],[83.4,6250],[83.2,6332],[83,6415],[83,6500],[83,6582],[83,6667],[83,6750],[83,6832],[83,6917],[83,7000],[83,7082],[83,7165],[83,7250],[83,7332],[83,7415],[83,7500],[83,7582],[83,7665],[83,7750],[83,7832],[83,7915],[83,7998],[83,8082],[83,8165],[83,8248],[83,8332],[83,8415],[83,8498],[83,8582],[83,8665],[83,8748],[83,8832],[83,8917],[83,9000],[83,9082],[83,9165],[83,9250],[83,9332],[83,9417],[83,9500],[83,9582],[83,9665],[83,9750],[83,9832],[83,9917],[83,10000],[83,10082],[83,10165],[83,10250],[83,10332],[83,10417],[83,10498],[83,10582],[83,10665],[83,10750],[83,10832],[83,10915],[83,11000],[83,11084],[83,11165],[83,11248],[83,11332],[83,11417],[83,11500],[83,11582],[83,11665],[83,11750],[83,11832],[83,11915],[83,12000],[83,12082],[83,12165],[83,12248],[83,12332],[83,12417],[83,12500],[83,12582],[83,12665],[83,12750],[83,12832],[83,12917],[83,13000],[83,13082],[83,13167],[83,13250],[83,13332],[83,13417],[83,13500],[83,13582],[83,13667],[83,13750],[83,13832],[83.2,13917],[84.5,14000],[84.6,14082],[84.6,14167],[84.6,14250],[86,14332],[86.3,14417],[87.1,14500],[88,14582],[88,14665],[88,14750],[88.2,14832],[89.3,14917],[89.3,15000],[89.3,15082],[89.3,15167],[89.3,15250],[89.3,15332],[89.3,15417],[89.3,15500],[89.3,15582],[89.3,15665],[89.3,15748],[89.3,15832],[89.3,15917],[89.3,15998],[89.3,16082],[89.3,16165],[89.3,16250],[89.3,16332],[89.3,16417],[89.3,16498],[89.3,16583],[89.3,16665],[89.3,16750],[89.3,16833],[89.3,16917],[89.3,16998],[89.6,17083],[89.8,17167],[89.8,17250],[89.8,17333],[89.8,17415],[89.8,17500],[89.8,17583],[89.8,17665],[89.8,17750],[89.8,17833],[89.8,17915],[89.8,18000],[89.8,18083],[89.8,18165],[89.8,18248],[89.8,18333],[89.8,18417],[89.8,18498],[89.8,18583],[89.8,18665],[89.8,18748],[89.8,18833],[89.8,18915],[89.8,18998],[89.8,19083],[89.8,19165],[89.8,19248],[89.8,19333],[89.8,19415],[89.8,19500],[89.8,19583],[89.8,19667],[89.8,19750],[89.8,19833],[89.8,19915],[89.8,20000],[89.8,20083],[89.8,20167],[89.8,20250],[89.8,20333],[89.8,20417],[89.8,20500],[89.8,20583],[89.8,20665],[89.8,20748],[89.8,20833],[89.8,20917],[89.8,21000],[89.8,21083],[89.8,21165],[89.8,21248],[89.8,21333],[89.8,21417],[89.8,21500],[89.8,21583],[89.8,21665],[89.8,21750],[89.8,21833],[89.8,21915],[89.8,22000],[89.8,22083],[89.8,22165],[89.8,22250],[89.8,22333]]",1,0,225.835,228.785,88.984375,1.112,"[{""rating"":88.984375,""responseTime"":1.1120000000000232}]",space,2.408,,228.785,Partially,50,228.787,,,[],,0,3,3,3,1,audio/Narrative7Situation3.wav,audio/Narrative8Situation3.wav,audio/Narrative5Situation3.wav,audio/Narrative6Situation3.wav,8,4,3,5,,,,,,,,,,,,,,,,,,,,,,,,,,,,,,,,,,,,,,,
,,,,,,65c25cf77dca9d7ca7d9ebdb,2024-02-08_09h41.50.619,group3.1-3.2-social-tom,2023.2.2,Win32,60.0240096,65c5074098b851296ff0b7ed,65c51249c55d9e86fc51f0f0,,,,,,,,,,,,,,,,,,,,,,,,,,,,,228.787,1,audio/Narrative8Situation4.wav,231.801,,231.801,245.968,"[[999,0],[999,82],[999,167],[999,250],[999,332],[999,417],[999,500],[999,582],[999,665],[999,750],[999,832],[999,915],[999,1000],[999,1082],[999,1167],[999,1250],[999,1332],[999,1415],[999,1500],[999,1582],[999,1667],[53,1750],[52,1832],[50.3,1915],[49.9,2000],[49.9,2082],[49.9,2165],[49.9,2250],[49.9,2332],[49.9,2415],[49.9,2500],[49.9,2582],[49.9,2665],[49.9,2750],[49.9,2832],[49.9,2915],[49.9,3000],[49.9,3082],[49.9,3165],[49.9,3250],[49.9,3332],[49.9,3415],[52.6,3500],[71.8,3582],[80.1,3667],[81.1,3750],[81.4,3832],[81.4,3917],[82.1,4000],[85.1,4084],[85.2,4167],[85.2,4248],[86.3,4334],[86.8,4415],[86.8,4500],[86.8,4582],[86.8,4667],[86.8,4750],[86.8,4832],[86.8,4915],[86.8,5000],[85.9,5084],[84.9,5167],[84.9,5250],[84.9,5332],[84.9,5415],[84.6,5500],[84.7,5582],[84.7,5667],[85.1,5750],[87,5834],[87.2,5917],[87.2,6000],[87.2,6082],[87.2,6167],[87.2,6248],[87.2,6332],[87.2,6417],[87.2,6500],[87.2,6582],[87.2,6667],[87.2,6748],[87.2,6832],[87.2,6917],[87.2,6998],[87.2,7082],[87.2,7167],[87.2,7250],[87.2,7332],[87.2,7415],[87.2,7500],[87.2,7582],[87.2,7667],[87.2,7750],[87.2,7832],[87.2,7915],[87.2,7998],[87.2,8082],[87.2,8167],[87.2,8250],[87.2,8332],[87.2,8415],[87.2,8500],[87.2,8582],[87.2,8665],[87.2,8750],[87.2,8832],[87.2,8917],[87.2,8998],[87.2,9082],[87.2,9165],[87.2,9250],[88.8,9334],[89.5,9415],[91.3,9500],[91.3,9582],[91.3,9665],[91.3,9750],[91.5,9832],[91.5,9917],[91.5,9998],[91.5,10082],[91.5,10167],[91.5,10250],[91.5,10332],[93.4,10415],[95.5,10500],[97.4,10582],[97.7,10667],[99.1,10750],[99.1,10832],[99.1,10915],[99.1,10998],[99.1,11082],[99.1,11167],[99.1,11250],[99.1,11332],[99.1,11415],[99.1,11500],[99.1,11582],[99.1,11667],[99.1,11750],[99.1,11832],[99.1,11915],[99.1,12000],[99.1,12082],[99.1,12165],[99.1,12250],[99.1,12332],[99.1,12415],[99.1,12500],[99.1,12582],[99.1,12665],[99.1,12750],[99.1,12832],[99.1,12915],[99.1,13000],[99.1,13082],[99.1,13165],[99.1,13250],[99.1,13332],[99.1,13415],[99.1,13500],[99.1,13582],[99.1,13665],[99.1,13750],[99.1,13832],[99.1,13915],[99.1,13998],[99.1,14082],[99.1,14165]]",1,0,245.968,248.517,98.984375,1.088,"[{""rating"":98.984375,""responseTime"":1.0880000000000223}]",space,2.003,,248.517,Definitely yes,100,248.522,,,[],,0,4,4,4,1,audio/Narrative7Situation4.wav,audio/Narrative8Situation4.wav,audio/Narrative5Situation4.wav,audio/Narrative6Situation4.wav,3,3,1,2,,,,,,,,,,,,,,,,,,,,,,,,,,,,,,,,,,,,,,,
,,,,,,65c25cf77dca9d7ca7d9ebdb,2024-02-08_09h41.50.619,group3.1-3.2-social-tom,2023.2.2,Win32,60.0240096,65c5074098b851296ff0b7ed,65c51249c55d9e86fc51f0f0,,,,,,,,,,,,,,,,,,,,,,,,,,,,,248.523,1,audio/Narrative8Situation5.wav,250.534,,250.534,258.784,"[[999,0],[999,83],[999,166],[999,250],[999,334],[999,415],[999,500],[55.8,583],[56.2,666],[55.4,750],[50.2,833],[45.7,916],[45.7,1000],[46,1083],[47.7,1166],[49.7,1250],[51.2,1334],[51.2,1416],[51.2,1500],[51.2,1583],[51.1,1666],[50.8,1750],[50.8,1833],[50.8,1915],[50.8,2000],[50.8,2083],[50.8,2165],[50.8,2250],[50.8,2334],[50.8,2415],[50.8,2500],[50.8,2583],[50.8,2665],[52.6,2750],[67.7,2833],[82.7,2916],[90,3000],[92.8,3083],[93.2,3166],[94.3,3250],[94.3,3333],[94.3,3415],[94.3,3500],[94.3,3583],[94.3,3666],[94.3,3750],[94.3,3834],[94.3,3916],[94.3,4000],[94.3,4083],[94.3,4165],[94.3,4250],[94.3,4333],[94.3,4416],[94.3,4500],[94.3,4583],[94.3,4665],[94.3,4750],[94.3,4833],[94.3,4915],[94.3,5000],[94.3,5083],[94.3,5166],[94.3,5250],[94.3,5333],[94.3,5416],[94.3,5499],[94.3,5583],[94.3,5666],[94.3,5750],[94.3,5833],[94.3,5916],[94.3,6000],[94.3,6084],[94.3,6166],[94.3,6250],[94.3,6333],[94.3,6416],[94.3,6500],[94.3,6583],[94.3,6666],[94.3,6750],[94.3,6834],[94.3,6916],[94.3,7000],[94.3,7084],[94.3,7166],[94.3,7250],[94.3,7333],[94.3,7416],[94.3,7500],[94.3,7584],[94.3,7666],[94.3,7750],[94.3,7833],[94.3,7916],[94.4,8000],[94.9,8084],[95.2,8166],[95.2,8250]]",1,0,258.785,260.601,95.234375,0.644,"[{""rating"":95.234375,""responseTime"":0.6440000000000055}]",space,1.267,,260.601,Definitely yes,100,260.603,,,[],,0,5,5,5,1,audio/Narrative7Situation5.wav,audio/Narrative8Situation5.wav,audio/Narrative5Situation5.wav,audio/Narrative6Situation5.wav,5,2,5,2,,,,,,,,,,,,,,,,,,,,,,,,,,,,,,,,,,,,,,,
,,,,,,65c25cf77dca9d7ca7d9ebdb,2024-02-08_09h41.50.619,group3.1-3.2-social-tom,2023.2.2,Win32,60.0240096,65c5074098b851296ff0b7ed,65c51249c55d9e86fc51f0f0,,,,,,,,,,,,,,,,,,,,,,,,,,,,,260.603,1,audio/Narrative8Situation6.wav,262.618,,262.618,269.101,"[[999,0],[999,81],[999,165],[999,249],[999,332],[999,415],[999,499],[999,581],[999,665],[999,749],[999,831],[999,915],[999,999],[999,1081],[999,1165],[999,1249],[999,1331],[999,1415],[999,1499],[999,1581],[999,1665],[999,1749],[77.6,1831],[79.8,1915],[82.6,1999],[87.3,2081],[88.7,2165],[90.8,2249],[91.3,2332],[91.3,2415],[91.6,2499],[93.2,2582],[93.9,2665],[94,2749],[94.1,2832],[94.1,2915],[94.1,2999],[94.1,3081],[94.1,3165],[94.1,3249],[94.1,3332],[94.1,3415],[94.1,3499],[94.1,3581],[94.1,3665],[94.1,3749],[94.1,3832],[94.1,3915],[94.1,3999],[94.1,4081],[94.1,4165],[94.1,4249],[94.1,4332],[94.1,4415],[94.1,4499],[94.1,4581],[94.1,4665],[94.1,4750],[94.1,4831],[94.1,4915],[94.1,4999],[94.1,5081],[94.1,5165],[94.1,5250],[94.1,5331],[94.1,5415],[94.1,5499],[94.1,5581],[94.1,5665],[94.1,5749],[94.1,5831],[94.1,5915],[94.1,5999],[94.1,6081],[94.1,6165],[94.1,6249],[94.1,6331],[94.1,6415]]",1,0,269.101,273.85,65.625,3.778,"[{""rating"":96.015625,""responseTime"":0.7300000000000182},{""rating"":65.625,""responseTime"":3.77800000000002}]",space,4.221,,273.851,Not at all,0,273.856,,,[],,0,6,6,6,1,audio/Narrative7Situation6.wav,audio/Narrative8Situation6.wav,audio/Narrative5Situation6.wav,audio/Narrative6Situation6.wav,3,2,3,2,,,,,,,,,,,,,,,,,,,,,,,,,,,,,,,,,,,,,,,
,,,,,,65c25cf77dca9d7ca7d9ebdb,2024-02-08_09h41.50.619,group3.1-3.2-social-tom,2023.2.2,Win32,60.0240096,65c5074098b851296ff0b7ed,65c51249c55d9e86fc51f0f0,,,,,,,,,,,,,,,,,,,,,,,,,,,,,273.856,1,audio/Narrative8Situation7.wav,276.867,,276.867,288.967,"[[999,0],[999,83],[999,165],[999,250],[999,332],[76.4,416],[79.5,500],[79.5,583],[79.5,666],[82,750],[89,832],[90.4,916],[91.6,1000],[91.8,1082],[92.6,1166],[93.4,1250],[88.1,1332],[63.4,1416],[49,1500],[49.2,1583],[50.7,1666],[50.9,1750],[50.9,1832],[50.9,1915],[50.9,2000],[50.9,2082],[50.9,2165],[50.9,2250],[50.7,2332],[50.7,2415],[50.5,2500],[50.5,2582],[50.4,2666],[50.4,2750],[50.6,2833],[60.5,2916],[81.1,3000],[90.3,3083],[90.3,3166],[84.1,3250],[59.8,3333],[53,3416],[53,3500],[51.3,3583],[50.2,3666],[50.2,3750],[50.2,3833],[50.2,3915],[50.2,4000],[50.2,4082],[50.2,4166],[50.2,4250],[50.2,4332],[50.2,4415],[50.2,4500],[50.2,4583],[50.2,4666],[50.2,4750],[50.2,4833],[50.2,4915],[50.2,5000],[50.2,5082],[50.2,5166],[50.2,5250],[50.2,5333],[50.2,5416],[50.2,5500],[50.2,5582],[50.2,5665],[50.2,5750],[50.2,5833],[50.2,5915],[50.2,6000],[50.2,6082],[50.2,6166],[50.2,6250],[50.2,6332],[50.2,6415],[50.2,6500],[50.2,6583],[50.2,6666],[50.2,6750],[50.2,6833],[50.2,6915],[50.2,6998],[50.2,7083],[50.2,7166],[50.2,7250],[50.2,7332],[50.2,7415],[50.2,7500],[50.2,7583],[50.2,7666],[50.2,7750],[50.2,7832],[50.4,7916],[50.7,8000],[51,8083],[51,8166],[51,8250],[51,8332],[51,8416],[51,8500],[51,8583],[51,8666],[51,8750],[51,8833],[51,8915],[51,9000],[51,9082],[51,9165],[51,9248],[51,9332],[51,9415],[51,9500],[51,9582],[51,9665],[51,9748],[51,9832],[51,9915],[51,10000],[51,10082],[51,10166],[51,10248],[51,10332],[51,10415],[51,10500],[51,10583],[51,10666],[51,10750],[51,10832],[51,10915],[51,11000],[51,11082],[51,11165],[51,11250],[51,11332],[51,11416],[51,11500],[51,11582],[51,11665],[51.3,11750],[52.8,11833],[55.2,11916],[56,12000],[55.5,12082]]",1,0,288.968,291.751,23.203125,1.097,"[{""rating"":23.203125000000004,""responseTime"":1.09699999999998}]",space,2.244,,291.751,Not at all,0,291.753,,,[],,0,7,7,7,1,audio/Narrative7Situation7.wav,audio/Narrative8Situation7.wav,audio/Narrative5Situation7.wav,audio/Narrative6Situation7.wav,5,3,4,5,,,,,,,,,,,,,,,,,,,,,,,,,,,,,,,,,,,,,,,
,,,,,,65c25cf77dca9d7ca7d9ebdb,2024-02-08_09h41.50.619,group3.1-3.2-social-tom,2023.2.2,Win32,60.0240096,65c5074098b851296ff0b7ed,65c51249c55d9e86fc51f0f0,,,,,,,,,,,,,,,,,,,,,,,,,,,,,291.753,1,audio/Narrative8Situation8.wav,294.767,,294.767,307.617,"[[999,0],[999,82],[999,165],[999,249],[999,332],[999,416],[999,500],[999,584],[999,665],[999,750],[999,834],[999,916],[999,1000],[57.7,1082],[57.1,1165],[56.9,1250],[56.9,1332],[56.8,1416],[52.9,1500],[48.7,1582],[48.7,1666],[48.7,1750],[48.7,1832],[49.3,1915],[49.6,2000],[49.6,2082],[49.6,2165],[49.6,2250],[49.6,2332],[49.6,2415],[47.9,2500],[47.9,2582],[47.9,2665],[47.5,2750],[41.6,2832],[35.7,2915],[35.7,3000],[35.7,3082],[36.3,3165],[37.8,3249],[39.1,3332],[39.5,3415],[39.5,3499],[39.5,3582],[39.5,3666],[39.5,3750],[39.5,3832],[39.5,3916],[39.5,4000],[39.5,4082],[39.5,4166],[39.5,4250],[39.1,4334],[29.5,4416],[22.7,4500],[22.7,4582],[22.7,4665],[24.3,4750],[27.3,4832],[28.5,4915],[28.7,5000],[28.7,5082],[28.6,5165],[27.7,5250],[27.4,5332],[27.4,5415],[27.4,5500],[27.4,5582],[27.4,5666],[27.4,5750],[27.4,5832],[27.4,5915],[27.4,6000],[27.4,6084],[27.4,6165],[27.4,6250],[27.4,6332],[27.4,6416],[27.4,6500],[27.4,6582],[27.4,6665],[27.4,6749],[27.4,6832],[27.4,6915],[27.4,7000],[27.4,7082],[27.4,7165],[27.4,7249],[27.4,7332],[27.4,7416],[27.4,7500],[27.4,7582],[27.4,7665],[27.4,7750],[27.4,7832],[27.4,7915],[27.4,8000],[27.4,8082],[27.4,8166],[27.4,8250],[27.4,8332],[27.4,8416],[27.4,8500],[27.4,8582],[27.4,8666],[27.4,8750],[27.4,8832],[27.4,8915],[27.4,9000],[27.4,9082],[27.4,9165],[27.4,9250],[27.4,9332],[27.4,9416],[27.4,9500],[27.4,9584],[27.4,9666],[27.4,9750],[27.4,9832],[27.4,9915],[27.4,9999],[27.4,10082],[27.4,10165],[27.4,10249],[27.4,10332],[27.4,10415],[27.4,10499],[27.4,10582],[27.4,10666],[27.4,10749],[27.4,10832],[27.4,10915],[27.4,10999],[27.4,11082],[27.4,11166],[27.4,11249],[27.4,11332],[27.4,11415],[27.4,11500],[27.4,11582],[27.4,11666],[27.4,11749],[27.4,11832],[27.4,11915],[27.4,11999],[27.4,12082],[27.6,12165],[27.7,12250],[27.5,12334],[26.7,12415],[26.6,12500],[26.5,12582],[26.5,12665],[26.5,12750],[26.5,12832]]",1,0,307.617,309.883,22.734375,0.653,"[{""rating"":22.734375,""responseTime"":0.65300000000002}]",space,1.737,,309.883,Not at all,0,309.887,,,[],,0,8,8,8,1,audio/Narrative7Situation8.wav,audio/Narrative8Situation8.wav,audio/Narrative5Situation8.wav,audio/Narrative6Situation8.wav,2,3,3,5,,,,,,,,,,,,,,,,,,,,,,,,,,,,,,,,,,,,,,,
,,,,,,65c25cf77dca9d7ca7d9ebdb,2024-02-08_09h41.50.619,group3.1-3.2-social-tom,2023.2.2,Win32,60.0240096,65c5074098b851296ff0b7ed,65c51249c55d9e86fc51f0f0,,,,,,,,,,,,,,,,,,,,,,,,,,,,,309.887,1,audio/Narrative8Situation9.wav,312.9,,312.9,324.217,"[[999,1],[999,83],[999,167],[999,251],[999,333],[999,417],[999,500],[999,584],[999,667],[999,750],[999,833],[999,917],[999,1000],[999,1084],[999,1167],[50.3,1250],[50.1,1333],[49.6,1417],[49.4,1500],[49.4,1583],[49.5,1667],[50.2,1750],[50.2,1833],[50.2,1917],[50.2,2000],[50.2,2084],[50.2,2165],[50.2,2250],[50.2,2333],[50.2,2415],[50.2,2500],[50.2,2583],[50.2,2667],[50.2,2750],[50.2,2833],[50.2,2915],[50.2,3000],[50.2,3083],[50.2,3167],[50.2,3249],[50.2,3333],[50.2,3415],[50.2,3500],[50.2,3583],[50.2,3667],[50.2,3749],[50.2,3833],[50.2,3915],[49.7,4000],[43.5,4084],[29.3,4165],[25.2,4250],[25.2,4333],[25.5,4415],[27.1,4500],[27.8,4584],[27.8,4665],[27.7,4750],[27.3,4833],[27,4917],[27,5000],[27,5083],[27,5165],[27,5250],[27,5334],[27,5417],[27,5500],[27,5583],[27,5665],[27,5750],[27,5833],[27,5917],[27,6000],[27,6084],[27,6167],[27,6250],[27,6333],[27,6415],[27,6500],[27,6583],[27,6665],[27,6750],[27,6833],[27,6915],[27,7000],[27,7083],[27,7165],[27,7250],[27,7333],[27,7415],[27,7500],[27,7583],[27,7665],[27,7750],[27,7833],[27,7915],[27,8000],[27,8083],[27,8165],[27,8249],[27,8333],[27,8417],[27,8499],[27,8583],[27,8667],[27,8750],[27,8833],[27,8915],[27,9000],[27,9083],[27,9167],[27,9250],[27,9333],[27,9415],[27,9500],[27,9583],[27,9667],[27,9750],[27,9833],[27,9915],[27,10000],[27,10083],[27,10165],[27,10249],[27,10333],[27,10415],[27,10500],[27,10583],[27,10667],[27,10750],[27,10833],[26.3,10917],[26,10999],[26,11083],[26,11167],[26.3,11250]]",1,0,324.217,327.217,31.953125,1.176,"[{""rating"":31.953125,""responseTime"":1.1759999999999877}]",space,2.469,,327.217,Definitely yes,100,327.22,,,[],,0,9,9,9,1,audio/Narrative7Situation9.wav,audio/Narrative8Situation9.wav,audio/Narrative5Situation9.wav,audio/Narrative6Situation9.wav,2,3,3,4,,,,,,,,,,,,,,,,,,,,,,,,,,,,,,,,,,,,,,,
,,,,,,65c25cf77dca9d7ca7d9ebdb,2024-02-08_09h41.50.619,group3.1-3.2-social-tom,2023.2.2,Win32,60.0240096,65c5074098b851296ff0b7ed,65c51249c55d9e86fc51f0f0,,,,,,,,,,,,,,,,,,,,,,,,,,,,,327.22,1,audio/Narrative7Situation1.wav,329.233,,329.233,385.116,"[[999,0],[999,82],[999,166],[999,250],[999,332],[999,416],[999,500],[999,582],[999,666],[999,750],[999,834],[999,916],[999,1000],[999,1084],[999,1166],[999,1250],[999,1334],[999,1416],[52,1500],[51.3,1584],[51.3,1666],[50.8,1750],[50.2,1832],[50.2,1915],[50.2,2000],[50.2,2084],[50.2,2166],[50.2,2250],[50.2,2332],[50.2,2416],[50.2,2500],[50.2,2582],[50.2,2665],[50.2,2750],[50.2,2834],[50.2,2915],[50.2,3000],[50.2,3082],[50.2,3166],[50.2,3250],[50.2,3334],[50.2,3415],[50.2,3500],[50.2,3584],[50.2,3666],[50.2,3750],[50.2,3832],[50.2,3915],[50.2,3998],[50.2,4084],[50.2,4166],[50.2,4250],[50.2,4334],[50.2,4415],[50.2,4500],[50.2,4582],[50.2,4666],[50.2,4750],[50.2,4832],[50.2,4915],[50.2,5000],[50.2,5082],[50.2,5166],[50.2,5250],[50.2,5332],[50.2,5416],[50.2,5500],[50.2,5582],[50.3,5666],[50.4,5750],[50.4,5832],[50.4,5916],[50.4,6000],[50.4,6084],[50.4,6166],[50.4,6250],[50.4,6332],[50.4,6416],[50.4,6500],[50.4,6582],[50.4,6666],[50.4,6750],[50.4,6834],[50.4,6915],[50.4,6998],[50.4,7082],[50.4,7166],[50.4,7250],[50.4,7332],[50.4,7415],[50.4,7500],[50.4,7582],[50.4,7666],[50.4,7750],[50.4,7832],[50.4,7916],[50.4,7998],[50.4,8082],[50.4,8166],[50.4,8250],[50.4,8332],[50.4,8415],[50.4,8500],[50.9,8584],[56.5,8666],[74.5,8750],[91.6,8832],[92.9,8915],[92.1,9000],[84.5,9082],[82.3,9166],[81.6,9250],[81.5,9332],[81.5,9415],[81.5,9500],[81.5,9582],[80.9,9666],[79.1,9750],[78,9832],[78,9915],[78,10000],[78,10082],[78.1,10166],[78.1,10250],[78.1,10334],[78.2,10415],[78.2,10500],[78.2,10582],[78.2,10666],[78.2,10750],[78.2,10832],[78.2,10915],[78.2,11000],[78.2,11082],[78.2,11166],[78.2,11250],[78.2,11332],[78.3,11416],[78.4,11500],[78.7,11584],[79.5,11666],[80.5,11750],[82.3,11834],[82.3,11916],[82.4,12000],[82.4,12082],[82.4,12166],[82.4,12250],[82.4,12332],[82.4,12416],[82.4,12500],[82.4,12582],[82.4,12666],[82.4,12750],[82.4,12832],[82.4,12916],[82.4,13000],[82.4,13082],[82.4,13166],[82.4,13250],[82.4,13332],[82.4,13415],[82.4,13500],[82.4,13582],[82.4,13666],[82.4,13750],[82.4,13832],[82.4,13915],[82.4,14000],[82.4,14082],[82.4,14166],[82.4,14248],[82.4,14334],[82.4,14415],[82.4,14500],[82.4,14582],[82.4,14666],[82.4,14750],[82.4,14832],[82.4,14915],[82.4,15000],[82.4,15082],[82.4,15165],[82.4,15250],[82.4,15332],[82.4,15416],[82.4,15498],[82.4,15582],[82.4,15665],[82.4,15750],[82.4,15832],[82.4,15916],[82.4,15998],[82.4,16082],[82.4,16166],[82.4,16250],[82.4,16332],[82.4,16416],[82.4,16500],[82.4,16582],[82.4,16665],[82.4,16750],[82.4,16832],[82.4,16916],[82.4,17000],[82.4,17082],[82.4,17166],[82.4,17250],[82.4,17334],[82.4,17415],[82.4,17498],[82.4,17584],[82.4,17665],[82.4,17748],[82.4,17832],[82.4,17916],[82.4,17998],[82.4,18082],[82.4,18165],[82.4,18250],[81.4,18334],[78.7,18415],[75.1,18500],[73.4,18584],[73.4,18666],[73.4,18750],[73.4,18834],[73.5,18916],[73.6,19000],[73.7,19082],[73.8,19166],[73.8,19250],[73.8,19334],[73.8,19415],[73.8,19500],[73.8,19582],[74,19665],[74,19748],[74,19832],[74,19915],[74,20000],[74,20082],[74,20165],[74,20250],[74,20332],[74,20416],[74,20500],[74,20582],[74,20665],[74,20750],[74,20832],[74,20915],[74,21000],[74,21082],[74,21165],[74,21250],[74,21332],[74,21415],[74,21498],[74,21582],[73.7,21665],[73.3,21750],[73.2,21832],[73.2,21915],[73.2,21998],[73.2,22082],[73.2,22166],[73.2,22248],[73.2,22332],[73.2,22415],[73.2,22498],[73.2,22582],[73.2,22665],[73.2,22750],[73.2,22832],[73.2,22916],[73.2,22998],[73.2,23082],[73.2,23165],[73.2,23250],[73.2,23332],[73.2,23415],[73.2,23500],[73.2,23582],[73.2,23665],[73.2,23750],[73.2,23832],[73.2,23915],[73.2,24000],[73.2,24082],[73.2,24165],[73.2,24250],[73.2,24332],[73.2,24416],[73.2,24500],[73.2,24582],[73.2,24665],[73.2,24750],[73.2,24832],[73.2,24915],[73.2,24998],[73.2,25082],[73.2,25166],[73.2,25250],[73.2,25332],[73.2,25415],[73.2,25498],[73.2,25582],[73.2,25665],[73.2,25748],[73.2,25832],[73.2,25915],[73.2,26000],[73.2,26082],[73.2,26165],[73.2,26250],[73.2,26332],[73.2,26416],[73.2,26500],[73.2,26582],[73.2,26665],[73.2,26750],[73.2,26832],[73.2,26915],[73.2,27000],[73.2,27082],[73.2,27165],[73.2,27250],[73.2,27332],[73.2,27416],[73.2,27498],[73.2,27582],[73.2,27665],[73.2,27750],[73.2,27832],[73.2,27915],[73.2,28000],[73.2,28082],[73.2,28165],[73.2,28248],[73.2,28332],[73.2,28415],[73.2,28498],[73.2,28582],[73.2,28665],[73.2,28748],[73.2,28832],[73.2,28915],[73.2,29000],[73.2,29082],[73.2,29166],[73.2,29248],[73.2,29332],[73.2,29416],[73.2,29498],[73.2,29582],[73.2,29666],[73.2,29748],[73.2,29832],[73.2,29916],[73.2,29998],[73.2,30082],[73.2,30165],[73.2,30250],[73.2,30332],[73.2,30415],[73.2,30498],[73.2,30582],[73.2,30665],[73.2,30750],[73.2,30832],[73.2,30915],[73.2,31000],[73.2,31082],[73.2,31165],[73.2,31250],[73.2,31332],[73.2,31415],[73.2,31498],[73.2,31582],[73.2,31665],[73.2,31750],[73.2,31832],[73.2,31915],[73.2,31998],[73.2,32082],[73.2,32165],[73.2,32248],[73.2,32332],[73.2,32415],[73.2,32498],[73.2,32582],[73.2,32665],[73.2,32748],[73.2,32832],[73.2,32916],[73.2,32998],[73.2,33082],[73.2,33166],[73.2,33248],[73.2,33332],[73.2,33416],[73.2,33498],[73.2,33582],[73.2,33666],[73.2,33748],[73.2,33832],[73.2,33916],[73.2,33998],[73.2,34082],[73.2,34166],[73.2,34250],[73.2,34332],[73.2,34416],[73.2,34500],[73.2,34582],[73.2,34666],[73.2,34750],[73.2,34832],[73.2,34916],[73.2,35000],[73.2,35082],[73.2,35166],[73.2,35250],[73.2,35332],[73.2,35416],[73.2,35500],[73.2,35582],[73.2,35666],[73.2,35748],[73.2,35832],[73.2,35916],[73.2,36000],[73.2,36082],[73.2,36166],[73.2,36248],[73.2,36331],[73.2,36416],[73.2,36500],[73.2,36582],[73.2,36666],[73.2,36748],[73.2,36832],[73.2,36916],[73.2,37000],[73.2,37082],[73.2,37166],[73.2,37248],[73.2,37331],[73.2,37416],[73.2,37500],[73.2,37582],[73.2,37666],[73.2,37748],[73.2,37832],[73.2,37916],[73.2,38000],[73.2,38082],[73.2,38166],[73.2,38250],[73.2,38332],[73.2,38416],[73.2,38500],[73.2,38582],[73.2,38666],[73.2,38750],[73.2,38832],[73.2,38916],[73.2,39000],[73.2,39082],[73.2,39166],[73.2,39250],[73.2,39332],[73.2,39416],[73.2,39500],[73.2,39582],[73.2,39666],[73.2,39750],[73.2,39832],[73.2,39916],[73.2,40000],[73.2,40082],[73.2,40166],[73.2,40250],[73.2,40332],[73.2,40416],[73.2,40500],[73.2,40581],[73.2,40666],[73.2,40748],[73.2,40832],[73.2,40916],[73.2,41000],[73.2,41081],[73.2,41166],[73.2,41248],[73.2,41331],[73.2,41416],[73.2,41500],[73.2,41582],[73.2,41666],[73.2,41750],[73.2,41832],[73.2,41916],[73.2,42000],[73.2,42082],[73.2,42166],[73.2,42250],[73.2,42332],[73.2,42416],[73.2,42498],[73.2,42582],[73.2,42666],[73.2,42748],[73.2,42832],[73.2,42916],[73.2,43000],[73.2,43082],[73.2,43166],[73.2,43248],[73.2,43332],[73.2,43416],[73.2,43500],[73.2,43582],[73.2,43666],[73.2,43748],[73.2,43832],[73.2,43916],[73.2,44000],[73.2,44081],[73.2,44166],[73.2,44248],[73.2,44332],[73.2,44416],[73.2,44498],[73.2,44582],[73.2,44666],[73.2,44750],[73.2,44832],[73.2,44916],[73.2,45000],[73.2,45082],[73.2,45166],[73.2,45250],[73.2,45332],[73.2,45416],[73.2,45500],[73.2,45582],[73.2,45666],[73.2,45750],[73.2,45832],[73.2,45916],[73.2,46000],[73.2,46082],[73.2,46166],[73.2,46248],[73.2,46332],[73.2,46416],[73.2,46500],[73.2,46582],[73.2,46666],[73.2,46748],[73.2,46832],[73.2,46916],[73.2,46998],[73.2,47082],[73.2,47166],[73.2,47248],[73.2,47332],[73.2,47416],[73.2,47500],[73.2,47581],[73.2,47666],[73.2,47748],[73.2,47832],[73.2,47916],[73.2,48000],[73.2,48081],[73.2,48166],[73.2,48248],[73.2,48332],[73.2,48416],[73.2,48498],[73.2,48581],[73.2,48666],[73.2,48748],[73.2,48831],[73.2,48916],[73.2,48998],[73.2,49082],[73.2,49166],[73.2,49248],[73.2,49331],[73.2,49416],[73.2,49498],[73.2,49582],[73.2,49666],[73.2,49750],[73.2,49832],[73.2,49916],[73.2,49998],[73.2,50082],[73.2,50166],[73.2,50248],[73.2,50332],[73.2,50416],[73.2,50500],[73.2,50582],[73.2,50666],[73.2,50748],[73.2,50832],[73.2,50916],[73.2,50998],[73.2,51081],[73.2,51166],[73.2,51248],[73.2,51331],[73.2,51416],[73.2,51498],[73.2,51582],[73.2,51666],[73.2,51748],[73.2,51831],[73.2,51916],[73.2,51998],[73.2,52082],[73.2,52166],[73.2,52248],[73.2,52331],[73.2,52416],[73.2,52498],[73.2,52582],[73.2,52666],[73.2,52750],[73.2,52831],[73.2,52916],[73.2,52998],[73.2,53081],[73.2,53166],[73.2,53250],[73.2,53332],[73.2,53414],[73.2,53498],[73.2,53582],[73.2,53666],[73.2,53748],[73.2,53831],[73.2,53916],[73.2,53998],[73.2,54081],[73.2,54166],[73.2,54248],[73.2,54332],[73.2,54416],[73.2,54498],[73.2,54582],[73.2,54666],[73.2,54748],[73.2,54831],[73.2,54916],[73.2,54998],[73.2,55082],[73.2,55166],[73.2,55248],[73.2,55331],[73.2,55416],[73.2,55498],[73.2,55581],[73.2,55666],[73.3,55748],[75.3,55832]]",1,0,385.117,389.666,71.328125,1.577,"[{""rating"":71.328125,""responseTime"":1.5769999999999982}]",space,4.001,,389.666,Definitely yes,100,389.669,,,[],,0,10,10,10,1,audio/Narrative8Situation1.wav,audio/Narrative7Situation1.wav,audio/Narrative6Situation1.wav,audio/Narrative5Situation1.wav,5,2,2,5,,,,,,,,,,,,,,,,,,,,,,,,,,,,,,,,,,,,,,,
,,,,,,65c25cf77dca9d7ca7d9ebdb,2024-02-08_09h41.50.619,group3.1-3.2-social-tom,2023.2.2,Win32,60.0240096,65c5074098b851296ff0b7ed,65c51249c55d9e86fc51f0f0,,,,,,,,,,,,,,,,,,,,,,,,,,,,,389.669,1,audio/Narrative7Situation2.wav,392.682,,392.682,400.166,"[[999,0],[999,82],[999,166],[999,250],[999,332],[999,416],[999,500],[999,582],[999,665],[999,750],[999,832],[999,916],[999,1000],[999,1082],[999,1166],[999,1250],[999,1332],[999,1416],[999,1500],[999,1584],[999,1666],[81.2,1750],[79.9,2334],[74.1,2416],[72.5,2500],[66.3,2584],[59.3,2666],[58.9,2750],[57.7,2834],[55.2,2916],[55,3000],[52.9,3082],[51.2,3166],[51.2,3250],[51.1,3332],[50.9,3416],[50.9,3500],[50.9,3582],[50.9,3666],[50.9,3750],[50.9,3832],[50.9,3916],[50.9,4000],[50.9,4082],[50.9,4166],[50.9,4250],[50.9,4334],[50.9,4416],[56.2,4500],[82,4582],[92,4666],[92.9,4750],[92.3,4834],[88.1,4916],[87.3,5000],[87.3,5084],[87.3,5166],[87.3,5250],[87.3,5334],[87.3,5416],[87.3,5500],[87,5582],[87,5666],[87,5750],[87,5834],[86.6,5916],[86.6,6000],[86.6,6082],[86.6,6166],[86.6,6250],[86.6,6332],[86.6,6416],[86.6,6500],[86.6,6582],[86.6,6666],[86.6,6750],[86.6,6832],[86.6,6916],[86.6,7000],[86.6,7082],[86.6,7166],[86.6,7250],[86.6,7334],[86.6,7416]]",1,0,400.166,402.332,87.265625,1.107,"[{""rating"":87.265625,""responseTime"":1.1070000000000277}]",space,1.644,,402.332,Not at all,0,402.338,,,[],,0,11,11,11,1,audio/Narrative8Situation2.wav,audio/Narrative7Situation2.wav,audio/Narrative6Situation2.wav,audio/Narrative5Situation2.wav,3,3,3,3,,,,,,,,,,,,,,,,,,,,,,,,,,,,,,,,,,,,,,,
,,,,,,65c25cf77dca9d7ca7d9ebdb,2024-02-08_09h41.50.619,group3.1-3.2-social-tom,2023.2.2,Win32,60.0240096,65c5074098b851296ff0b7ed,65c51249c55d9e86fc51f0f0,,,,,,,,,,,,,,,,,,,,,,,,,,,,,402.339,1,audio/Narrative7Situation3.wav,410.349,,410.349,419.615,"[[87.7,3415],[85.6,3499],[71.8,3583],[60.6,3665],[59.3,3749],[57.6,3833],[53.7,3915],[53.5,4000],[62.5,4083],[64.9,4165],[54.8,4250],[49.8,4331],[49.8,4417],[49.8,4499],[49.8,4583],[49.8,4665],[49.8,4750],[49.8,4833],[49.8,4915],[49.8,4999],[49.8,5083],[49.8,5165],[49.8,5250],[49.8,5333],[49.8,5415],[49.8,5500],[49.8,5583],[49.8,5665],[49.8,5750],[49.8,5833],[49.8,5917],[49.8,6000],[49.8,6083],[49.8,6165],[49.8,6249],[49.8,6333],[49.8,6415],[47.5,6500],[32.6,6583],[27.7,6665],[27.7,6749],[27.7,6833],[27.7,6915],[27.7,7000],[28.5,7083],[28.8,7165],[28.8,7250],[28.9,7333],[29.1,7415],[29.1,7499],[29.1,7583],[29.1,7665],[29.1,7750],[29.1,7833],[29.2,7915],[29.2,8000],[29.3,8083],[29.3,8165],[29.3,8250],[29.3,8333],[29.3,8415],[29.3,8499],[29.3,8583],[29.3,8665],[29.3,8749],[29.3,8833],[29.3,8915],[28.7,9000],[28.6,9083],[28.6,9165],[28.6,9249]]",1,0,419.615,421.299,28.59375,0.221,"[{""rating"":28.59375,""responseTime"":0.22100000000000364}]",space,1.158,,421.299,Partially,50,421.301,,,[],,0,12,12,12,1,audio/Narrative8Situation3.wav,audio/Narrative7Situation3.wav,audio/Narrative6Situation3.wav,audio/Narrative5Situation3.wav,4,8,5,3,,,,,,,,,,,,,,,,,,,,,,,,,,,,,,,,,,,,,,,
,,,,,,65c25cf77dca9d7ca7d9ebdb,2024-02-08_09h41.50.619,group3.1-3.2-social-tom,2023.2.2,Win32,60.0240096,65c5074098b851296ff0b7ed,65c51249c55d9e86fc51f0f0,,,,,,,,,,,,,,,,,,,,,,,,,,,,,421.302,1,audio/Narrative7Situation4.wav,424.315,,424.315,436.048,"[[999,0],[999,82],[999,166],[999,250],[999,332],[999,416],[999,500],[999,582],[999,666],[999,750],[999,832],[999,916],[999,1000],[51.3,1082],[51,1166],[51.2,1250],[51.2,1332],[51.1,1416],[50.7,1500],[50.6,1582],[50.6,1666],[50.5,1750],[50.5,1834],[50.5,1915],[50.5,2000],[50.5,2082],[50.5,2166],[50.5,2250],[50.5,2334],[50.5,2415],[50.5,2500],[50.5,2584],[50.5,2666],[50.5,2750],[50.5,2832],[50.5,2915],[50.5,3000],[50.5,3082],[50.5,3166],[50.5,3250],[50.5,3334],[50.5,3416],[50.5,3500],[50.5,3584],[50.5,3666],[50.5,3750],[50.5,3832],[50.5,3916],[50.5,4000],[50.5,4082],[50.5,4166],[50.5,4250],[50.5,4332],[50.5,4416],[50.5,4500],[50.5,4582],[50.5,4666],[50.5,4750],[50.5,4834],[50.5,4916],[50.5,5000],[50.5,5084],[50.5,5166],[50.5,5250],[50.5,5332],[50.5,5415],[50.5,5500],[50.5,5584],[50.5,5665],[50.5,5750],[50.5,5832],[50.5,5916],[50.5,6000],[50.5,6082],[50.4,6166],[59.6,6250],[79.8,6416],[79.6,6500],[81.5,6582],[85.1,6666],[85.1,6750],[86,6834],[87,6915],[87,7000],[87,7084],[87,7166],[87,7250],[87,7332],[29.3,8000],[30.1,8082],[36.6,8166],[42.3,8250],[42.3,8332],[42.2,8416],[41.7,8500],[40.9,8584],[39.2,8666],[36.3,8750],[34.1,8834],[33.6,8915],[33.6,9000],[33.6,9084],[33.6,9165],[33.6,9250],[33.6,9332],[33.6,9416],[31.2,9500],[29.2,9584],[29.1,9666],[29.1,9750],[29.1,9834],[29.1,9915],[29.1,10000],[29.1,10084],[29.1,10165],[29.1,10250],[29.1,10334],[29.1,10415],[29,10500],[29,10582],[29,10665],[29,10750],[29,10832],[29,10916],[29,11000],[29,11082],[28.8,11166],[28.8,11250],[28.8,11332],[28.8,11416],[28.8,11500],[28.6,11584],[25.7,11666]]",1,0,436.049,437.782,25.3125,0.704,"[{""rating"":25.3125,""responseTime"":0.7040000000000077}]",space,1.212,,437.782,Not at all,0,437.787,,,[],,0,13,13,13,1,audio/Narrative8Situation4.wav,audio/Narrative7Situation4.wav,audio/Narrative6Situation4.wav,audio/Narrative5Situation4.wav,3,3,2,1,,,,,,,,,,,,,,,,,,,,,,,,,,,,,,,,,,,,,,,
,,,,,,65c25cf77dca9d7ca7d9ebdb,2024-02-08_09h41.50.619,group3.1-3.2-social-tom,2023.2.2,Win32,60.0240096,65c5074098b851296ff0b7ed,65c51249c55d9e86fc51f0f0,,,,,,,,,,,,,,,,,,,,,,,,,,,,,437.787,1,audio/Narrative7Situation5.wav,442.798,,442.799,451.298,"[[999,0],[999,83],[999,165],[999,250],[999,333],[999,415],[999,500],[999,583],[999,665],[999,750],[999,833],[999,915],[999,1000],[52.1,1083],[52,1165],[52,1250],[46.9,1331],[46.8,1415],[47,1500],[49.2,1583],[49.6,1665],[49.8,1749],[49.8,1833],[50,1915],[50,1999],[50,2083],[50,2165],[50,2249],[50,2331],[50,2415],[50,2499],[50,2581],[50,2665],[50,2750],[50,2831],[50,2915],[50,2999],[50,3083],[50,3165],[50,3249],[50,3333],[50,3415],[50,3499],[50,3583],[50,3665],[50,3750],[50,3831],[50,3915],[50,3999],[50,4083],[50,4165],[50,4249],[50,4331],[50,4415],[50,4499],[50,4581],[50,4665],[50,4749],[50,4831],[50,4915],[50,4999],[50,5081],[50,5165],[50,5249],[50,5331],[50,5415],[50,5499],[49.9,5581],[44.1,5665],[29.6,5750],[24.5,5831],[24.5,5915],[24.5,5999],[24.6,6081],[25.2,6165],[28,6250],[29.5,6331],[29.8,6415],[29.9,6499],[29.9,6583],[29.9,6665],[29.9,6749],[29.9,6833],[29.9,6915],[29.9,6999],[29.9,7081],[29.9,7165],[29.9,7249],[29.9,7333],[29.9,7415],[29.9,7499],[29.9,7581],[29.9,7665],[29.9,7749],[29.9,7833],[29.9,7915],[29.9,7999],[29.9,8081],[29.9,8165],[29.9,8249],[29.9,8333],[29.9,8415],[29.9,8499]]",1,0,451.298,456.448,7.734375,4.008,"[{""rating"":27.03125,""responseTime"":1.3810000000000286},{""rating"":7.734374999999999,""responseTime"":4.008000000000038}]",space,4.618,,456.448,Definitely yes,100,456.451,,,[],,0,14,14,14,1,audio/Narrative8Situation5.wav,audio/Narrative7Situation5.wav,audio/Narrative6Situation5.wav,audio/Narrative5Situation5.wav,2,5,2,5,,,,,,,,,,,,,,,,,,,,,,,,,,,,,,,,,,,,,,,
,,,,,,65c25cf77dca9d7ca7d9ebdb,2024-02-08_09h41.50.619,group3.1-3.2-social-tom,2023.2.2,Win32,60.0240096,65c5074098b851296ff0b7ed,65c51249c55d9e86fc51f0f0,,,,,,,,,,,,,,,,,,,,,,,,,,,,,456.451,1,audio/Narrative7Situation6.wav,459.465,,459.465,469.433,"[[999,0],[999,83],[999,165],[999,249],[999,333],[999,417],[999,500],[999,583],[999,665],[999,750],[999,833],[999,915],[999,1000],[999,1083],[999,1165],[999,1250],[999,1333],[48.2,1415],[49.5,1500],[49.5,1583],[49.5,1665],[49.5,1750],[49.5,1833],[49.5,1915],[49.5,1999],[49.5,2083],[49.5,2165],[49.5,2250],[49.5,2333],[49.5,2415],[49.5,2500],[49.5,2583],[49.5,2667],[49.5,2749],[49.5,2833],[49.5,2915],[49.5,3000],[49.5,3083],[49.5,3165],[49.5,3250],[49.5,3333],[49.5,3417],[49.5,3500],[49.5,3583],[49.5,3667],[49.5,3750],[57.3,3833],[94.8,3915],[100,4000],[100,4084],[94,4167],[92.3,4250],[92.3,4333],[92.3,4417],[92.4,4500],[92.3,4583],[92.3,4665],[92.3,4749],[92.3,4833],[92.3,4915],[92.3,4999],[92.3,5083],[92.3,5165],[92.3,5249],[92.3,5333],[92.3,5415],[92.3,5500],[92.3,5583],[92.3,5667],[92.3,5749],[92.3,5833],[92.3,5917],[92.3,6000],[92.3,6083],[92.3,6165],[92.3,6250],[92.3,6331],[92.3,6415],[92.3,6500],[92.3,6583],[92.3,6665],[92.3,6750],[92.3,6833],[92.3,6915],[92.3,7000],[92.3,7083],[92.3,7167],[92.3,7249],[92.3,7333],[92.3,7415],[92.3,7500],[92.3,7583],[92.3,7665],[92.3,7750],[92.3,7833],[92.3,7915],[92.3,7999],[92.3,8083],[92.3,8165],[92.3,8249],[92.3,8333],[92.3,8415],[92.3,8500],[92.3,8583],[92.3,8667],[92.3,8749],[92.3,8833],[92.3,8915],[92.3,9000],[92.3,9083],[92.3,9165],[92.3,9249],[92.3,9333],[92.3,9415],[92.3,9499],[92.3,9583],[92.3,9665],[92.3,9749],[92.3,9833],[92.3,9915]]",1,0,469.433,472.098,92.421875,1.288,"[{""rating"":89.609375,""responseTime"":0.7860000000000014},{""rating"":92.421875,""responseTime"":1.288000000000011}]",space,2.119,,472.098,Not at all,0,472.103,,,[],,0,15,15,15,1,audio/Narrative8Situation6.wav,audio/Narrative7Situation6.wav,audio/Narrative6Situation6.wav,audio/Narrative5Situation6.wav,2,3,2,3,,,,,,,,,,,,,,,,,,,,,,,,,,,,,,,,,,,,,,,
,,,,,,65c25cf77dca9d7ca7d9ebdb,2024-02-08_09h41.50.619,group3.1-3.2-social-tom,2023.2.2,Win32,60.0240096,65c5074098b851296ff0b7ed,65c51249c55d9e86fc51f0f0,,,,,,,,,,,,,,,,,,,,,,,,,,,,,472.103,1,audio/Narrative7Situation7.wav,477.115,,477.115,494.315,"[[55.1,4748],[54.3,4832],[53.5,4915],[50.9,5000],[50.2,5082],[48.8,5165],[48.9,5250],[52.4,5332],[69.5,5415],[74.1,5500],[84.4,5582],[90.7,5665],[90.7,5748],[90.7,5832],[90.7,5915],[90.7,6000],[90.4,6082],[90.4,6165],[90.4,6250],[90.4,6332],[90.4,6415],[90.4,6500],[90.4,6582],[90.4,6666],[90.4,6750],[90.4,6832],[90.4,6915],[90.4,7000],[90.4,7082],[90.4,7165],[90.4,7250],[90.4,7332],[90.4,7415],[90.4,7500],[90.4,7582],[90.4,7665],[90.4,7750],[90.4,7832],[90.4,7915],[90.4,7998],[90.4,8082],[90.4,8165],[90.4,8250],[90.4,8331],[89.5,8415],[89.4,8498],[89.4,8582],[89.4,8665],[89.4,8750],[88.4,8832],[85.3,9498],[85.4,9582],[85.4,9665],[85.4,9750],[85.4,9832],[85.4,9915],[85.4,10000],[85.4,10081],[85.4,10165],[85.4,10250],[85.4,10331],[85.4,10415],[85.4,10500],[85.4,10581],[85.4,10665],[85.4,10750],[85.4,10831],[85.4,10915],[85.4,10998],[85.4,11082],[85.4,11165],[85.4,11250],[85.4,11332],[85.4,11415],[85.4,11500],[85.4,11582],[85.4,11665],[85.4,11750],[85.4,11832],[86.3,11915],[88.4,12000],[89.3,12081],[89.5,12165],[89.5,12248],[89.5,12332],[89.5,12415],[89.5,12498],[89.5,12582],[89.5,12665],[89.5,12748],[89.5,12832],[89.5,12915],[92.6,12998],[93.3,13081],[94.1,13165],[94.1,13248],[94.1,13332],[94.1,13415],[94.1,13498],[94.1,13582],[94.1,13665],[93.9,13748],[93.9,13832],[93.9,13915],[93.9,13998],[93.9,14081],[93.9,14165],[93.9,14248],[93.9,14332],[93.9,14415],[93.9,14500],[93.9,14582],[93.9,14665],[93.9,14748],[93.9,14832],[93.9,14915],[93.9,15000],[93.9,15082],[93.9,15165],[93.9,15248],[93.9,15332],[93.9,15415],[93.9,15500],[93.9,15582],[93.9,15665],[93.9,15748],[93.9,15832],[93.9,15915],[93.9,15998],[93.9,16081],[93.9,16165],[93.9,16248],[93.9,16332],[93.9,16415],[93.9,16498],[93.9,16582],[93.9,16665],[93.9,16748],[93.9,16832],[93.9,16915],[93.9,16998],[93.9,17082],[93.9,17165]]",1,0,494.315,496.582,95.859375,1.222,"[{""rating"":95.859375,""responseTime"":1.22199999999998}]",space,1.726,,496.582,Not at all,0,496.583,,,[],,0,16,16,16,1,audio/Narrative8Situation7.wav,audio/Narrative7Situation7.wav,audio/Narrative6Situation7.wav,audio/Narrative5Situation7.wav,3,5,5,4,,,,,,,,,,,,,,,,,,,,,,,,,,,,,,,,,,,,,,,
,,,,,,65c25cf77dca9d7ca7d9ebdb,2024-02-08_09h41.50.619,group3.1-3.2-social-tom,2023.2.2,Win32,60.0240096,65c5074098b851296ff0b7ed,65c51249c55d9e86fc51f0f0,,,,,,,,,,,,,,,,,,,,,,,,,,,,,496.584,1,audio/Narrative7Situation8.wav,498.597,,498.597,508.614,"[[94.9,751],[52,1584],[51,1667],[50,1751],[50,1834],[50.2,1917],[50.4,2000],[50.4,2084],[50.4,2167],[50.4,2250],[50.4,2334],[50.4,2417],[50.4,2500],[50.4,2584],[50.4,2667],[48.9,2750],[42.5,2834],[39.6,2917],[39.6,3000],[39.3,3084],[37,3167],[34.4,3251],[33.2,3334],[33,3417],[33,3500],[32.9,3582],[32.9,3667],[32.9,3750],[32.9,3834],[32.9,3917],[32.9,4000],[32.9,4082],[32.9,4167],[32.9,4250],[32.9,4334],[32.9,4417],[32.9,4500],[32.9,4582],[32.9,4667],[32.9,4750],[32.9,4834],[32.9,4918],[32.9,5000],[32.9,5082],[32.9,5167],[32.9,5250],[32.9,5334],[32.9,5417],[32.9,5500],[32.9,5584],[32.9,5667],[32.9,5750],[32.9,5834],[32.9,5917],[32.9,6000],[32.9,6084],[32.9,6168],[32.9,6250],[32.9,6334],[32.9,6416],[32.9,6499],[32.9,6584],[32.9,6666],[32.9,6749],[32.9,6834],[32.9,6916],[32.9,6999],[42.4,7334],[99.1,7750],[95.9,7834],[95.9,7916],[95.9,7999],[95.5,8084],[94.6,8167],[94.5,8250],[94.5,8332],[94.5,8416],[94.5,8500],[94.5,8584],[94.5,8666],[94.5,8750],[94.5,8834],[94.5,8916],[94.5,9000],[94.5,9084],[94.5,9166],[94.5,9250],[94.9,9334],[94.9,9416],[94.9,9499],[94.7,9584],[93.8,9666],[93.8,9749],[93.8,9834],[93.8,9916],[93.8,9999]]",1,0,508.615,510.315,95.390625,0.744,"[{""rating"":95.390625,""responseTime"":0.7440000000000282}]",space,1.17,,510.315,Not at all,0,510.317,,,[],,0,17,17,17,1,audio/Narrative8Situation8.wav,audio/Narrative7Situation8.wav,audio/Narrative6Situation8.wav,audio/Narrative5Situation8.wav,3,2,5,3,,,,,,,,,,,,,,,,,,,,,,,,,,,,,,,,,,,,,,,
,,,,,,65c25cf77dca9d7ca7d9ebdb,2024-02-08_09h41.50.619,group3.1-3.2-social-tom,2023.2.2,Win32,60.0240096,65c5074098b851296ff0b7ed,65c51249c55d9e86fc51f0f0,,,,,,,,,,,,,,,,,,,,,,,,,,,,,510.317,1,audio/Narrative7Situation9.wav,512.331,,512.331,520.965,"[[87.4,1165],[76,1249],[68.9,1333],[63.8,1415],[57.7,1500],[53.8,1582],[52.7,1667],[50.4,1750],[49.6,1832],[49.6,1915],[49.6,1999],[49.6,2082],[49.6,2167],[49.6,2250],[49.6,2332],[49.6,2417],[49.6,2500],[49.6,2582],[49.6,2665],[49.6,2750],[49.6,2832],[49.6,2915],[49.6,3000],[50.5,3082],[72,3165],[93,3250],[96.3,3332],[97.1,3415],[97.1,3500],[97.1,3582],[97.1,3665],[97.1,3750],[97.1,3832],[97.1,3915],[97.1,4000],[97.1,4082],[97,4167],[96.3,4250],[95.4,4332],[95.4,4417],[95.4,4499],[95.4,4582],[95.4,4667],[95.4,4750],[95.4,4832],[95.4,4915],[95.4,4999],[95.4,5082],[95.4,5165],[95.4,5250],[95.4,5332],[95.4,5417],[95.4,5500],[95.4,5582],[95.4,5665],[95.4,5750],[95.4,5832],[95.4,5915],[95.4,6000],[95.4,6082],[95.4,6165],[95.4,6250],[95.4,6332],[95.4,6415],[95.4,6500],[95.4,6582],[95.4,6665],[95.4,6750],[95.4,6832],[95.4,6915],[95.4,7000],[95.4,7082],[95.4,7165],[95.4,7250],[95.4,7332],[95.4,7415],[95.4,7500],[95.4,7582],[95.4,7665],[95.4,7750],[95.4,7832],[95.4,7915],[95.4,8000],[95.4,8082],[97.5,8167],[98.9,8249],[99,8332],[99.1,8415],[99.1,8500],[99.1,8582]]",1,0,520.965,523.497,99.765625,1.538,"[{""rating"":99.765625,""responseTime"":1.538000000000011}]",space,1.994,,523.498,Partially,50,535.881,49.765625,10.469,"[{""rating"":49.765625,""responseTime"":10.468999999999937}]",space,0,18,18,18,1,audio/Narrative8Situation9.wav,audio/Narrative7Situation9.wav,audio/Narrative6Situation9.wav,audio/Narrative5Situation9.wav,3,2,4,3,,,11.842,,,,,,,,,,,,,,,,,,,,,,,,,,,,,,,,,,,,
,,,,,,65c25cf77dca9d7ca7d9ebdb,2024-02-08_09h41.50.619,group3.1-3.2-social-tom,2023.2.2,Win32,60.0240096,65c5074098b851296ff0b7ed,65c51249c55d9e86fc51f0f0,,,,,,,,,,,,,,,,,,,,,,,,,,,541.314,543.897,543.906,2,audio/Narrative13Situation2.wav,543.906,,543.906,573.648,"[[999,0],[999,74],[999,157],[999,241],[999,324],[999,408],[999,491],[999,574],[999,657],[999,741],[999,824],[999,908],[999,991],[61.3,1074],[53.6,1158],[51.5,1241],[51.3,1324],[51,1408],[50.7,1491],[50.7,1574],[50.7,1657],[50.7,1741],[50.7,1824],[50.7,1908],[50.7,1991],[50.7,2074],[50.7,2158],[50.7,2241],[50.7,2324],[50.7,2408],[50.7,2491],[50.7,2574],[50.7,2657],[50.7,2741],[50.7,2825],[50.7,2908],[50.4,2991],[40.7,3074],[34.5,3158],[34.3,3241],[34.1,3324],[34.1,3408],[34.1,3491],[34.1,3574],[34.1,3657],[34.1,3741],[34.1,3825],[34.1,3908],[34.1,3991],[34.1,4075],[34.1,4158],[34.1,4240],[34.1,4324],[34.1,4408],[34.1,4490],[34.1,4574],[34.1,4658],[34.1,4741],[34.1,4824],[34.1,4908],[36.6,4991],[57.7,5075],[70.3,5158],[70.3,5241],[65.6,5324],[47,5408],[38.9,5491],[41,5575],[47.9,5658],[46.3,5741],[29.6,5825],[23.6,5908],[25.2,5991],[27.8,6075],[31,6158],[31.3,6241],[31.3,6324],[31.3,6407],[31.3,6491],[31.3,6574],[31.3,6657],[31.3,6741],[32,6824],[35.2,6907],[36.3,6991],[36.3,7075],[36.3,7157],[36.3,7241],[36.3,7324],[36.3,7407],[36.3,7491],[36.3,7574],[36.3,7657],[36.3,7741],[36.3,7824],[36.3,7907],[36.3,7991],[36.3,8075],[36.3,8157],[36.3,8241],[36.3,8324],[36.3,8408],[36.3,8491],[36.3,8574],[36.3,8657],[37,8741],[48.7,8825],[58.5,8908],[62,8992],[62.5,9074],[62.5,9157],[62.5,9241],[62.5,9324],[62.5,9408],[63.4,9491],[64.6,9574],[66.5,9657],[68.5,9741],[78.8,9825],[86.1,9908],[86.2,9991],[86.2,10074],[88.4,10158],[92.6,10241],[94.5,10324],[94.8,10407],[94.8,10491],[94.8,10574],[94.8,10657],[94.8,10741],[94.8,10824],[94.8,10907],[94.8,10991],[94.8,11074],[94.8,11157],[94.8,11241],[94.8,11324],[94.8,11407],[94.8,11491],[94.8,11574],[94.8,11657],[94.8,11740],[94.8,11824],[94.8,11907],[94.8,11990],[94.8,12074],[94.8,12157],[94.8,12241],[94.8,12324],[94.8,12407],[94.8,12491],[94.8,12574],[94.8,12658],[94.8,12741],[94.8,12824],[94.8,12907],[94.8,12991],[94.8,13075],[94.8,13157],[94.8,13241],[94.8,13324],[94.8,13408],[94.8,13491],[94.8,13574],[94.8,13658],[94.8,13741],[94.8,13824],[94.8,13908],[94.8,13991],[94.8,14074],[94.8,14157],[94.8,14241],[94.8,14324],[94.8,14408],[94.8,14491],[94.8,14574],[94.8,14658],[94.8,14741],[94.8,14824],[94.8,14907],[94.8,14991],[94.8,15075],[94.8,15158],[94.8,15241],[94.8,15324],[94.8,15407],[94.8,15491],[94.8,15574],[94.8,15658],[94.8,15741],[94.8,15824],[94.8,15907],[94.8,15991],[94.8,16074],[94.8,16158],[94.8,16241],[94.8,16324],[94.8,16408],[94.8,16491],[94.8,16574],[94.8,16658],[94.8,16741],[94.8,16824],[94.8,16908],[94.8,16991],[94.8,17075],[94.8,17158],[94.8,17241],[94.8,17324],[94.8,17408],[94.8,17490],[94.8,17574],[94.8,17658],[94.8,17741],[94.8,17824],[94.8,17908],[94.8,17991],[94.8,18074],[94.8,18157],[94.8,18241],[94.8,18324],[94.8,18408],[94.8,18490],[94.8,18574],[94.8,18657],[94.8,18741],[94.8,18824],[94.8,18907],[94.8,18990],[94.8,19074],[94.8,19157],[94.8,19240],[94.8,19324],[94.8,19408],[94.8,19491],[94.8,19574],[94.8,19658],[94.8,19740],[94.8,19824],[94.6,19907],[92.6,19991],[92.4,20074],[92.4,20157],[92.4,20241],[92.4,20324],[92.4,20408],[93.2,20491],[93.8,20574],[94.1,20657],[94.3,20741],[94.3,20824],[94.3,20907],[94.3,20990],[94.3,21074],[94.3,21158],[94.3,21241],[94.3,21324],[94.3,21407],[94.3,21491],[94.3,21574],[94.3,21658],[94.3,21741],[94.3,21824],[94.3,21907],[94.3,21990],[94.3,22074],[94.3,22157],[94.3,22241],[94.3,22324],[94.3,22407],[94.3,22491],[94.3,22574],[94.3,22657],[94.3,22740],[94.3,22824],[94.3,22908],[94.3,22991],[94.3,23074],[94.3,23158],[94.3,23241],[94.3,23324],[94.3,23408],[94.3,23491],[94.3,23574],[94.3,23658],[94.3,23741],[94.3,23824],[94.3,23908],[94.3,23991],[94.3,24074],[94.3,24158],[94.3,24241],[94.3,24324],[94.3,24407],[94.3,24491],[94.3,24574],[94.3,24658],[94.3,24741],[94.3,24824],[94.3,24907],[94.3,24991],[94.3,25074],[94.3,25158],[94.3,25241],[94.3,25324],[94.3,25407],[94.3,25491],[94.3,25573],[94.3,25658],[94.3,25741],[94.3,25824],[94.3,25907],[94.3,25991],[94.3,26074],[94.3,26157],[94.3,26240],[94.3,26324],[94.3,26407],[94.3,26491],[94.3,26574],[94.3,26657],[94.3,26740],[94.3,26824],[94.3,26907],[94.3,26991],[94.3,27074],[94.3,27157],[94.3,27241],[94.3,27324],[94.3,27407],[94.3,27491],[94.3,27574],[94.3,27657],[94.3,27741],[94.3,27824],[94.3,27907],[94.3,27991],[94.3,28074],[94.3,28158],[94.3,28241],[94.3,28324],[94.3,28408],[94.3,28491],[94.3,28573],[94.3,28658],[94.3,28741],[94.3,28824],[94.3,28907],[94.3,28991],[94.3,29074],[94.3,29158],[94.3,29240],[94.3,29324],[94.3,29407],[94.3,29491],[94.3,29574],[93.8,29657],[88.8,29741]]",1,0,573.648,573.651,,,[],,,,573.651,Definitely yes,100,573.654,,,[],,0,0,0,0,1,audio/Narrative13Situation2.wav,audio/Narrative13Situation2.wav,audio/Narrative13Situation2.wav,audio/Narrative13Situation2.wav,2,2,2,2,,,,,535.881,541.313,space,4.923,,,,,,,,,,,,,,,,,,,,,,,,,,,,,,,
,,,,,,65c25cf77dca9d7ca7d9ebdb,2024-02-08_09h41.50.619,group3.1-3.2-social-tom,2023.2.2,Win32,60.0240096,65c5074098b851296ff0b7ed,65c51249c55d9e86fc51f0f0,,,,,,,,,,,,,,,,,,,,,,,,,,,,,573.655,2,audio/Narrative6Situation1.wav,575.663,,575.664,602.264,"[[999,0],[999,82],[999,166],[999,250],[999,332],[999,416],[999,499],[999,582],[999,666],[999,749],[999,832],[999,914],[999,999],[999,1082],[999,1166],[999,1249],[999,1331],[999,1416],[999,1499],[999,1582],[999,1666],[999,1749],[999,1831],[999,1916],[999,1999],[50.5,2082],[50.7,2166],[50.4,2249],[50.2,2331],[50.2,2416],[50.2,2499],[50.2,2582],[50.2,2664],[50.2,2750],[50.2,2832],[50.2,2914],[50.2,2999],[50.2,3081],[50.2,3166],[50.2,3249],[50.2,3331],[50.2,3416],[50.2,3499],[48.8,3582],[44.5,3666],[42,3749],[41.9,3832],[41.9,3916],[41.9,3999],[41.9,4082],[41.9,4166],[41.9,4249],[41.9,4332],[41.9,4416],[41.9,4499],[41.9,4582],[41.9,4666],[41.9,4749],[41.9,4832],[41.9,4916],[41.9,4999],[41.9,5082],[41.9,5166],[41.9,5249],[41.9,5331],[45.5,5416],[62.6,5499],[68.3,5582],[68.8,5666],[72.3,5749],[73,5832],[73,5916],[73,5999],[73,6082],[73.3,6166],[74.1,6250],[74.3,6332],[74.3,6414],[74.3,6499],[74.3,6582],[74.3,6666],[74.3,6749],[74.3,6832],[74.3,6916],[74.3,6999],[74.3,7082],[74.3,7166],[74.3,7249],[74.3,7332],[74.3,7414],[74.3,7499],[73.9,7582],[73.7,7666],[73.5,7750],[73.1,7832],[73,7916],[73,8000],[73.1,8081],[73.7,8166],[74,8249],[74.2,8332],[74.4,8414],[74.4,8500],[74.4,8581],[74.5,8666],[74.5,8749],[74.6,8832],[75.5,8916],[75.5,8999],[75.5,9082],[75.5,9164],[75.5,9249],[75.5,9332],[75.5,9414],[75.5,9499],[75.2,9582],[75,9666],[75,9749],[75,9832],[75,9914],[75,9999],[75,10081],[75,10164],[75,10249],[75,10331],[75,10416],[75,10499],[75,10581],[75,10666],[75,10749],[73.2,10831],[61.6,10916],[50.2,10999],[44.3,11082],[41.8,11166],[41.3,11249],[40.7,11331],[36,11414],[32,11499],[31.8,11581],[31.4,11664],[27.3,11750],[24,11831],[24,11914],[24,11999],[24,12082],[24.2,12166],[24.5,12249],[24.6,12332],[24.7,12414],[24.7,12499],[24.7,12581],[24.7,12666],[24.7,12749],[24.7,12831],[24.7,12914],[24.7,12999],[24.7,13081],[24.7,13166],[24.7,13249],[24.7,13332],[24.7,13414],[24.7,13499],[24.7,13581],[24.7,13666],[24.7,13749],[24.7,13832],[24.7,13914],[24.7,13999],[24.7,14082],[24.7,14166],[24.7,14249],[24.7,14331],[24.7,14416],[24,14499],[23,14582],[23,14666],[23,14749],[23,14831],[23,14916],[23,14999],[23,15082],[23,15166],[23,15249],[23,15331],[23,15416],[23,15499],[23,15581],[23,15666],[23,15749],[23,15831],[23,15916],[23,15999],[23,16082],[23,16166],[23,16249],[23,16331],[23,16416],[23,16499],[23,16582],[23,16666],[23,16749],[23,16832],[23,16916],[23,16999],[23,17081],[23,17164],[23,17249],[23,17331],[23,17416],[23,17499],[23,17582],[23,17664],[23,17749],[23,17831],[23,17916],[23,17999],[23,18081],[23,18166],[23,18249],[23,18332],[23,18414],[23,18499],[23,18581],[23,18666],[23,18749],[23,18832],[23,18914],[23,18999],[23,19081],[23,19166],[23,19249],[23,19331],[23,19416],[23,19499],[23,19582],[23,19666],[23,19749],[23.2,19831],[23.4,19914],[23.4,19999],[23.4,20082],[23.4,20166],[23.4,20249],[23.4,20331],[23.4,20416],[23.4,20499],[23.4,20581],[23.4,20666],[23.4,20749],[23.4,20832],[23.4,20916],[23.4,20999],[23.4,21081],[23.4,21164],[23.4,21249],[23.4,21331],[23.4,21416],[23.4,21499],[23.4,21581],[23.4,21664],[23.4,21749],[23.4,21831],[23.4,21914],[23.4,21999],[23.4,22081],[23.4,22164],[23.4,22248],[23.4,22331],[23.4,22416],[23.4,22499],[23.4,22582],[23.4,22666],[23.4,22749],[23.4,22832],[23.4,22916],[23.4,22998],[23.4,23081],[23.7,23166],[23.7,23249],[23.9,23332],[24.2,23414],[24.2,23499],[24.2,23581],[24.2,23666],[24.2,23749],[24.2,23832],[24.2,23916],[24.2,23999],[24.2,24081],[24.2,24164],[24.2,24249],[24.2,24332],[24.2,24416],[24.2,24499],[24.2,24581],[24.2,24666],[24.2,24749],[24.2,24831],[24.2,24914],[24.2,24999],[24.2,25081],[24.2,25164],[24.2,25249],[24.2,25332],[24.2,25416],[24.2,25498],[24.2,25581],[24.2,25666],[30.2,25749],[67.3,25832],[81.4,25916],[81.4,25999],[81.2,26081],[79.8,26164],[63,26249],[41.6,26331],[32,26416],[30,26499],[27.8,26581]]",1,0,602.264,607.996,24.609375,4.036,"[{""rating"":24.609375,""responseTime"":4.036000000000058}]",space,5.201,,607.997,Not at all,0,608.001,,,[],,0,1,1,1,1,audio/Narrative7Situation1.wav,audio/Narrative8Situation1.wav,audio/Narrative5Situation1.wav,audio/Narrative6Situation1.wav,2,5,5,2,,,,,,,,,,,,,,,,,,,,,,,,,,,,,,,,,,,,,,,
,,,,,,65c25cf77dca9d7ca7d9ebdb,2024-02-08_09h41.50.619,group3.1-3.2-social-tom,2023.2.2,Win32,60.0240096,65c5074098b851296ff0b7ed,65c51249c55d9e86fc51f0f0,,,,,,,,,,,,,,,,,,,,,,,,,,,,,608.002,2,audio/Narrative6Situation2.wav,611.013,,611.013,639.529,"[[999,0],[999,82],[999,166],[999,250],[999,332],[999,416],[999,500],[999,582],[999,666],[999,750],[999,832],[999,915],[999,1000],[999,1082],[999,1165],[52.6,1250],[50.7,1332],[50.5,1415],[50.5,1500],[50.5,1582],[50.5,1665],[50.5,1748],[50.5,1832],[50.5,1916],[50.5,1998],[50.5,2082],[50.5,2166],[50.5,2250],[50.5,2332],[50.5,2416],[50.5,2498],[49.1,2582],[37.1,2666],[31.1,2750],[28.8,2832],[27.4,2915],[24.6,3000],[24.3,3082],[24.3,3165],[24.4,3250],[24.5,3333],[24.6,3416],[24.7,3500],[24.7,3582],[24.7,3665],[24.7,3750],[24.7,3832],[24.7,3915],[24.7,3998],[24.7,4082],[24.7,4165],[24.7,4248],[24.7,4332],[24.7,4415],[24.7,4498],[24.7,4582],[24.7,4665],[24.7,4750],[24.7,4832],[24.7,4915],[24.7,5000],[24.7,5082],[24.7,5166],[24.7,5248],[24.7,5333],[24.7,5416],[24.7,5498],[24.7,5582],[24.7,5665],[24.7,5750],[24.7,5832],[24.7,5915],[24.7,5998],[24.7,6082],[24.7,6165],[24.7,6248],[24.7,6332],[24.7,6415],[24.7,6500],[24.7,6582],[24.7,6665],[24.7,6750],[24.7,6832],[24.9,6916],[24.9,7000],[24.9,7082],[24.9,7165],[24.9,7250],[24.9,7332],[24.9,7415],[24.9,7500],[24.9,7582],[24.9,7665],[24.9,7750],[24.9,7832],[24.9,7916],[24.9,7998],[24.9,8082],[24.9,8165],[24.9,8250],[24.9,8332],[24.9,8415],[24.9,8498],[24.9,8582],[24.9,8665],[24.9,8750],[24.9,8832],[24.9,8915],[24.9,8998],[24.9,9082],[24.9,9165],[24.9,9250],[24.9,9332],[24.9,9416],[24.9,9498],[24.9,9582],[25.4,9665],[25.9,9750],[26,9832],[26,9915],[26,9998],[26,10082],[26,10165],[26,10248],[26,10332],[26,10415],[26,10500],[26,10582],[26,10665],[26,10750],[26,10832],[26,10916],[26,11000],[26,11082],[42.3,11166],[67.8,11250],[75.4,11332],[75.4,11415],[75.4,11500],[75.4,11582],[76.9,11666],[79.6,11750],[79.7,11832],[79.7,11915],[79.7,11998],[77,12082],[56.5,12165],[48,12250],[48.7,12332],[63.3,12416],[77.9,12500],[78.7,12582],[78.7,12665],[78.7,12748],[74.8,12832],[54.1,12916],[37.9,13000],[37.5,13083],[39.5,13165],[39.7,13248],[39.1,13332],[32.4,13416],[27.9,13500],[28,13583],[35.7,13665],[38.8,13750],[37.3,13832],[30.7,13916],[29.7,14000],[29.7,14082],[29.7,14165],[29.7,14250],[29.7,14332],[29.7,14415],[29.7,14498],[29.8,14582],[30,14665],[30.6,14748],[32.7,14832],[33.5,14915],[33.5,15000],[33.5,15082],[35.3,15165],[39.8,15248],[50.8,15332],[62.7,15415],[72.4,15500],[76.2,15582],[77.4,15666],[81,15748],[82.7,15832],[82.7,15915],[82.7,15998],[82.7,16082],[82.7,16166],[83.4,16248],[84.3,16332],[85.2,16415],[85.3,16500],[85.3,16581],[85.3,16665],[85.3,16748],[85.3,16832],[85.3,16915],[85.3,16998],[80.1,17082],[44,17165],[23.9,17248],[22.1,17332],[22.1,17415],[27.3,17498],[65.4,17582],[90.2,17665],[91.2,17750],[91.1,17832],[88.3,17915],[86.9,17998],[86.9,18082],[86.9,18165],[86.9,18250],[86.9,18332],[86.9,18415],[87.6,18498],[88.2,18582],[88.4,18665],[88.5,18748],[88.5,18832],[88.5,18915],[88.5,19000],[88.5,19082],[88.5,19165],[88.5,19248],[88.5,19332],[88.5,19415],[88.5,19500],[88.5,19581],[88.5,19665],[88.5,19748],[88.5,19832],[88.5,19915],[88.5,19998],[88.5,20082],[88.5,20165],[88.5,20248],[88.5,20332],[88.5,20415],[88.5,20498],[88.5,20581],[88.5,20665],[88.5,20750],[88.5,20832],[88.5,20915],[88.5,21000],[88.5,21082],[88.5,21165],[88.5,21248],[88.5,21332],[88.5,21415],[88.5,21500],[88.5,21582],[88.5,21666],[88.5,21750],[88.5,21832],[88.5,21915],[88.5,22000],[88.5,22082],[88.5,22165],[88.5,22248],[88.5,22332],[88.5,22415],[88.5,22500],[88.8,22582],[89.4,22665],[89.6,22750],[89.6,22832],[89.6,22916],[89,22998],[88.7,23082],[88.7,23166],[88.7,23248],[88.7,23332],[88.7,23416],[88.7,23498],[88.7,23582],[88.7,23665],[88.7,23748],[88.7,23831],[88.7,23915],[88.7,24000],[88.7,24082],[88.7,24166],[88.7,24248],[88.7,24331],[88.7,24415],[88.7,24498],[88.7,24582],[88.7,24665],[88.7,24748],[88.7,24832],[88.7,24915],[88.7,25000],[88.7,25081],[88.7,25165],[88.7,25248],[88.7,25332],[88.7,25415],[88.7,25500],[88.7,25582],[88.7,25665],[88.7,25750],[88.7,25832],[88.7,25915],[88.7,26000],[88.7,26081],[88.7,26166],[88.7,26250],[88.7,26332],[88.7,26415],[88.7,26500],[88.7,26582],[88.7,26665],[88.7,26750],[88.7,26832],[88.7,26916],[88.7,27000],[88.7,27081],[88.7,27165],[88.7,27248],[88.7,27331],[88.7,27415],[88.7,27498],[88.7,27581],[88.7,27665],[88.7,27748],[88.7,27832],[88.7,27915],[88.7,27998],[88.7,28082],[88.7,28165],[88.7,28250],[88.7,28332],[88.7,28415],[88.7,28500]]",1,0,639.53,642.062,88.90625,0.693,"[{""rating"":88.90625,""responseTime"":0.6929999999999836}]",space,1.991,,642.063,Definitely yes,100,642.067,,,[],,0,2,2,2,1,audio/Narrative7Situation2.wav,audio/Narrative8Situation2.wav,audio/Narrative5Situation2.wav,audio/Narrative6Situation2.wav,3,3,3,3,,,,,,,,,,,,,,,,,,,,,,,,,,,,,,,,,,,,,,,
,,,,,,65c25cf77dca9d7ca7d9ebdb,2024-02-08_09h41.50.619,group3.1-3.2-social-tom,2023.2.2,Win32,60.0240096,65c5074098b851296ff0b7ed,65c51249c55d9e86fc51f0f0,,,,,,,,,,,,,,,,,,,,,,,,,,,,,642.068,2,audio/Narrative6Situation3.wav,647.079,,647.079,659.679,"[[49,266],[49.1,350],[49.3,434],[49.5,517],[49.5,600],[49.5,682],[49.8,767],[49.3,1350],[48,1434],[48,1516],[48.8,1600],[49.5,1682],[49.5,1766],[49.3,1850],[49.1,1932],[49.1,2016],[49.1,2100],[49.1,2182],[49.1,2266],[49.1,2350],[49.1,2432],[49.1,2516],[45.9,2600],[34.6,2682],[29.8,2767],[29.8,2850],[29.8,2932],[29.8,3017],[29.5,3100],[29.2,3182],[29.2,3266],[29.2,3350],[29.2,3432],[29.2,3517],[29.1,3600],[29.1,3682],[29.1,3767],[29.6,3850],[29.8,3932],[29.8,4016],[29.8,4100],[29.8,4182],[29.8,4267],[29.8,4350],[29.8,4432],[29.8,4517],[29.8,4600],[29.8,4682],[29.8,4766],[29.8,4849],[29.8,4932],[29.8,5017],[29.8,5100],[29.8,5182],[29.8,5266],[29.8,5350],[29.8,5432],[29.8,5517],[29.8,5600],[29.8,5682],[29.8,5766],[29.8,5850],[29.8,5932],[29.8,6017],[29.8,6100],[29.8,6182],[29.8,6266],[29.8,6350],[29.8,6432],[29.8,6517],[29.8,6600],[29.8,6682],[29.8,6766],[29.8,6850],[29.8,6932],[29.8,7016],[29.8,7100],[29.8,7184],[29.8,7266],[29.8,7350],[29.8,7432],[29.8,7516],[29.8,7600],[38.9,7682],[86.9,8017],[85,8100],[83.5,8182],[83.5,8267],[83.5,8350],[83.5,8432],[83.5,8517],[83.5,8600],[83.5,8684],[83.5,8767],[83.5,8850],[83.5,8932],[83.5,9017],[83.5,9100],[83.5,9182],[83.5,9266],[83.5,9350],[83.5,9432],[83.5,9517],[83.5,9600],[83.5,9682],[83.5,9766],[83.5,9850],[83.5,9932],[83.5,10016],[83.4,10100],[83.4,10182],[83.4,10267],[83.4,10350],[83.4,10432],[83.4,10516],[83.4,10600],[83.4,10682],[83.4,10767],[83.4,10849],[83.4,10932],[83.4,11017],[83.4,11100],[83.4,11182],[83.4,11266],[93.4,12016],[92.6,12100],[89.8,12182],[88,12267],[81.6,12350],[79.3,12432],[79.1,12516],[79.5,12600]]",1,0,659.679,662.445,70.546875,1.282,"[{""rating"":70.546875,""responseTime"":1.282000000000039}]",space,2.239,,662.445,Partially,50,662.449,,,[],,0,3,3,3,1,audio/Narrative7Situation3.wav,audio/Narrative8Situation3.wav,audio/Narrative5Situation3.wav,audio/Narrative6Situation3.wav,8,4,3,5,,,,,,,,,,,,,,,,,,,,,,,,,,,,,,,,,,,,,,,
,,,,,,65c25cf77dca9d7ca7d9ebdb,2024-02-08_09h41.50.619,group3.1-3.2-social-tom,2023.2.2,Win32,60.0240096,65c5074098b851296ff0b7ed,65c51249c55d9e86fc51f0f0,,,,,,,,,,,,,,,,,,,,,,,,,,,,,662.45,2,audio/Narrative6Situation4.wav,664.462,,664.462,677.079,"[[999,0],[999,82],[999,167],[999,250],[999,334],[999,417],[999,500],[999,582],[999,667],[999,750],[999,832],[999,917],[999,1000],[999,1084],[999,1166],[999,1250],[999,1334],[999,1417],[999,1500],[999,1584],[999,1666],[999,1750],[999,1832],[999,1917],[999,2000],[999,2084],[999,2167],[999,2250],[999,2334],[999,2417],[999,2500],[999,2584],[999,2667],[999,2750],[999,2834],[999,2917],[999,3000],[999,3082],[999,3167],[999,3250],[999,3332],[999,3417],[38.2,3667],[28.2,3750],[25.4,3834],[25.3,3917],[24,4000],[24,4082],[23.8,4167],[23.8,4250],[23.8,4332],[23.8,4417],[23.8,4500],[23.8,4582],[23.8,4666],[23.8,4750],[23.8,4834],[23.8,4917],[23.8,5000],[23.8,5082],[23.8,5167],[23.8,5250],[23.8,5334],[23.8,5417],[23.8,5500],[23.8,5582],[23.8,5667],[23.8,5750],[23.8,5832],[23.8,5916],[23.8,6000],[23.8,6082],[23.8,6167],[23.8,6250],[23.8,6334],[23.8,6417],[23.8,6500],[23.8,6582],[23.8,6667],[23.8,6750],[23.8,6834],[23.8,6916],[23.8,7000],[23.8,7084],[23.8,7166],[23.8,7250],[23.8,7332],[23.8,7417],[23.8,7500],[23.8,7582],[25.2,7667],[26.5,7750],[25.7,7832],[24.9,7917],[22,8000],[22,8082],[22,8167],[22,8250],[22,8332],[22,8416],[22.3,8500],[22.7,8582],[22.7,8666],[22.7,8750],[22.7,8832],[22.7,8916],[22.7,9000],[22.7,9082],[22.7,9166],[22.7,9250],[22.7,9332],[23,9417],[24.1,9500],[38.5,9917],[30.2,10000],[29.8,10084],[28.4,10167],[24.4,10250],[23.5,10332],[21.6,10417],[21.2,10500],[19.5,10584],[14.5,10667],[13.2,10750],[13.2,10834],[13.2,10917],[13.2,11000],[13.2,11082],[15.5,11167],[16.7,11250],[16.8,11334],[16.8,11416],[16.8,11500],[16.8,11584],[17.3,11667],[18.9,11750],[19.5,11832],[19.5,11917],[19.6,12000],[19.1,12084],[14.4,12167],[14.1,12250],[14.1,12332],[14.3,12417],[14.8,12500],[16.6,12584]]",1,0,677.08,679.079,17.109375,0.592,"[{""rating"":17.109375,""responseTime"":0.5919999999999845}]",space,1.456,,679.079,Not at all,0,688.945,0.46875,8.014,"[{""rating"":0.4687500000000011,""responseTime"":8.01400000000001}]",space,0,4,4,4,1,audio/Narrative7Situation4.wav,audio/Narrative8Situation4.wav,audio/Narrative5Situation4.wav,audio/Narrative6Situation4.wav,3,3,1,2,,,9.323,,,,,,,,,,,,,,,,,,,,,,,,,,,,,,,,,,,,
,,,,,,65c25cf77dca9d7ca7d9ebdb,2024-02-08_09h41.50.619,group3.1-3.2-social-tom,2023.2.2,Win32,60.0240096,65c5074098b851296ff0b7ed,65c51249c55d9e86fc51f0f0,,,,,,,,,,,,,,,,,,,,,,,,,,,,,688.946,2,audio/Narrative6Situation5.wav,690.962,,690.962,698.929,"[[999,0],[999,82],[999,167],[999,250],[999,332],[999,417],[999,500],[999,584],[999,667],[999,750],[999,832],[999,916],[999,1000],[999,1082],[999,1167],[999,1250],[49.1,1332],[49,1417],[49.5,1500],[49.7,1582],[49.7,1666],[49.7,1750],[35.9,1832],[22.7,1917],[22.7,2000],[25.5,2082],[29.8,2166],[30.2,2250],[30.2,2332],[30.2,2416],[30.2,2500],[30.2,2582],[30.2,2667],[30.2,2750],[30.2,2832],[30.2,2916],[30.2,3000],[30.2,3082],[30.2,3166],[30.2,3249],[30.2,3332],[30.2,3416],[30.2,3500],[30.2,3582],[30.2,3666],[30.2,3750],[30.2,3832],[30.2,3916],[30.2,4000],[30.2,4082],[30.2,4166],[30.2,4250],[30.2,4332],[30.2,4416],[30.2,4500],[30.2,4582],[30.2,4666],[30.2,4750],[30.2,4832],[30.1,4916],[29.1,5000],[28.4,5084],[28.4,5166],[28.4,5250],[28.4,5332],[28.4,5417],[28.4,5500],[28.4,5582],[28.4,5666],[28.4,5750],[28.4,5832],[28.4,5916],[28.4,6000],[28.4,6082],[28.4,6167],[28.4,6250],[28.4,6332],[28.4,6416],[28.4,6500],[28.4,6582],[28.4,6667],[28.4,6750],[28.4,6832],[28.4,6916],[28.4,7000],[28.4,7082],[28.4,7166],[28.4,7250],[28.4,7332],[28.4,7416],[28.4,7500],[28.4,7582],[28.4,7666],[28.4,7750],[28.4,7832],[24,7916]]",1,0,698.929,701.379,24.84375,1.166,"[{""rating"":24.843749999999996,""responseTime"":1.1660000000000537}]",space,1.918,,701.379,Not at all,0,701.383,,,[],,0,5,5,5,1,audio/Narrative7Situation5.wav,audio/Narrative8Situation5.wav,audio/Narrative5Situation5.wav,audio/Narrative6Situation5.wav,5,2,5,2,,,,,,,,,,,,,,,,,,,,,,,,,,,,,,,,,,,,,,,
,,,,,,65c25cf77dca9d7ca7d9ebdb,2024-02-08_09h41.50.619,group3.1-3.2-social-tom,2023.2.2,Win32,60.0240096,65c5074098b851296ff0b7ed,65c51249c55d9e86fc51f0f0,,,,,,,,,,,,,,,,,,,,,,,,,,,,,701.383,2,audio/Narrative6Situation6.wav,703.396,,703.396,714.479,"[[999,0],[999,81],[999,165],[999,249],[999,331],[999,416],[999,499],[999,581],[999,665],[999,749],[999,833],[999,916],[999,1000],[40.9,1081],[45.2,1165],[46.1,1249],[47.9,1333],[48,1416],[48.2,1498],[48.8,1581],[49.2,1665],[49.2,1749],[45.7,1831],[32.3,1916],[27.4,1999],[27.3,2081],[27.3,2165],[27.3,2249],[27.3,2331],[27.3,2416],[27.3,2499],[27.3,2581],[27.3,2665],[27.3,2749],[27.3,2831],[27.3,2916],[27.1,2999],[27,3083],[27,3165],[27,3249],[27,3331],[27,3416],[27,3498],[27,3581],[27,3665],[27,3749],[27,3831],[26.9,3916],[26.9,3999],[26.9,4081],[26.9,4166],[26.9,4249],[26.9,4333],[26.8,4416],[26.8,4499],[26.8,4581],[26.8,4666],[26.8,4749],[26.8,4831],[26.8,4916],[26.8,4999],[26.8,5081],[26.8,5166],[26.8,5249],[26.8,5331],[26.8,5416],[25.9,5499],[25.3,5583],[25.2,5666],[25.2,5749],[25.2,5831],[25.2,5916],[25.2,5999],[25.2,6081],[25.2,6166],[25.2,6248],[25.2,6331],[25.2,6415],[25.2,6498],[25.2,6581],[25.2,6666],[25.2,6748],[25.2,6831],[25.2,6915],[25.2,6999],[25.2,7081],[25.2,7166],[25.2,7248],[25.2,7333],[25.2,7416],[25.2,7499],[25.2,7581],[25.2,7666],[25.2,7749],[25.2,7831],[25.2,7916],[25.2,7999],[25.2,8081],[25.2,8166],[25.2,8249],[25.2,8331],[25.2,8415],[25.2,8499],[25.2,8583],[25.2,8666],[25.2,8749],[25.2,8831],[25.2,8916],[25.2,8999],[25.2,9083],[25.2,9166],[25.2,9249],[25.2,9331],[25.2,9415],[25.2,9499],[25.2,9583],[25.2,9666],[25.2,9749],[25.2,9831],[25.2,9916],[25.2,9999],[25.2,10081],[25.2,10166],[25.2,10248],[25.2,10331],[25.2,10415],[25.2,10498],[25.2,10583],[25.2,10666],[25.2,10748],[25.2,10831],[25.2,10915],[25.2,10999],[24.5,11083]]",1,0,714.479,716.645,24.296875,0.682,"[{""rating"":24.296875,""responseTime"":0.6819999999999027}]",space,1.615,,716.645,Not at all,0,716.647,,,[],,0,6,6,6,1,audio/Narrative7Situation6.wav,audio/Narrative8Situation6.wav,audio/Narrative5Situation6.wav,audio/Narrative6Situation6.wav,3,2,3,2,,,,,,,,,,,,,,,,,,,,,,,,,,,,,,,,,,,,,,,
,,,,,,65c25cf77dca9d7ca7d9ebdb,2024-02-08_09h41.50.619,group3.1-3.2-social-tom,2023.2.2,Win32,60.0240096,65c5074098b851296ff0b7ed,65c51249c55d9e86fc51f0f0,,,,,,,,,,,,,,,,,,,,,,,,,,,,,716.647,2,audio/Narrative6Situation7.wav,721.662,,721.662,746.528,"[[52,915],[38.2,1332],[27.4,1415],[25.9,1498],[25.9,1582],[25.7,1665],[25.4,1748],[25.5,1832],[25.5,1915],[25.5,2000],[25.5,2082],[25.5,2165],[25.5,2250],[25.5,2332],[25.5,2415],[25.5,2498],[25.5,2581],[25.5,2665],[25.5,2748],[25.5,2832],[25.5,2915],[25.5,2998],[25.5,3081],[25.5,3165],[25.5,3250],[25.5,3332],[25.5,3415],[25.5,3498],[25.5,3581],[25.5,3665],[25.5,3748],[25.5,3832],[25.5,3915],[25.5,3998],[25.5,4081],[25.5,4165],[25.5,4250],[25.5,4331],[25.5,4415],[25.5,4500],[25.5,4582],[25.5,4665],[25.5,4748],[25.5,4832],[25.5,4915],[25.5,5000],[25.5,5081],[25.5,5165],[25.5,5248],[25.5,5332],[25.5,5415],[25.5,5498],[25.5,5581],[26.3,5665],[26.8,5748],[26.8,5832],[26.8,5915],[26.8,5998],[25.1,6081],[24.9,6165],[24.9,6248],[24.9,6331],[24.9,6415],[24.9,6498],[24.9,6582],[24.9,6665],[86,7082],[83,7165],[81,7248],[79.3,7332],[79.1,7415],[79.1,7498],[79.1,7582],[79.8,7665],[80.4,7748],[80.4,7832],[80.4,7915],[80.4,7998],[80.7,8082],[80.9,8165],[80.9,8248],[80.9,8332],[80.9,8415],[80.9,8498],[80.9,8581],[80.9,8665],[80.9,8750],[80.9,8832],[80.9,8915],[80.9,9000],[80.9,9082],[80.9,9165],[80.9,9248],[80.9,9331],[80.9,9415],[80.9,9498],[80.9,9582],[80.9,9665],[80.9,9750],[80.9,9831],[80.9,9915],[80.9,9998],[80.7,10082],[80.7,10165],[80.7,10248],[80.7,10332],[80.7,10415],[80.7,10500],[80.7,10582],[80.7,10664],[80.7,10748],[80.7,10831],[80.7,10914],[80.7,10998],[80.7,11081],[80.7,11165],[80.7,11248],[80.7,11331],[82.7,11415],[84.2,11498],[84.2,11581],[84.2,11665],[84.2,11748],[84.2,11831],[84.2,11914],[84.2,12000],[83.7,12082],[83.4,12165],[83.4,12248],[83.4,12331],[83.4,12415],[83.4,12498],[83.4,12582],[83.4,12664],[83.4,12748],[83.4,12832],[83.4,12915],[83.4,12998],[83.4,13082],[83.4,13165],[83.4,13250],[83.4,13332],[83.4,13415],[83.4,13498],[83.4,13582],[83.4,13665],[83.4,13748],[83.4,13832],[83.4,13915],[83.4,13998],[83.4,14081],[83.4,14165],[83.4,14248],[83.4,14331],[83.4,14414],[83.4,14498],[83.4,14582],[83.4,14665],[83.4,14748],[83.4,14831],[83.4,14915],[83.4,14998],[83.4,15082],[83.4,15165],[83.4,15248],[83.4,15331],[83.4,15414],[83.4,15498],[83.4,15582],[83.4,15665],[83.4,15748],[83.4,15831],[83.4,15915],[83.4,15998],[83.4,16081],[83.4,16164],[83.4,16248],[83.4,16331],[83.4,16415],[83.4,16498],[83.4,16581],[83.4,16665],[83.4,16748],[83.4,16831],[83.4,16915],[83.4,16998],[83.4,17082],[83.4,17165],[83.4,17248],[83.4,17332],[83.4,17415],[83.4,17498],[83.4,17582],[83.4,17665],[83.4,17748],[83.4,17832],[83.4,17915],[83.4,17998],[83.4,18082],[83.4,18165],[83.4,18248],[83.4,18331],[83.4,18415],[83.4,18498],[83.4,18582],[83.4,18665],[83.4,18748],[83.4,18831],[83.4,18915],[83.4,18998],[83.4,19082],[83.4,19165],[83.4,19248],[83.4,19332],[83.4,19414],[83.4,19498],[83.4,19581],[83.4,19665],[83.4,19748],[83.4,19832],[83.4,19915],[83.4,19998],[83.4,20081],[83.4,20165],[83.4,20248],[83.4,20331],[83.4,20415],[83.4,20498],[83.4,20582],[83.4,20665],[83.4,20748],[83.4,20832],[83.4,20915],[83.4,20998],[83.4,21081],[83.4,21165],[83.4,21248],[83.4,21332],[83.4,21415],[83.4,21498],[83.4,21581],[83.4,21665],[83.6,21748],[87.2,21832],[88.7,21915],[89,22000],[87.9,22081],[78.1,22165],[76.7,22248],[82.1,22331],[92,22414],[92,22500],[91.6,22581],[88.6,22665],[86.8,22748],[85.9,22831],[86,22915],[89.1,23000],[89.9,23081],[89.9,23164],[89.9,23248],[89.9,23331],[89.7,23414],[89.7,23498],[89.7,23581],[89.7,23665],[89.7,23750],[89.7,23831],[89.7,23914],[89.7,23998],[89.7,24081],[89.7,24165],[89.9,24248],[90.9,24331],[88.4,24665],[88.4,24750],[88.4,24832]]",1,0,746.529,748.961,87.421875,1.32,"[{""rating"":87.421875,""responseTime"":1.32000000000005}]",space,1.89,,748.961,Not at all,0,748.964,,,[],,0,7,7,7,1,audio/Narrative7Situation7.wav,audio/Narrative8Situation7.wav,audio/Narrative5Situation7.wav,audio/Narrative6Situation7.wav,5,3,4,5,,,,,,,,,,,,,,,,,,,,,,,,,,,,,,,,,,,,,,,
,,,,,,65c25cf77dca9d7ca7d9ebdb,2024-02-08_09h41.50.619,group3.1-3.2-social-tom,2023.2.2,Win32,60.0240096,65c5074098b851296ff0b7ed,65c51249c55d9e86fc51f0f0,,,,,,,,,,,,,,,,,,,,,,,,,,,,,748.965,2,audio/Narrative6Situation8.wav,753.978,,753.978,760.845,"[[88,1333],[83.3,1416],[88.6,1500],[32,1999],[31.5,2083],[30.9,2166],[30.9,2250],[30.9,2334],[30.9,2416],[30.9,2499],[30.9,2583],[30.9,2667],[30.9,2750],[30.9,2831],[30.9,2917],[30.9,2999],[30.9,3083],[30.9,3167],[30.9,3250],[30.9,3333],[30.9,3416],[30.9,3499],[30.9,3583],[30.9,3666],[30.9,3750],[30.9,3833],[30.9,3916],[30.9,4000],[30.9,4083],[30.9,4166],[30.9,4249],[30.9,4333],[30.9,4416],[30.9,4499],[30.9,4583],[30.9,4666],[30.9,4749],[30.9,4833],[30.9,4916],[30.8,5000],[29.3,5083],[29.3,5166],[27.1,5250],[25.1,5333],[25.1,5416],[24.8,5500],[23.2,5583],[26.1,5666],[30.9,5750],[31.2,5833],[27.9,5917],[25.7,6000],[27.2,6083],[30,6167],[27.1,6250],[24.6,6333],[26.5,6417],[27.9,6500],[27,6583],[26.2,6666],[29.8,6750],[28,6833]]",1,0,760.845,764.494,28.359375,2.276,"[{""rating"":28.359374999999996,""responseTime"":2.2759999999999536}]",space,3.108,,764.495,Not at all,0,764.496,,,[],,0,8,8,8,1,audio/Narrative7Situation8.wav,audio/Narrative8Situation8.wav,audio/Narrative5Situation8.wav,audio/Narrative6Situation8.wav,2,3,3,5,,,,,,,,,,,,,,,,,,,,,,,,,,,,,,,,,,,,,,,
,,,,,,65c25cf77dca9d7ca7d9ebdb,2024-02-08_09h41.50.619,group3.1-3.2-social-tom,2023.2.2,Win32,60.0240096,65c5074098b851296ff0b7ed,65c51249c55d9e86fc51f0f0,,,,,,,,,,,,,,,,,,,,,,,,,,,,,764.497,2,audio/Narrative6Situation9.wav,768.512,,768.512,778.478,"[[999,1],[999,83],[999,166],[999,249],[999,331],[999,416],[999,499],[999,583],[999,665],[999,749],[999,831],[999,915],[999,999],[999,1081],[999,1165],[999,1249],[999,1331],[999,1416],[999,1498],[999,1581],[999,1665],[999,1749],[999,1831],[999,1915],[999,1998],[999,2081],[999,2165],[999,2248],[999,2331],[999,2415],[999,2499],[41.5,2581],[39.1,2666],[33,2749],[24.6,2831],[24,2916],[24,2999],[24,3081],[23.7,3165],[23,3249],[22.9,3333],[22.3,3415],[21.2,3499],[21.2,3581],[21.2,3665],[21.2,3748],[21.2,3831],[21.2,3916],[21.2,3999],[21.2,4083],[21.2,4166],[21.2,4249],[21.2,4331],[21.2,4416],[21.2,4499],[21.2,4583],[21.2,4665],[21.2,4749],[21.2,4831],[21.2,4916],[21.2,4999],[21.2,5081],[21.2,5165],[21.2,5249],[21.2,5331],[21.2,5416],[21.2,5499],[21.2,5581],[21.2,5665],[21.2,5749],[21.2,5831],[21.2,5915],[21.2,5999],[21.2,6081],[21.2,6166],[21.2,6249],[21.2,6331],[21.2,6416],[21.2,6498],[21.2,6581],[21.2,6665],[21.2,6748],[21.2,6831],[21.8,6916],[24.1,6999],[24.1,7081],[24.1,7166],[24.1,7249],[24.1,7331],[24.1,7416],[22,7499],[19.1,7581],[18.7,7666],[18.7,7749],[18.7,7831],[19,7916],[20.5,7999],[22,8081],[22,8165],[22,8249],[22,8331],[22,8415],[22,8499],[22,8581],[22,8666],[22,8748],[22,8831],[22,8915],[22,8999],[21.9,9083],[20.8,9166],[19.1,9248],[17.1,9331],[15.5,9416],[14.1,9499],[11.7,9581],[9.5,9665],[7,9749],[3.9,9831],[0.9,9915]]",1,0,778.478,780.211,0.859375,0.677,"[{""rating"":0.8593750000000011,""responseTime"":0.6769999999999072}]",space,1.201,,780.211,Not at all,0,780.214,,,[],,0,9,9,9,1,audio/Narrative7Situation9.wav,audio/Narrative8Situation9.wav,audio/Narrative5Situation9.wav,audio/Narrative6Situation9.wav,2,3,3,4,,,,,,,,,,,,,,,,,,,,,,,,,,,,,,,,,,,,,,,
,,,,,,65c25cf77dca9d7ca7d9ebdb,2024-02-08_09h41.50.619,group3.1-3.2-social-tom,2023.2.2,Win32,60.0240096,65c5074098b851296ff0b7ed,65c51249c55d9e86fc51f0f0,,,,,,,,,,,,,,,,,,,,,,,,,,,,,780.214,2,audio/Narrative5Situation1.wav,785.228,,785.228,798.527,"[[2.3,666],[49,1166],[50.7,1249],[50.9,1333],[50.9,1416],[49.8,1500],[49.8,1583],[48.4,1666],[40.7,1750],[39.1,1833],[44.8,1916],[61.6,2000],[68.8,2083],[72.4,2166],[72.4,2250],[67.9,2333],[56.5,2416],[50.9,2499],[49.4,2583],[45.7,2666],[38.4,2749],[36,2833],[31.9,2916],[31.8,2999],[31.8,3081],[31.8,3166],[31.8,3249],[31.8,3333],[31.8,3416],[31.8,3499],[31.8,3583],[31.8,3666],[31.8,3750],[31.8,3833],[31.8,3916],[31.8,4000],[31.8,4081],[31.8,4166],[31.8,4249],[31.8,4331],[31.8,4416],[31.8,4499],[31.8,4581],[31.8,4666],[31.8,4749],[31.8,4831],[31.8,4916],[31.8,5000],[31.8,5081],[31.8,5166],[31.8,5250],[31.8,5333],[31.8,5416],[31.8,5499],[31.8,5583],[31.8,5666],[31.8,5749],[31.8,5833],[31.8,5916],[31.8,5999],[31.8,6081],[31.8,6166],[31.8,6249],[31.8,6331],[31.8,6416],[31.8,6499],[31.8,6581],[31.3,6666],[28,6749],[26.9,6833],[26.9,6916],[26.9,6999],[26.9,7081],[26.9,7166],[26.9,7249],[26.9,7331],[26.9,7416],[26.9,7499],[26.9,7583],[26.9,7666],[26.9,7749],[26.9,7831],[26.9,7915],[26.9,7999],[26.9,8083],[26.9,8165],[26.9,8250],[26.9,8331],[26.9,8416],[26.9,8500],[26.9,8583],[26.9,8665],[26.9,8749],[26.9,8833],[26.9,8916],[26.9,9000],[26.9,9083],[26.9,9166],[26.9,9249],[26.9,9331],[26.9,9416],[26.9,9499],[26.9,9583],[26.9,9666],[26.9,9749],[26.9,9833],[26.9,9916],[26.9,10000],[26.9,10081],[26.9,10166],[26.9,10249],[26.9,10333],[26.9,10416],[26.9,10499],[26.9,10583],[26.9,10666],[26.9,10749],[26.9,10833],[26.9,10916],[26.9,10999],[26.9,11083],[26.9,11166],[26.9,11249],[26.9,11333],[26.9,11416],[26.9,11499],[26.9,11583],[26.9,11666],[26.9,11749],[26.9,11831],[26.9,11916],[26.9,11999],[26.9,12081],[26.9,12166],[26.9,12249],[26.9,12333],[26.9,12415],[26.9,12499],[26.9,12581],[26.9,12665],[26.9,12749],[26.9,12831],[26.9,12916],[28.8,12999],[38.5,13081],[49,13166],[58.7,13250]]",1,0,798.527,803.894,32.96875,4.575,"[{""rating"":25.3125,""responseTime"":2.7759999999999536},{""rating"":32.96875,""responseTime"":4.574999999999932}]",space,4.837,,803.894,Partially,50,803.899,,,[],,0,10,10,10,1,audio/Narrative8Situation1.wav,audio/Narrative7Situation1.wav,audio/Narrative6Situation1.wav,audio/Narrative5Situation1.wav,5,2,2,5,,,,,,,,,,,,,,,,,,,,,,,,,,,,,,,,,,,,,,,
,,,,,,65c25cf77dca9d7ca7d9ebdb,2024-02-08_09h41.50.619,group3.1-3.2-social-tom,2023.2.2,Win32,60.0240096,65c5074098b851296ff0b7ed,65c51249c55d9e86fc51f0f0,,,,,,,,,,,,,,,,,,,,,,,,,,,,,803.9,2,audio/Narrative5Situation2.wav,806.911,,806.911,836.361,"[[36.5,583],[36.6,666],[36.6,749],[36.6,833],[36.6,916],[36.6,999],[38,1083],[51.1,1167],[62.2,1249],[62.7,1331],[63.9,1416],[71.9,1499],[91.4,2333],[87.9,2416],[84.8,2500],[82,2583],[74.1,2666],[56,2749],[43.2,2831],[39.9,2915],[39.9,3000],[38.7,3081],[32.6,3166],[20.6,3250],[7.1,3333],[7.5,3416],[28.8,3499],[39.3,3583],[27.4,3666],[4.1,3749],[16.8,3833],[38.7,3916],[28,3999],[20.9,4083],[29.8,4166],[33.9,4249],[15.4,4333],[21,4416],[34,4499],[24.3,4583],[22,4666],[33.2,4749],[25.2,4833],[23.7,4916],[35,4999],[29.3,5081],[20.4,5166],[26.3,5249],[27.1,5416],[24.3,5500],[30.1,5583],[40.4,5666],[30.4,5749],[26.1,5833],[33,5916],[34.8,6000],[25.9,6081],[28.1,6166],[36.1,6249],[31.6,6333],[28,6416],[30.4,6500],[30.3,6916],[34,7000],[30.7,7081],[23.8,7166],[25,7249],[33.1,7331],[29.1,7416],[19.5,7500],[23,7583],[30,7666],[25.1,7749],[20.9,7833],[23.8,7916],[34.2,7999],[25.8,8083],[22.3,8166],[28.6,8249],[39.6,8333],[30.7,8416],[25.4,8499],[28.2,8583],[34.8,8666],[28.2,8749],[23.9,8831],[32.3,8916],[41.8,8999],[33.4,9081],[27.8,9166],[27.7,9249],[29.9,9331],[39.6,9416],[36.6,9500],[22.9,9583],[23,9666],[34.1,9750],[34.7,9833],[24.8,9917],[24,9999],[29,10083],[31.7,10166],[23.4,10250],[22.1,10333],[29.7,10416],[31.2,10499],[22.9,10583],[23.5,10666],[32,10750],[30.4,10833],[23.9,10916],[25.5,11000],[31.6,11083],[28.5,11166],[25.2,11249],[28.2,11331],[34.8,11416],[30.4,11500],[25.2,11581],[26.3,11666],[32.1,11750],[31,11833],[25.1,11916],[25,11999],[28.2,12083],[29.1,12165],[27.1,12250],[26.6,12333],[27.7,12416],[29.5,12499],[29.3,12581],[27.3,12666],[26.9,12749],[27,12831],[32.7,12916],[35.2,12999],[30.2,13083],[27.4,13166],[28.2,13250],[34.9,13333],[32.9,13416],[29.8,13500],[29.8,13583],[30.5,13666],[30.4,13749],[29.1,13831],[29.1,13916],[32.9,14000],[35.4,14081],[28.9,14166],[26.8,14250],[30,14331],[33.4,14416],[27.6,14499],[26.2,14583],[29.5,14666],[30.4,14749],[22.8,14833],[23.7,14916],[28.8,15000],[29.1,15083],[24,15165],[23.9,15250],[28.8,15333],[30.2,15416],[26.2,15499],[25.4,15583],[28.8,15666],[33.5,15749],[22.8,15831],[20.9,15916],[27.4,15999],[33.5,16083],[33.6,16166],[29.1,16249],[25.5,16331],[27.1,16416],[33,16499],[19.4,16583],[18.9,16666],[29.5,16749],[32.4,16831],[28.7,16916],[22,16999],[25.9,17083],[34,17166],[29,17249],[24.1,17333],[29.3,17416],[32,17500],[27.9,17583],[29.1,17666],[35,17749],[30.9,17833],[27.9,17916],[31.3,17999],[39.5,18083],[31.2,18166],[29.5,18250],[33.4,18333],[34.4,18416],[25.8,18499],[25.7,18583],[30.7,18666],[34,18750],[28.7,18833],[26.7,18916],[30.4,18999],[32.6,19083],[26.9,19166],[27.7,19249],[31.6,19331],[29,19416],[25.1,19499],[30.9,19581],[31.3,19666],[25.2,19749],[27.6,19833],[32.3,19916],[26.3,20000],[24.3,20081],[29.2,20166],[28.4,20249],[25.2,20333],[28.2,20416],[32.3,20500],[28.2,20583],[26.3,20666],[28.4,20750],[29.6,20831],[28,20916],[28.8,21000],[32.8,21083],[28,21166],[25.1,21249],[27.7,21333],[31.3,21416],[27.8,21499],[27,21583],[29.8,21666],[29.6,21750],[25.9,21833],[27.3,21916],[30.1,21999],[29.3,22083],[27.7,22166],[28.1,22250],[32.4,22333],[31.3,22416],[25.6,22500],[26.6,22583],[30,22666],[30.4,22749],[30.2,22831],[33.6,22916],[36,22999],[30.9,23083],[30.7,23166],[34,23249],[35,23331],[32.1,23416],[30.5,23499],[31.8,23583],[33.2,23666],[31.1,23749],[31.2,23833],[36.3,23916],[35.9,23999],[31.4,24081],[32.7,24166],[34.8,24249],[34.2,24333],[28.5,24416],[28.9,24499],[31.8,24581],[31.3,24666],[29.9,24749],[29.9,24831],[29.9,24915],[28.5,24999],[28.5,25083],[31.3,25166],[32.3,25249],[30,25333],[26.7,25415],[27.7,25500],[29.9,25583],[28.4,25666],[26.7,25749],[28.5,25831],[30.2,25916],[28.1,26000],[27.3,26083],[28.7,26165],[28.8,26249],[27.1,26331],[27,26416],[29.8,26499],[30.8,26581],[28.2,26666],[27.9,26749],[29.6,26834],[29.9,26915],[29.8,26999],[29.5,27081],[29.5,27166],[32.5,27249],[32.5,27333],[29.1,27416],[29.1,27499],[33.4,27581],[35.2,27665],[34.6,27750],[33.7,27831],[34.4,27916],[38,27999],[38.4,28081],[35.5,28166],[35.1,28249],[36.1,28331],[39.1,28416],[38.8,28499],[37.2,29081],[33.4,29166],[33.2,29249],[33.6,29333],[34.9,29416]]",1,0,836.361,838.51,35,0.27,"[{""rating"":35,""responseTime"":0.2699999999999818}]",space,1.62,,838.51,Not at all,0,838.515,,,[],,0,11,11,11,1,audio/Narrative8Situation2.wav,audio/Narrative7Situation2.wav,audio/Narrative6Situation2.wav,audio/Narrative5Situation2.wav,3,3,3,3,,,,,,,,,,,,,,,,,,,,,,,,,,,,,,,,,,,,,,,
,,,,,,65c25cf77dca9d7ca7d9ebdb,2024-02-08_09h41.50.619,group3.1-3.2-social-tom,2023.2.2,Win32,60.0240096,65c5074098b851296ff0b7ed,65c51249c55d9e86fc51f0f0,,,,,,,,,,,,,,,,,,,,,,,,,,,,,838.515,2,audio/Narrative5Situation3.wav,841.527,,841.527,855.444,"[[999,0],[999,82],[999,165],[999,248],[999,332],[999,415],[999,498],[999,582],[999,665],[999,750],[59.8,832],[55.9,916],[53.2,1000],[48.5,1082],[45.5,1165],[40.6,1250],[38.8,1332],[38.8,1415],[37.6,1500],[33,1582],[30.1,1665],[30,1750],[29.1,1832],[28.6,1915],[28.6,1998],[28.6,2082],[28.6,2165],[28.6,2248],[28.8,2332],[28.8,2415],[29.1,2500],[30.1,2582],[30.7,2665],[31.3,2748],[32,2832],[34.1,2916],[37.5,3000],[42.7,3082],[44,3165],[44,3248],[45.1,3332],[45.3,3415],[45.3,3498],[48.6,3582],[68.4,3665],[80.5,3750],[84.6,3831],[85.1,3915],[85.1,3998],[85.1,4082],[85.1,4165],[85.1,4248],[77.9,4332],[63.8,4415],[47.7,4500],[45.3,4582],[44.3,4665],[43.8,4750],[43.8,4831],[44.3,4915],[63.2,4998],[85.7,5082],[90.9,5165],[90.9,5250],[84.6,5332],[80.7,5415],[80.7,5498],[87.9,5582],[91.7,5666],[88,5750],[79,5832],[78.9,5915],[86.2,5998],[89.8,6082],[83.4,6165],[82,6250],[89.1,6332],[91.2,6416],[87,6500],[86.5,6582],[86.8,6665],[86.9,6750],[85.9,6832],[86.2,6916],[89,7000],[89.3,7082],[82.3,7165],[81.2,7248],[82.7,7332],[87.6,7415],[87.9,7498],[86.7,7582],[86.2,7665],[85.7,7750],[85.7,7832],[88.6,7915],[89,7998],[84.2,8082],[83,8165],[84.8,8250],[88.8,8332],[88.2,8416],[86.3,8500],[86.3,8582],[86.3,8666],[86.3,8750],[86.3,8832],[85.9,8916],[84.3,9000],[83.8,9082],[86.3,9166],[88.8,9250],[86,9332],[83.1,9415],[83.5,9500],[85.2,9582],[85.2,9665],[85.2,9750],[85.2,9832],[85.2,9915],[85.2,10000],[85.2,10082],[85.2,10165],[85.2,10250],[85.2,10332],[88.7,10416],[90.4,10500],[88.9,10582],[87,10665],[87,10748],[87,10832],[87,10915],[87,11000],[87,11081],[86.3,11165],[86,11248],[85.5,11332],[85,11416],[84.2,11500],[84.2,11582],[85.3,11665],[89.3,11748],[89.3,11832],[84.5,11915],[82.4,12000],[83,12082],[85.9,12165],[85.9,12248],[85.9,12332],[85.9,12415],[86.3,12500],[86.4,12582],[86.4,12665],[86.1,12750],[84.9,12831],[84.9,12915],[86.2,13000],[86.9,13081],[86.2,13165],[84.6,13250],[83.4,13332],[82.4,13415],[82.4,13498],[82.1,13582],[82,13665],[82,13750],[82.3,13832],[82.7,13915]]",1,0,855.444,858.343,78.046875,2.01,"[{""rating"":84.921875,""responseTime"":1.254000000000019},{""rating"":78.046875,""responseTime"":2.009999999999991}]",space,2.376,,858.344,Definitely yes,100,858.346,,,[],,0,12,12,12,1,audio/Narrative8Situation3.wav,audio/Narrative7Situation3.wav,audio/Narrative6Situation3.wav,audio/Narrative5Situation3.wav,4,8,5,3,,,,,,,,,,,,,,,,,,,,,,,,,,,,,,,,,,,,,,,
,,,,,,65c25cf77dca9d7ca7d9ebdb,2024-02-08_09h41.50.619,group3.1-3.2-social-tom,2023.2.2,Win32,60.0240096,65c5074098b851296ff0b7ed,65c51249c55d9e86fc51f0f0,,,,,,,,,,,,,,,,,,,,,,,,,,,,,858.347,2,audio/Narrative5Situation4.wav,859.36,,859.36,879.76,"[[76.1,82],[76.1,167],[75.8,249],[75.8,332],[76.2,415],[77.2,500],[77.3,582],[77.3,665],[77.3,750],[77.3,832],[77.3,915],[77.3,1000],[77,1082],[73.4,1167],[65.9,1249],[50.6,1332],[39.3,1417],[37.3,1499],[31.9,1582],[31,1667],[31,1750],[31,1832],[31,1915],[30.5,2000],[28.5,2082],[28.5,2167],[33.7,2250],[39.5,2332],[40.9,2417],[47.3,2500],[48.4,2582],[48.8,2667],[49.7,2750],[50.6,2832],[50.6,2915],[50.6,3000],[52.5,3082],[62.6,3165],[71.2,3249],[74,3332],[78.8,3417],[81.8,3499],[82.1,3582],[82.1,3665],[82.1,3749],[73.4,3832],[41.3,3917],[31.3,4000],[30.1,4082],[28.6,4167],[28.8,4250],[33.5,4332],[34.5,4417],[26.7,4499],[19.5,4582],[19.5,4665],[25.1,4750],[27.4,4832],[26.6,4915],[22.4,5000],[22.3,5082],[22.3,5165],[22.3,5249],[22.3,5332],[21,5415],[20.8,5500],[20.8,5582],[20.8,5665],[20.8,5749],[20.8,5832],[20.9,5917],[22.3,5999],[25.4,6082],[25.4,6165],[22.4,6250],[22.1,6332],[22.4,6415],[24.5,6499],[25,6582],[25,6665],[25,6749],[25,6832],[25.4,6915],[25.9,7000],[26.1,7083],[26.3,7165],[26.9,7249],[26.9,7332],[27.5,7417],[28.2,7500],[28.5,7582],[28.6,7665],[28.8,7750],[29.1,7832],[29.1,7915],[29.1,8000],[29.1,8082],[29.1,8167],[29.1,8249],[29.1,8332],[29.1,8415],[22.7,8500],[21.2,8582],[21.2,8665],[25.2,8750],[29.5,8832],[31.3,8915],[31.3,9000],[31.3,9082],[31.3,9165],[31.3,9249],[31.3,9332],[31.7,9415],[47.5,9499],[70.1,9582],[75.2,9667],[79.8,9750],[84.9,9832],[85.3,9915],[85.1,10000],[77,10082],[76,10165],[79.6,10249],[86.6,10332],[86.6,10415],[81.6,10500],[79.6,10582],[80.3,10667],[83.6,10750],[84.1,10831],[84.1,10915],[84.1,11000],[84.1,11082],[84.1,11167],[84.1,11249],[83.7,11332],[77.2,11415],[76.1,11500],[82.3,11582],[85.2,11665],[82.6,11749],[78.3,11832],[80.6,11915],[84.5,12000],[84,12082],[82.3,12165],[84.8,12250],[86.3,12332],[85.9,12415],[85.2,12500],[85.2,12582],[85.2,12665],[85.2,12750],[85.2,12832],[85.2,12915],[85.2,13000],[85.2,13082],[85.2,13165],[85.2,13250],[85.2,13332],[85.2,13415],[85.2,13500],[85.2,13582],[85.2,13665],[85.2,13749],[85.2,13832],[85.2,13915],[85.2,14000],[85.2,14081],[85.2,14165],[85.2,14249],[85.2,14332],[85.2,14415],[85.2,14500],[85.2,14582],[85.2,14665],[85.2,14749],[84.9,14832],[81.3,14915],[81.3,15000],[84.1,15083],[90.5,15165],[90.5,15249],[89.7,15332],[85.5,15415],[84.9,15500],[85,15582],[90.4,15665],[92.3,15750],[92.3,15831],[87.3,15915],[85.9,15999],[86.5,16082],[91.5,16165],[91.5,16250],[82.6,16332],[82,16415],[86.5,16500],[87.1,16582],[86.1,16665],[86.2,16750],[90,16832],[86.6,16915],[82.5,17000],[84.5,17082],[87.6,17165],[87.6,17249],[87.2,17332],[88.6,17415],[89.7,17500],[84.7,17582],[82.5,17665],[87.3,17749],[90.2,17832],[87.7,17917],[86.6,18000],[88.2,18082],[88.8,18165],[88,18250],[87.6,18332],[88.8,18417],[89.8,18500],[88,18582],[88,18665],[88.5,18750],[88.5,18832],[88.5,18915],[88.5,19000],[88.5,19082],[88.5,19165],[88.5,19250],[88.5,19332],[88.5,19415],[88.5,19499],[88.5,19582],[87.7,19665],[84.7,19750],[84.3,19832],[84.3,19915],[84.8,20000],[85.7,20082],[86.3,20165],[86.8,20249],[87.3,20332]]",1,0,879.76,881.043,87.34375,0.07,"[{""rating"":87.34375,""responseTime"":0.07000000000005002}]",space,0.734,,881.043,Not at all,0,881.048,,,[],,0,13,13,13,1,audio/Narrative8Situation4.wav,audio/Narrative7Situation4.wav,audio/Narrative6Situation4.wav,audio/Narrative5Situation4.wav,3,3,2,1,,,,,,,,,,,,,,,,,,,,,,,,,,,,,,,,,,,,,,,
,,,,,,65c25cf77dca9d7ca7d9ebdb,2024-02-08_09h41.50.619,group3.1-3.2-social-tom,2023.2.2,Win32,60.0240096,65c5074098b851296ff0b7ed,65c51249c55d9e86fc51f0f0,,,,,,,,,,,,,,,,,,,,,,,,,,,,,881.048,2,audio/Narrative5Situation5.wav,886.059,,886.059,901.476,"[[999,0],[999,84],[999,167],[999,250],[999,334],[999,417],[999,500],[999,584],[999,667],[999,750],[999,832],[999,917],[999,1000],[37,1084],[30.5,1167],[29.8,1250],[29.8,1334],[29.8,1417],[27,1500],[24.5,1584],[22.6,1668],[22.6,1750],[24,1834],[34.4,1917],[36,2000],[34.8,2082],[32.1,2167],[33.4,2250],[42,2334],[59.3,2417],[62,2500],[62,2582],[60.3,2667],[42.1,2750],[36.2,2834],[34.3,2917],[33.2,3000],[33.2,3082],[39.8,3167],[44.9,3250],[37.1,3332],[25.6,3417],[25.6,3500],[31.5,3582],[32,3667],[29.3,3750],[27.6,3834],[28.8,3917],[32,4000],[32,4084],[32,4167],[32,4250],[34.5,4334],[39.1,4417],[39.1,4500],[36,4584],[30.9,4667],[29.8,4750],[31.5,4834],[38.7,4917],[36.6,5000],[26.5,5084],[26.2,5167],[28.2,5250],[25.1,5334],[20.1,5417],[21,5500],[26.3,5582],[22.7,5667],[19.5,5750],[22.4,5832],[26.2,5916],[24.5,6000],[23.6,6084],[23.5,6167],[23.5,6250],[24.5,6667],[23,6750],[23,6832],[22.7,6917],[19.9,7000],[19.6,7084],[22,7168],[24.1,7250],[22,7334],[21.5,7417],[22.4,7500],[26.2,7584],[24.5,7667],[23.1,7750],[23.7,7834],[25.2,7917],[24.3,8000],[22.8,8082],[22.9,8167],[27.9,8250],[29,8332],[22.5,8418],[21.2,8500],[23.3,8582],[24.8,8667],[24.3,8750],[24.2,8832],[24.6,8917],[24.6,9000],[24.6,9082],[24.6,9167],[24.6,9250],[24.6,9334],[26.8,9417],[31.8,9500],[31.6,9584],[23.5,9668],[22.7,9750],[26.3,9834],[26.8,9917],[24.9,10000],[25,10084],[25.6,10167],[24.8,10250],[24.3,10332],[26.3,10417],[28.6,10500],[27.7,10584],[26.9,10666],[26.9,10750],[26.9,10832],[26.2,10917],[26,11000],[26,11084],[27.1,11167],[28.7,11250],[27.3,11334],[21.2,11417],[23.7,11500],[29.5,11582],[27.6,11667],[25.5,11750],[26.7,11834],[29.1,11917],[29.1,12000],[29.3,12084],[30.1,12167],[30.2,12250],[30.2,12334],[30.2,12417],[30.2,12500],[30.2,12584],[30.2,12667],[30.2,12750],[30.2,12832],[30.2,12917],[30.2,13000],[30.2,13084],[30.4,13167],[30.6,13250],[29,13332],[24.9,13416],[25.1,13500],[29.8,13582],[34.1,13666],[34.3,13750],[34.3,13832],[34.3,13917],[34.3,14000],[34.3,14082],[34.3,14167],[34.3,14250],[34.4,14332],[34.5,14417],[34.5,14500],[34.5,14584],[34.7,14667],[34.8,14750],[34.8,14834],[34.8,14917],[34.3,15000],[30.9,15084],[29.4,15167],[29.4,15250],[28.4,15334],[28,15417]]",1,0,901.477,903.543,25.078125,0.922,"[{""rating"":25.078125,""responseTime"":0.9220000000000255}]",space,1.529,,903.543,Not at all,0,903.545,,,[],,0,14,14,14,1,audio/Narrative8Situation5.wav,audio/Narrative7Situation5.wav,audio/Narrative6Situation5.wav,audio/Narrative5Situation5.wav,2,5,2,5,,,,,,,,,,,,,,,,,,,,,,,,,,,,,,,,,,,,,,,
