exp_question,consent.started,consent.stopped,consentResponse.keys,consentResponse.rt,consentResponse.duration,participantID,date,expName,psychopyVersion,OS,frameRate,STUDY_ID,SESSION_ID,opening1.started,opening1.stopped,keyEndingOpening1.keys,keyEndingOpening1.rt,keyEndingOpening1.duration,volumeAdjust.started,volumeAdjust.stopped,endingAdjust.keys,endingAdjust.rt,endingAdjust.duration,opening2.started,opening2.stopped,keyEndingOpening.keys,keyEndingOpening.rt,keyEndingOpening.duration,mouse.x,mouse.y,mouse.leftButton,mouse.midButton,mouse.rightButton,mouse.time,instructionLoop.thisRepN,instructionLoop.thisTrialN,instructionLoop.thisN,instructionLoop.thisIndex,instructionLoop.ran,readyForAudio.started,readyForAudio.stopped,fixation.started,run,audio_played,fixation.stopped,endPractice.keys,audioPre.started,audioPre.stopped,continuousResponses_audio,continuousSlider.response,continuousSlider.rt,intRating.started,intRating.stopped,intQuestionSlider.response,intQuestionSlider.rt,intQuestionSlider.history,confirmResponse.keys,confirmResponse.rt,confirmResponse.duration,catchQuestion.started,catch_label,catch_value,catchQuestion.stopped,catchQuestionSlider.response,catchQuestionSlider.rt,catchQuestionSlider.history,confirmResponse_2.keys,audioRunLoop.thisRepN,audioRunLoop.thisTrialN,audioRunLoop.thisN,audioRunLoop.thisIndex,audioRunLoop.ran,conditions1_1,conditions2_1,conditions1_2,conditions2_2,dur1_1,dur2_1,dur1_2,dur2_2,endPractice.rt,endPractice.duration,confirmResponse_2.rt,confirmResponse_2.duration,runIntervalBreak.started,runIntervalBreak.stopped,endingBreakKey.keys,endingBreakKey.rt,endingBreakKey.duration,connection.started,connection.stopped,connectionEnding.keys,connectionEnding.rt,connectionEnding.duration,readyForText.started,readyForText.stopped,textPre.started,run_dup,textPre.stopped,continuousResponses_text,textRunLoop.thisRepN,textRunLoop.thisTrialN,textRunLoop.thisN,textRunLoop.thisIndex,textRunLoop.ran,text1_1,text1_2,text2_1,text2_2,runBreakText.started,runBreakText.stopped,endingBreakKey_2.keys,endingBreakKey_2.rt,endingBreakKey_2.duration,ending.started,ending.stopped,endingEnding.keys,endingEnding.rt,endingEnding.duration
social,0.0004,9.4168,y,9.0937,,65c23bf7904812607642bad6,2024-05-13_10h33.19.781,group3.1-3.2-social-tom,2023.2.2,Win32,60.24096386,65c5074098b851296ff0b7ed,6642329cd3daf0304e371b9e,,,,,,,,,,,,,,,,,,,,,,,,,,,,,,,,,,,,,,,,,,,,,,,,,,,,,,,,,,,,,,,,,,,,,,,,,,,,,,,,,,,,,,,,,,,,,,,,,,,,,,,,,,
,,,,,,65c23bf7904812607642bad6,2024-05-13_10h33.19.781,group3.1-3.2-social-tom,2023.2.2,Win32,60.24096386,65c5074098b851296ff0b7ed,6642329cd3daf0304e371b9e,9.4171,23.2611,space,13.8127,,,,,,,,,,,,,,,,,,,,,,,,,,,,,,,,,,,,,,,,,,,,,,,,,,,,,,,,,,,,,,,,,,,,,,,,,,,,,,,,,,,,,,,,,,,,,,,,,,,,,,
,,,,,,65c23bf7904812607642bad6,2024-05-13_10h33.19.781,group3.1-3.2-social-tom,2023.2.2,Win32,60.24096386,65c5074098b851296ff0b7ed,6642329cd3daf0304e371b9e,,,,,,23.2612,29.9083,space,6.3209,,,,,,,,,,,,,,,,,,,,,,,,,,,,,,,,,,,,,,,,,,,,,,,,,,,,,,,,,,,,,,,,,,,,,,,,,,,,,,,,,,,,,,,,,,,,,,,,,
,,,,,,65c23bf7904812607642bad6,2024-05-13_10h33.19.781,group3.1-3.2-social-tom,2023.2.2,Win32,60.24096386,65c5074098b851296ff0b7ed,6642329cd3daf0304e371b9e,,,,,,,,,,,29.9141,44.6025,space,14.6594,,[],[],[],[],[],[],0,0,0,0,1,,,,,,,,,,,,,,,,,,,,,,,,,,,,,,,,,,,,,,,,,,,,,,,,,,,,,,,,,,,,,,,,,,,,,,,,,,,,,,,,
,,,,,,65c23bf7904812607642bad6,2024-05-13_10h33.19.781,group3.1-3.2-social-tom,2023.2.2,Win32,60.24096386,65c5074098b851296ff0b7ed,6642329cd3daf0304e371b9e,,,,,,,,,,,44.6138,86.0673,space,41.2846,,[],[],[],[],[],[],1,0,1,0,1,,,,,,,,,,,,,,,,,,,,,,,,,,,,,,,,,,,,,,,,,,,,,,,,,,,,,,,,,,,,,,,,,,,,,,,,,,,,,,,,
,,,,,,65c23bf7904812607642bad6,2024-05-13_10h33.19.781,group3.1-3.2-social-tom,2023.2.2,Win32,60.24096386,65c5074098b851296ff0b7ed,6642329cd3daf0304e371b9e,,,,,,,,,,,86.0797,102.477,space,16.3348,,[],[],[],[],[],[],2,0,2,0,1,,,,,,,,,,,,,,,,,,,,,,,,,,,,,,,,,,,,,,,,,,,,,,,,,,,,,,,,,,,,,,,,,,,,,,,,,,,,,,,,
,,,,,,65c23bf7904812607642bad6,2024-05-13_10h33.19.781,group3.1-3.2-social-tom,2023.2.2,Win32,60.24096386,65c5074098b851296ff0b7ed,6642329cd3daf0304e371b9e,,,,,,,,,,,102.4896,135.08,space,32.5614,,[],[],[],[],[],[],3,0,3,0,1,,,,,,,,,,,,,,,,,,,,,,,,,,,,,,,,,,,,,,,,,,,,,,,,,,,,,,,,,,,,,,,,,,,,,,,,,,,,,,,,
,,,,,,65c23bf7904812607642bad6,2024-05-13_10h33.19.781,group3.1-3.2-social-tom,2023.2.2,Win32,60.24096386,65c5074098b851296ff0b7ed,6642329cd3daf0304e371b9e,,,,,,,,,,,135.0922,157.8365,space,22.7196,,[],[],[],[],[],[],4,0,4,0,1,,,,,,,,,,,,,,,,,,,,,,,,,,,,,,,,,,,,,,,,,,,,,,,,,,,,,,,,,,,,,,,,,,,,,,,,,,,,,,,,
,,,,,,65c23bf7904812607642bad6,2024-05-13_10h33.19.781,group3.1-3.2-social-tom,2023.2.2,Win32,60.24096386,65c5074098b851296ff0b7ed,6642329cd3daf0304e371b9e,,,,,,,,,,,,,,,,,,,,,,,,,,,157.8506,160.4191,160.4416,1,audio/Narrative13Situation2.wav,162.4512,,162.4514,192.1897,"[[999,0],[999,116],[999,199],[999,282],[999,366],[999,449],[999,533],[999,616],[999,699],[999,783],[49.8,866],[50.1,949],[51.1,1032],[51.3,1115],[51.3,1199],[51.3,1282],[51.3,1365],[51.3,1449],[51.3,1532],[51.3,1615],[51.3,1699],[51.3,1782],[51.3,1866],[51.3,1949],[51.3,2032],[51.3,2115],[51.3,2198],[51.3,2282],[51.3,2365],[51.3,2448],[51.3,2532],[51.3,2615],[51.3,2698],[51.3,2781],[51.3,2865],[51.3,2948],[51.3,3031],[51.3,3114],[51.3,3198],[51.3,3281],[51.3,3364],[52.1,3448],[53.3,3531],[55.1,3615],[56.6,3698],[58.6,3781],[60.8,3865],[63,3948],[64.7,4031],[66.6,4114],[67.3,4198],[68.4,4281],[69.6,4364],[70.4,4448],[71.8,4531],[75,4614],[77.4,4697],[79.3,4781],[82.4,4864],[85.1,4947],[88,5030],[89.9,5114],[91.5,5197],[93.6,5280],[94.7,5364],[95.3,5447],[96.5,5530],[97.8,5614],[98.3,5697],[98.3,5780],[98.3,5863],[98.3,5947],[99,6030],[99.8,6114],[99.9,6196],[99.9,6280],[99.9,6363],[99.9,6446],[99.9,6530],[99.9,6613],[99.9,6696],[99.9,6780],[99.9,6863],[99.9,6946],[99.9,7030],[99.9,7113],[99.9,7196],[99.9,7279],[98.9,7363],[93.6,7446],[87.7,7530],[81.6,7613],[78.2,8279],[96,8696],[97.9,8779],[100,8862],[100,8945],[100,9029],[100,9112],[100,9195],[100,9278],[100,9362],[100,9445],[100,9528],[100,9612],[100,9695],[100,9778],[100,9861],[100,9945],[100,10028],[100,10111],[100,10195],[100,10278],[100,10361],[100,10445],[100,10528],[100,10611],[100,10695],[100,10778],[100,10861],[100,10944],[100,11028],[100,11111],[100,11194],[100,11278],[100,11361],[100,11444],[100,11528],[100,11611],[100,11694],[100,11777],[100,11861],[100,11944],[100,12027],[100,12111],[100,12194],[100,12277],[100,12360],[100,12444],[100,12527],[100,12610],[100,12694],[100,12777],[100,12860],[100,12944],[99.5,13032],[98.5,13110],[97.9,13194],[97.3,13277],[97,13360],[97,13443],[97,13527],[97,13610],[95.9,13693],[95.4,13777],[95.3,13860],[95.2,13943],[94.6,14027],[94.2,14110],[93.8,14193],[92.8,14277],[91.4,14360],[89.4,14443],[87.6,14526],[86.7,14610],[83.4,14693],[82.3,14776],[81.8,14860],[75.8,15443],[70.6,15526],[66.9,15609],[60.5,15693],[57.5,15776],[55.5,15859],[54.1,15943],[52.7,16026],[50.9,16109],[50.3,16192],[50.2,16276],[50.2,16359],[50.2,16442],[50.2,16525],[50.2,16609],[49.7,16692],[49.7,16775],[49.7,16859],[46.1,16942],[43.2,17026],[35.4,17109],[32.7,17192],[27,17275],[21.8,17359],[10.1,17442],[7.8,17525],[4.1,17608],[4.1,17691],[4.1,17775],[4.1,17858],[4.1,17941],[4.1,18025],[4.1,18108],[3.1,21440],[2,21524],[1.4,21607],[1.4,21690],[6.4,21774],[7.4,21857],[11.6,21940],[14.5,22023],[17.7,22107],[22.2,22190],[27.4,22273],[39.6,22357],[46.1,22440],[47.2,22523],[49.5,22606],[55,22690],[57,22774],[62.4,22856],[68.2,22940],[74,23023],[76.6,23106],[78.2,23189],[74.4,23273],[70.4,23356],[70.4,23439],[70.7,23523],[71.5,23606],[71.5,23689],[68.8,23773],[66.8,23855],[67.2,23939],[68.3,24022],[68.3,24106],[49.3,24189],[47.2,24272],[45,24356],[45,24439],[45.6,24522],[48.1,24605],[48.4,24689],[51.6,24772],[53.1,24855],[58.8,24939],[70.7,25022],[73.1,25105],[77.2,25189],[83.3,25272],[84.7,25355],[86.6,25438],[90.9,25522],[93.1,25605],[95.8,25688],[96.5,25772],[97.1,25855],[76.7,26438],[77.4,26521],[82.6,26688],[90.3,26771],[100,26855],[100,26938],[71.8,27021],[48.6,27521],[45.5,27604],[38,27688],[32.2,27771],[30,27854],[17.9,27937],[1.9,28271],[2.9,28687],[3.8,28770],[4.1,28854],[5.1,28937],[5.1,29020],[7.1,29104],[8.3,29187],[9.6,29270],[9.6,29353],[10,29436],[10.2,29520],[10.2,29603],[10.2,29686]]",1,0,192.1901,198.7364,89.0625,3.5553,"[{""rating"":89.0625,""responseTime"":3.5552999999522967}]",space,5.9996,,198.7479,Definitely yes,100,198.752,,,[],,0,0,0,0,1,audio/Narrative13Situation2.wav,audio/Narrative13Situation2.wav,audio/Narrative13Situation2.wav,audio/Narrative13Situation2.wav,2,2,2,2,,,,,,,,,,,,,,,,,,,,,,,,,,,,,,,,,,,,,,,
,,,,,,65c23bf7904812607642bad6,2024-05-13_10h33.19.781,group3.1-3.2-social-tom,2023.2.2,Win32,60.24096386,65c5074098b851296ff0b7ed,6642329cd3daf0304e371b9e,,,,,,,,,,,,,,,,,,,,,,,,,,,,,198.7524,1,audio/Narrative7Situation1.wav,201.9677,space,201.9678,257.8605,"[[999,12],[999,82],[999,166],[999,249],[999,332],[999,416],[999,499],[999,582],[999,666],[999,749],[999,832],[999,916],[999,999],[999,1083],[999,1166],[999,1249],[999,1332],[89.1,1416],[75.6,2082],[75.4,2165],[75.4,2249],[75.4,2332],[75.8,2415],[63.2,2499],[54.4,2582],[54.3,2665],[54.3,2748],[54.3,2831],[50.6,2915],[50.3,2998],[49.8,3081],[49.8,3165],[49.8,3248],[49.8,3331],[51.6,3415],[54.7,3498],[54.7,3581],[54.9,3665],[64,3748],[69.1,3831],[73.2,3914],[73.8,3997],[77.1,4081],[78.5,4164],[78.5,4247],[74.9,4331],[53.4,4414],[30.3,4498],[29.2,4581],[29.1,4664],[28,4747],[28,4830],[34.1,4914],[19.9,4997],[15.1,5080],[15.1,5164],[15.1,5247],[15.1,5330],[15.1,5414],[15.7,5497],[17.8,5580],[17.8,5664],[17.8,5747],[18.1,5830],[18.1,5913],[18.1,5997],[18.1,6080],[18.1,6163],[18.1,6247],[18.1,6330],[25.5,6413],[26,6496],[31.7,6580],[34.9,6663],[34.9,6746],[34.9,6830],[35.1,6913],[34.9,6997],[27.5,7080],[10.9,7163],[1.9,7246],[2.3,7746],[11.5,7829],[32.1,7913],[32.4,7996],[32.4,8079],[43.5,8163],[44,8246],[44,8329],[44,8412],[44.7,8496],[46.5,8579],[48.9,8662],[49.8,8746],[50.3,8829],[50.4,8912],[50.4,8995],[50.4,9079],[50.4,9162],[50.4,9245],[50.9,9329],[51.3,9412],[51.3,9496],[51.8,9579],[51.9,9662],[51.9,9745],[51.9,9829],[51.3,9912],[51.4,9995],[51.4,10078],[51.4,10162],[51.4,10245],[51.4,10328],[51.4,10412],[51.4,10495],[51.4,10578],[51.5,10662],[50.9,10745],[50,10828],[49.4,10911],[49.4,10995],[49.4,11078],[49.4,11161],[51,11245],[55.1,11328],[55.8,11411],[56.7,11495],[59.2,11578],[62.1,11661],[65.8,11745],[69.6,11828],[78.5,11911],[85.1,11995],[89.1,12078],[91.9,12161],[93,12245],[94.7,12328],[98.5,12411],[99.5,12494],[99.5,12577],[100,12661],[100,12744],[100,12827],[100,12911],[100,12994],[100,13077],[100,13160],[100,13244],[100,13327],[100,13410],[100,13494],[100,13577],[100,13660],[100,13743],[100,13827],[100,13910],[100,13994],[99.9,14077],[99.3,14160],[99.3,14243],[99.3,14326],[99.3,14410],[99.3,14493],[99.3,14576],[99.3,14660],[99.3,14743],[99.3,14826],[99.3,14909],[99.3,14993],[99.3,15076],[99.3,15159],[99.3,15243],[99.3,15326],[99.3,15409],[99.3,15493],[99.3,15576],[99.3,15659],[99.3,15742],[99.3,15826],[99.3,15909],[99.3,15992],[99.3,16076],[99.3,16159],[99.3,16242],[99.3,16326],[99.3,16409],[96,16492],[95.5,16576],[94.8,16659],[93.6,16742],[92.5,16826],[89.1,16909],[81.5,16992],[75.3,17076],[71.7,17159],[65.5,17242],[47.2,18158],[48.2,18242],[50.1,18325],[50.1,18408],[51.1,18491],[51.1,18575],[51.1,18658],[58.5,18741],[70.7,18825],[70.8,18908],[71.4,18991],[68.5,19075],[59.6,19158],[55.1,19241],[54.1,19325],[51.6,19408],[50.9,19491],[50.6,19574],[50.6,19657],[50.4,19741],[50.4,19824],[50.4,19907],[50.4,19991],[50.4,20074],[50.4,20157],[50.4,20240],[50.4,20324],[50.4,20407],[50.4,20490],[50.3,20574],[50.3,20657],[50.3,20740],[50.3,20824],[50.3,20907],[50.3,20990],[50.3,21073],[50.3,21157],[50.3,21240],[49.8,21323],[49.8,21407],[49.8,21490],[50,21573],[50,21657],[50,21740],[50.1,21823],[50.1,21907],[50.1,21990],[50.1,22073],[50.1,22156],[50.1,22240],[50.1,22323],[50.1,22406],[50.1,22490],[50.1,22573],[51.6,22656],[51.8,22740],[50.2,22823],[40.5,22906],[32.5,22990],[31.1,23073],[31.1,23156],[30.9,23239],[30.9,23323],[31.6,23406],[35.4,23490],[37.7,23573],[42.3,23656],[47.8,23739],[50.3,23823],[52.5,23906],[52.5,23989],[52.5,24072],[52.5,24156],[49.2,24239],[47.8,24322],[47.8,24405],[47.8,24489],[47.8,24572],[47.8,24655],[47.8,24739],[47.8,24822],[47.8,24905],[47.8,24989],[47.8,25072],[47.8,25155],[47.8,25239],[47.8,25322],[47.8,25405],[47.8,25488],[47.8,25572],[47.8,25655],[47.8,25738],[47.8,25822],[47.8,25905],[48,25988],[52.5,26072],[59.3,26155],[62.8,26238],[64.7,26322],[70.5,26405],[73.1,26488],[74.3,26571],[74.8,26654],[76.6,26738],[77.4,26821],[78.5,26905],[79.2,26988],[80.8,27071],[80.9,27154],[80.4,27238],[69.7,27321],[52.6,27405],[45.3,27488],[44.2,27571],[44.2,27654],[45.5,27738],[47.9,27821],[49,27904],[51.4,27988],[51.4,28071],[51.4,28154],[51.4,28237],[51.4,28320],[49.9,28404],[49.1,28487],[49.1,28570],[49.1,28654],[49.3,28737],[49.3,28820],[49.3,28903],[49.3,28987],[49.3,29070],[49.3,29153],[49.3,29237],[49.3,29320],[49.3,29403],[49.3,29487],[49.3,29570],[49.3,29653],[49.3,29736],[49.3,29820],[49.3,29903],[49.3,29986],[49.3,30070],[49.3,30153],[49.3,30236],[49.3,30320],[49.3,30403],[49.3,30486],[49.3,30569],[49.3,30653],[49.3,30736],[49.3,30820],[49.3,30903],[49.3,30986],[49.4,31069],[48.6,31153],[39.8,31236],[39.8,31319],[39.8,31402],[39.8,31486],[39.8,31569],[39.8,31652],[39,31736],[37.4,31819],[41.6,31903],[49.5,31986],[62,32069],[62.3,32152],[60.5,32236],[56.7,32319],[56.4,32402],[55.8,32485],[54.7,32569],[53.4,32652],[53.1,32735],[95.3,33069],[100,33152],[100,33235],[100,33318],[100,33402],[100,33485],[100,33568],[100,33652],[100,33735],[100,33818],[100,33901],[100,33985],[100,34068],[100,34151],[100,34234],[100,34318],[100,34401],[100,34484],[100,34568],[100,34651],[100,34734],[100,34818],[100,34901],[100,34984],[100,35068],[100,35151],[100,35234],[100,35318],[100,35401],[100,35484],[100,35567],[100,35651],[100,35734],[100,35817],[99.8,35901],[98.6,35984],[98.4,36067],[98.4,36150],[98.4,36234],[98.4,36319],[98.4,36400],[98.4,36484],[98.4,36567],[98.4,36650],[98.4,36734],[99.6,36817],[100,36900],[100,36984],[100,37067],[100,37150],[100,37233],[100,37317],[100,37400],[100,37483],[100,37566],[100,37650],[100,37733],[100,37816],[100,37900],[100,37983],[100,38066],[100,38150],[100,38233],[100,38316],[100,38400],[100,38483],[100,38566],[100,38649],[100,38733],[100,38816],[100,38900],[100,38983],[100,39066],[100,39149],[100,39232],[100,39316],[100,39399],[100,39482],[100,39566],[100,39649],[100,39732],[100,39816],[100,39899],[100,39982],[100,40066],[100,40149],[100,40232],[100,40315],[100,40399],[100,40482],[100,40565],[100,40648],[100,40732],[100,40815],[100,40898],[100,40982],[100,41065],[100,41148],[100,41232],[100,41315],[100,41398],[100,41482],[100,41565],[100,41648],[100,41732],[100,41815],[100,41898],[100,41981],[100,42065],[100,42148],[100,42231],[100,42314],[100,42398],[100,42481],[100,42564],[100,42648],[100,42731],[100,42814],[100,42897],[100,42981],[100,43064],[100,43147],[100,43231],[100,43314],[100,43397],[100,43481],[100,43564],[100,43647],[100,43731],[100,43814],[100,43897],[100,43980],[100,44064],[100,44147],[100,44230],[100,44314],[100,44397],[100,44480],[100,44564],[100,44647],[100,44730],[100,44814],[100,44897],[100,44980],[100,45063],[100,45147],[100,45230],[100,45313],[100,45397],[100,45480],[100,45563],[100,45646],[100,45730],[100,45813],[100,45896],[100,45980],[100,46063],[100,46146],[100,46230],[100,46313],[100,46396],[100,46479],[100,46563],[100,46646],[100,46729],[100,46813],[100,46896],[100,46979],[100,47062],[100,47146],[100,47229],[100,47312],[100,47396],[100,47479],[100,47562],[100,47646],[100,47729],[100,47812],[100,47895],[100,47979],[100,48062],[100,48145],[100,48229],[100,48312],[100,48395],[100,48479],[100,48562],[100,48645],[100,48729],[100,48812],[100,48895],[100,48978],[100,49062],[100,49145],[100,49228],[100,49311],[100,49395],[100,49478],[100,49561],[100,49645],[100,49728],[100,49811],[100,49895],[100,49978],[100,50061],[100,50144],[100,50228],[100,50311],[100,50394],[100,50478],[100,50561],[100,50644],[100,50727],[100,50811],[100,50894],[100,50977],[100,51061],[100,51144],[100,51227],[100,51311],[100,51394],[100,51477],[100,51561],[100,51644],[100,51727],[100,51810],[100,51894],[100,51977],[100,52060],[100,52144],[100,52227],[100,52310],[100,52394],[100,52477],[100,52560],[100,52643],[100,52727],[100,52810],[100,52893],[100,52977],[100,53060],[100,53143],[100,53227],[100,53310],[100,53393],[100,53476],[100,53560],[100,53643],[100,53726],[100,53809],[100,53893],[100,53976],[100,54060],[100,54143],[100,54226],[100,54309],[100,54393],[100,54476],[100,54559],[100,54643],[100,54726],[100,54809],[100,54892],[100,54976],[100,55059],[100,55142],[100,55226],[100,55309],[100,55392],[100,55475],[100,55559],[100,55642],[100,55725],[100,55809],[100,55892]]",1,0,257.8607,270.6049,100,4.0626,"[{""rating"":96.66666666666667,""responseTime"":3.294700000047669},{""rating"":100,""responseTime"":4.06260000014305}]",space,12.1954,,270.605,Not at all,0,270.6206,,,[],,0,1,1,1,1,audio/Narrative7Situation1.wav,audio/Narrative8Situation1.wav,audio/Narrative5Situation1.wav,audio/Narrative6Situation1.wav,2,5,5,2,3.1866,,,,,,,,,,,,,,,,,,,,,,,,,,,,,,,,,,,,,,
,,,,,,65c23bf7904812607642bad6,2024-05-13_10h33.19.781,group3.1-3.2-social-tom,2023.2.2,Win32,60.24096386,65c5074098b851296ff0b7ed,6642329cd3daf0304e371b9e,,,,,,,,,,,,,,,,,,,,,,,,,,,,,270.6208,1,audio/Narrative7Situation2.wav,273.6371,,273.6371,281.1172,"[[999,0],[999,83],[999,166],[999,249],[999,333],[999,416],[999,499],[999,582],[999,666],[999,749],[999,832],[999,916],[999,999],[999,1083],[999,1166],[999,1249],[45.5,1332],[44,1416],[52.2,1582],[52.9,1665],[53.1,1749],[53.1,1832],[53.1,1915],[52,1999],[51.9,2082],[51.9,2165],[52,2249],[57.2,2332],[76.3,2415],[95.6,2915],[96.7,2998],[96.7,3081],[97.6,3165],[97.9,3248],[97.9,3331],[97.9,3415],[98.1,3498],[98.3,3581],[99.3,3665],[100,3748],[100,3831],[100,3914],[100,3998],[100,4081],[100,4164],[100,4247],[100,4331],[100,4414],[100,4497],[100,4581],[100,4664],[100,4747],[100,4831],[100,4914],[100,4997],[100,5081],[100,5164],[100,5247],[100,5330],[100,5414],[100,5497],[100,5580],[100,5664],[100,5747],[100,5830],[100,5913],[100,5997],[100,6080],[100,6163],[100,6247],[100,6330],[100,6414],[100,6497],[100,6580],[100,6663],[100,6746],[100,6830],[100,6913],[100,6996],[100,7080],[100,7163],[100,7246],[100,7329],[100,7413]]",1,0,281.1174,285.5819,98.02083333,2.6476,"[{""rating"":98.02083333333333,""responseTime"":2.647599999904628}]",space,3.9154,,285.582,Not at all,0,285.5843,,,[],,0,2,2,2,1,audio/Narrative7Situation2.wav,audio/Narrative8Situation2.wav,audio/Narrative5Situation2.wav,audio/Narrative6Situation2.wav,3,3,3,3,,,,,,,,,,,,,,,,,,,,,,,,,,,,,,,,,,,,,,,
,,,,,,65c23bf7904812607642bad6,2024-05-13_10h33.19.781,group3.1-3.2-social-tom,2023.2.2,Win32,60.24096386,65c5074098b851296ff0b7ed,6642329cd3daf0304e371b9e,,,,,,,,,,,,,,,,,,,,,,,,,,,,,285.5845,1,audio/Narrative7Situation3.wav,293.5952,,293.5952,302.8583,"[[999,12],[999,83],[999,166],[999,249],[66.1,333],[66,416],[65,500],[65,583],[65,666],[65,750],[76.4,833],[86.3,1583],[84.1,1666],[58.5,1749],[44,1832],[25.5,2082],[31.6,2165],[8.5,2249],[5.3,5664],[24.8,5830],[39.4,5914],[63.3,6497],[60.7,6580],[60.3,6663],[62.7,6747],[84,6830],[94.4,7330],[95,7413],[95,7497],[92.5,7580],[92.5,7663],[92.5,7746],[92.5,7830],[92.5,7913],[92.5,7996],[92.5,8079],[92.5,8163],[92.5,8246],[92.5,8329],[92.5,8412],[92.5,8496],[91.6,8579],[90.9,8663],[90.8,8746],[90.7,8829],[90.7,8912],[90.6,8995],[90.6,9079],[90.6,9163],[91.1,9246]]",1,0,302.8584,304.624,57.39583333,1.7609,"[{""rating"":57.395833333333336,""responseTime"":1.7608999998569743}]",space,0.1533,,304.6241,Not at all,0,304.6265,,,[],,0,3,3,3,1,audio/Narrative7Situation3.wav,audio/Narrative8Situation3.wav,audio/Narrative5Situation3.wav,audio/Narrative6Situation3.wav,8,4,3,5,,,,,,,,,,,,,,,,,,,,,,,,,,,,,,,,,,,,,,,
,,,,,,65c23bf7904812607642bad6,2024-05-13_10h33.19.781,group3.1-3.2-social-tom,2023.2.2,Win32,60.24096386,65c5074098b851296ff0b7ed,6642329cd3daf0304e371b9e,,,,,,,,,,,,,,,,,,,,,,,,,,,,,304.6269,1,audio/Narrative7Situation4.wav,307.6392,,307.6393,319.3675,"[[999,0],[999,83],[999,166],[999,249],[999,332],[999,416],[999,499],[999,582],[999,666],[999,749],[999,833],[999,916],[999,999],[999,1082],[999,1165],[999,1249],[999,1332],[999,1415],[999,1499],[999,1582],[999,1665],[999,1748],[999,1832],[999,1915],[999,1998],[999,2082],[999,2165],[999,2248],[999,2332],[999,2415],[999,2498],[999,2581],[999,2665],[999,2748],[999,2831],[999,2915],[999,2998],[999,3081],[999,3165],[999,3248],[999,3331],[999,3414],[999,3498],[999,3581],[999,3665],[64.4,3748],[88.6,3998],[96.5,4081],[96.6,4164],[98.2,4248],[85.5,4414],[73.2,4498],[66.3,4581],[67.5,4664],[56.1,4748],[52.1,4831],[49.3,4914],[45.1,4998],[41.5,5081],[14.3,5164],[7.2,5247],[7.2,5330],[7.2,5414],[7.4,5497],[2.3,5581],[1.7,5663],[1.7,5747],[1.7,5830],[1.7,5914],[1.7,5997],[1.7,6080],[1.7,6163],[1.7,6247],[1.7,6330],[1.7,6413],[1.7,6497],[17.2,6663],[17.2,6746],[17.2,6830],[17.2,6913],[19.9,6997],[25.2,7080],[25.7,7164],[25.9,7246],[26.9,7330],[33.6,7413],[35.4,7496],[35.4,7579],[35.6,7663],[37.1,7746],[32.6,8413],[31.8,8496],[31.3,8579],[29.5,8663],[28.4,8746],[28.3,8829],[27.9,8912],[28.4,8996],[32.8,9079],[37,9162],[37,9245],[37,9329],[37,9412],[37,9495],[37,9579],[37,9662],[37,9745],[37,9828],[37,9912],[37,9995],[37,10078],[37,10162],[37,10245],[37,10328],[37.3,10412],[39.1,10495],[41.1,10578],[44.6,10662],[44.9,10745],[44.9,10828],[44.9,10911],[44.9,10995],[44.9,11078],[44.8,11162],[43.8,11245],[43.6,11328],[43.6,11411],[43.6,11495],[43.6,11578],[43.3,11661]]",1,0,319.3677,321.7998,19.16666667,1.8768,"[{""rating"":19.166666666666664,""responseTime"":1.8768000001907126}]",space,1.8894,,321.7999,Partially,50,321.8032,,,[],,0,4,4,4,1,audio/Narrative7Situation4.wav,audio/Narrative8Situation4.wav,audio/Narrative5Situation4.wav,audio/Narrative6Situation4.wav,3,3,1,2,,,,,,,,,,,,,,,,,,,,,,,,,,,,,,,,,,,,,,,
,,,,,,65c23bf7904812607642bad6,2024-05-13_10h33.19.781,group3.1-3.2-social-tom,2023.2.2,Win32,60.24096386,65c5074098b851296ff0b7ed,6642329cd3daf0304e371b9e,,,,,,,,,,,,,,,,,,,,,,,,,,,,,321.8035,1,audio/Narrative7Situation5.wav,326.8144,,326.8144,335.3112,"[[999,11],[999,83],[999,166],[999,249],[999,333],[999,416],[999,499],[999,583],[999,666],[999,750],[999,833],[999,916],[999,999],[999,1082],[999,1165],[999,1249],[999,1332],[999,1416],[999,1499],[999,1582],[999,1665],[999,1749],[35.7,1832],[36,1915],[35,1999],[34.4,2082],[34.3,2165],[34.3,2248],[34.3,2332],[34.2,2415],[32.4,2499],[28.3,2582],[32.3,2665],[37.4,2749],[40.8,2832],[42.4,2915],[42.4,2998],[42.4,3081],[42.4,3165],[41.3,3248],[30.4,3332],[20.1,3415],[25.7,4498],[19.3,4581],[15.4,4664],[15.1,4747],[15.1,4831],[15,4914],[17.6,4998],[18.5,5081],[18.5,5164],[18.5,5247],[18.5,5331],[20.6,5414],[21.8,5498],[23.3,5581],[25.3,5664],[26.3,5747],[26.6,5830],[27,5914],[28,5997],[31.4,6081],[32.9,6164],[34.3,6247],[34.8,6330],[36.7,6414],[38.8,6497],[40,6580],[40.6,6664],[40.6,6747],[41.1,6830],[41.5,6913],[42.4,6997],[43.3,7080],[44.5,7163],[44.7,7246],[45.9,7330],[45.9,7413],[45.9,7496],[46.7,7580],[46.9,7663],[47.3,7747],[47.8,7830],[48.3,7913],[49.4,7996],[49.5,8080],[52.1,8163],[52.4,8246],[52.4,8329],[52.4,8412],[52.2,8496]]",1,0,335.3114,337.6098,26.5625,2.094,"[{""rating"":20.937499999999996,""responseTime"":1.355900000095346},{""rating"":26.5625,""responseTime"":2.093999999999994}]",space,1.7489,,337.6098,Partially,50,337.6123,,,[],,0,5,5,5,1,audio/Narrative7Situation5.wav,audio/Narrative8Situation5.wav,audio/Narrative5Situation5.wav,audio/Narrative6Situation5.wav,5,2,5,2,,,,,,,,,,,,,,,,,,,,,,,,,,,,,,,,,,,,,,,
,,,,,,65c23bf7904812607642bad6,2024-05-13_10h33.19.781,group3.1-3.2-social-tom,2023.2.2,Win32,60.24096386,65c5074098b851296ff0b7ed,6642329cd3daf0304e371b9e,,,,,,,,,,,,,,,,,,,,,,,,,,,,,337.6127,1,audio/Narrative7Situation6.wav,340.6251,,340.6252,350.6044,"[[999,11],[999,83],[999,166],[999,249],[999,333],[999,416],[999,499],[999,582],[999,666],[999,749],[999,833],[999,916],[999,999],[999,1082],[999,1166],[999,1249],[999,1332],[999,1415],[999,1499],[999,1582],[999,1665],[999,1749],[999,1832],[999,1915],[999,1999],[999,2082],[999,2165],[999,2248],[999,2332],[999,2415],[999,2498],[999,2581],[999,2665],[999,2748],[999,2831],[999,2915],[999,2998],[45.5,3082],[49.3,3165],[62,3248],[63.4,3331],[71.5,3415],[76.5,3498],[88.2,3581],[97.2,3665],[99.6,3748],[99.9,3831],[100,3915],[100,3998],[100,4081],[100,4164],[100,4247],[100,4331],[100,4414],[100,4497],[100,4581],[100,4664],[100,4747],[100,4831],[100,4914],[100,4997],[100,5081],[98.9,5664],[100,6497],[100,6580],[100,6663],[100,6746],[100,6830],[100,6913],[100,6997],[100,7080],[100,7163],[100,7246],[100,7330],[100,7413],[100,7496],[100,7579],[100,7663],[100,7746],[100,7829],[100,7913],[100,7996],[100,8079],[100,8163],[100,8246],[100,8329],[100,8412],[100,8496],[100,8579],[100,8662],[100,8746],[100,8829],[100,8912],[100,8996],[100,9079],[100,9162],[100,9246],[100,9329],[100,9412],[100,9495],[100,9579],[100,9662],[100,9745],[100,9830],[100,9912]]",1,0,350.6045,352.1703,99.375,1.1138,"[{""rating"":99.375,""responseTime"":1.1138000001907358}]",space,1.0169,,352.1703,Not at all,0,352.1738,,,[],,0,6,6,6,1,audio/Narrative7Situation6.wav,audio/Narrative8Situation6.wav,audio/Narrative5Situation6.wav,audio/Narrative6Situation6.wav,3,2,3,2,,,,,,,,,,,,,,,,,,,,,,,,,,,,,,,,,,,,,,,
,,,,,,65c23bf7904812607642bad6,2024-05-13_10h33.19.781,group3.1-3.2-social-tom,2023.2.2,Win32,60.24096386,65c5074098b851296ff0b7ed,6642329cd3daf0304e371b9e,,,,,,,,,,,,,,,,,,,,,,,,,,,,,352.1741,1,audio/Narrative7Situation7.wav,357.185,,357.185,374.3608,"[[98.8,916],[98.8,999],[98.8,1082],[98.8,1165],[98.8,1249],[98.8,1332],[98.8,1415],[98.8,1498],[98.8,1582],[98.8,1665],[98.8,1748],[98.8,1832],[98.3,1915],[93.9,1999],[93.6,2082],[91.7,2165],[91.7,2248],[97.1,2332],[98.6,2415],[99,2498],[99.2,2581],[99.2,2665],[99.2,2748],[99.2,2831],[99.2,2915],[99.2,2998],[99.2,3081],[99.2,3164],[99.2,3248],[99.2,3331],[99.2,3414],[99.2,3498],[99.2,3581],[99.2,3664],[99.2,3748],[99.2,3831],[99.2,3914],[99.2,3997],[99.2,4081],[99.2,4164],[99.2,4247],[99.2,4331],[99.2,4414],[99.2,4497],[99.2,4581],[99.2,4664],[99.2,4747],[99.2,4830],[99.2,4914],[99.2,4997],[99.2,5080],[99.2,5164],[99.2,5247],[99.2,5330],[99.2,5414],[99.2,5497],[99.5,5580],[99.4,5664],[99.4,5747],[99.4,5830],[100,9245],[100,9329],[100,9412],[100,9495],[100,9578],[100,9662],[100,9745],[100,9828],[100,9912],[100,9995],[100,10078],[100,10162],[100,10245],[100,10328],[100,10412],[100,10495],[100,10578],[100,10661],[100,10745],[99.7,10828],[99.5,10911],[99.2,10995],[98.3,11078],[98,11161],[98,11245],[98.6,11328],[99.4,11412],[100,11495],[100,11578],[100,11661],[100,11744],[100,11828],[100,11911],[100,11994],[98.9,12078],[98.5,12161],[98.5,12244],[98.6,12327],[98.8,12411],[98.8,12494],[98.8,12577],[99.2,12661],[99.2,12744],[99.2,12827],[99.2,12910],[99.2,12994],[99.2,13077],[99.2,13160],[99.2,13244],[99.2,13327],[99.2,13410],[99.2,13494],[99.2,13577],[99.2,13660],[99.2,13743],[99.2,13827],[99.2,13910],[99.2,13993],[99.2,14077],[99.2,14160],[99.2,14243],[99.2,14326],[99.2,14410],[99.2,14493],[99.2,14576],[99.2,14660],[99.2,14743],[99.2,14826],[99.2,14910],[99.2,14993],[99.2,15076],[99.2,15159],[99.2,15243],[99.2,15326],[99.2,15409],[99.2,15493],[99.2,15576],[99.2,15659],[99.2,15743],[99.2,15826],[99.2,15909],[99.2,15992],[99.2,16076],[99.2,16159],[99.2,16242],[99.2,16326],[99.2,16409],[99.2,16492],[99.2,16575],[99.2,16659],[99.2,16742],[99.2,16825],[99.2,16909],[99.2,16992],[99.2,17075],[99.2,17158]]",1,0,374.361,375.8601,99.16666667,0.5281,"[{""rating"":99.16666666666667,""responseTime"":0.5280999999046116}]",space,0.9501,,375.8602,Not at all,0,375.862,,,[],,0,7,7,7,1,audio/Narrative7Situation7.wav,audio/Narrative8Situation7.wav,audio/Narrative5Situation7.wav,audio/Narrative6Situation7.wav,5,3,4,5,,,,,,,,,,,,,,,,,,,,,,,,,,,,,,,,,,,,,,,
,,,,,,65c23bf7904812607642bad6,2024-05-13_10h33.19.781,group3.1-3.2-social-tom,2023.2.2,Win32,60.24096386,65c5074098b851296ff0b7ed,6642329cd3daf0304e371b9e,,,,,,,,,,,,,,,,,,,,,,,,,,,,,375.8623,1,audio/Narrative7Situation8.wav,377.8758,,377.876,387.922,"[[999,0],[999,82],[999,166],[999,249],[999,332],[999,416],[999,499],[999,582],[999,666],[999,749],[999,833],[999,916],[999,999],[999,1082],[999,1165],[999,1249],[999,1332],[999,1415],[999,1499],[999,1582],[999,1665],[999,1748],[999,1832],[67.4,1915],[59.1,1999],[59.4,2082],[59.7,2165],[59.7,2248],[56.4,2332],[56.1,2415],[56.1,2498],[57,2582],[59.1,2665],[62.2,2748],[68.1,2832],[87.1,3165],[90.6,3248],[92,3331],[92,3415],[94.8,3498],[98.6,3582],[99.3,3664],[99.3,3748],[99.3,3831],[99.3,3914],[99.3,3998],[99.3,4081],[99.3,4164],[99.3,4248],[99.3,4331],[99.3,4414],[99.3,4497],[99.3,4581],[99.3,4664],[99.3,4747],[99.3,4831],[99.3,4914],[99.3,4997],[99.3,5081],[99.3,5164],[99.3,5247],[99.3,5330],[99.3,5414],[99.3,5497],[99.3,5580],[99.3,5664],[99.3,5747],[99.3,5830],[99.3,5913],[99.3,5997],[99.3,6080],[99.3,6163],[99.3,6247],[99.3,6330],[99.3,6413],[99.3,6497],[99.3,6580],[99.3,6663],[99.3,6746],[99.3,6830],[99.3,6913],[99.3,6996],[99.3,7080],[99.3,7163],[99.3,7246],[99.3,7329],[99.3,7413],[99.3,7496],[98.2,7584],[98.2,7663],[98.2,7746],[98.2,7829],[98.2,7913],[98.2,7996],[98.2,8079],[98.2,8162],[98.2,8246],[98.2,8329],[98.2,8412],[98.2,8496],[98.2,8579],[98.2,8662],[98.2,8746],[98.2,8829],[98.2,8912],[98.2,8995],[98.2,9079],[98.2,9162],[98.2,9245],[98.2,9329],[97.8,9412],[83.9,9495],[96.4,9995]]",1,0,387.9221,389.471,97.08333333,0.9392,"[{""rating"":97.08333333333333,""responseTime"":0.9392000000477196}]",space,1.0056,,389.4711,Definitely yes,100,389.4745,,,[],,0,8,8,8,1,audio/Narrative7Situation8.wav,audio/Narrative8Situation8.wav,audio/Narrative5Situation8.wav,audio/Narrative6Situation8.wav,2,3,3,5,,,,,,,,,,,,,,,,,,,,,,,,,,,,,,,,,,,,,,,
,,,,,,65c23bf7904812607642bad6,2024-05-13_10h33.19.781,group3.1-3.2-social-tom,2023.2.2,Win32,60.24096386,65c5074098b851296ff0b7ed,6642329cd3daf0304e371b9e,,,,,,,,,,,,,,,,,,,,,,,,,,,,,389.4749,1,audio/Narrative7Situation9.wav,391.4868,,391.4868,400.1171,"[[96.4,1582],[91.5,1665],[91.5,1749],[91.5,1832],[91.5,1915],[90.8,1999],[96.1,2249],[97.1,2332],[100,2415],[100,2498],[100,2582],[100,2665],[100,2748],[100,2832],[100,2915],[100,2998],[100,3081],[100,3165],[100,3248],[100,3331],[100,3415],[100,3498],[100,3581],[100,3664],[100,3748],[100,3831],[100,3915],[100,3998],[100,4081],[100,4164],[100,4247],[100,4331],[100,4414],[100,4497],[100,4581],[100,4664],[100,4747],[100,4831],[100,4914],[100,4997],[100,5081],[100,5164],[100,5248],[100,5330],[100,5414],[100,5497],[100,5580],[100,5664],[100,5747],[100,5830],[100,5914],[100,5997],[100,6080],[100,6163],[100,6247],[100,6330],[100,6413],[100,6497],[100,6580],[100,6663],[100,6747],[100,6830],[100,6913],[100,6996],[100,7080],[100,7163],[100,7246],[100,7330],[100,7413],[100,7496],[100,7579],[100,7663],[100,7746],[100,7830],[100,7913],[100,7996],[100,8079],[100,8163],[100,8246],[100,8329]]",1,0,400.1172,402.0656,98.75,1.5219,"[{""rating"":98.75,""responseTime"":1.5219000000953997}]",space,1.4023,,402.0656,Partially,50,402.069,,,[],,0,9,9,9,1,audio/Narrative7Situation9.wav,audio/Narrative8Situation9.wav,audio/Narrative5Situation9.wav,audio/Narrative6Situation9.wav,2,3,3,4,,,,,,,,,,,,,,,,,,,,,,,,,,,,,,,,,,,,,,,
,,,,,,65c23bf7904812607642bad6,2024-05-13_10h33.19.781,group3.1-3.2-social-tom,2023.2.2,Win32,60.24096386,65c5074098b851296ff0b7ed,6642329cd3daf0304e371b9e,,,,,,,,,,,,,,,,,,,,,,,,,,,,,402.0692,1,audio/Narrative8Situation1.wav,404.4482,space,404.4482,420.3745,"[[999,0],[999,82],[999,166],[999,249],[999,332],[999,415],[999,499],[999,582],[999,666],[999,749],[999,833],[999,915],[999,999],[999,1082],[999,1165],[999,1249],[999,1332],[999,1415],[999,1499],[86,1582],[95.7,1832],[93.5,1915],[93.5,1998],[95.6,2083],[96.6,2165],[97.5,2248],[97.9,2331],[98.3,2415],[98.5,2498],[98.5,2581],[98.5,2665],[98.5,2748],[97.5,2832],[97.4,2914],[97.4,2998],[97.4,3081],[96.5,3165],[89.7,3248],[43,3914],[43.5,3998],[37.6,4081],[25.9,4164],[21.6,4248],[17.5,4331],[15.3,4414],[9.2,4497],[7.9,4581],[7.9,4664],[7.9,4747],[13.5,4831],[22.1,4914],[30.1,4997],[44.9,5081],[49.6,5164],[54.5,5247],[58.9,5330],[59,5414],[55.6,5497],[53.9,5581],[51.5,5664],[49.3,5747],[49,5830],[49,5913],[49,5997],[49,6080],[49,6163],[49,6247],[49,6330],[49,6413],[48.9,6497],[48.9,6580],[48.9,6663],[48.9,6747],[49.9,6830],[49.9,6913],[49.9,6996],[49.9,7079],[49.9,7163],[49.9,7246],[49.9,7329],[49.9,7413],[49.9,7496],[39.5,7580],[37.6,7663],[37.3,7746],[37.3,7829],[36.9,7913],[34.3,7996],[30.5,8079],[30.4,8162],[34.1,8246],[31.7,8329],[31.3,8412],[30.4,8496],[31,8579],[34.7,8662],[32.5,8746],[29.4,8829],[35.5,8912],[41.6,8995],[41.7,9079],[38.6,9162],[38.8,9245],[32.7,9329],[32.4,9412],[43,9495],[43.8,9579],[54.3,9662],[92.5,9912],[96.5,9995],[100,10078],[100,10162],[100,10245],[100,10328],[100,10411],[100,10495],[100,10578],[100,10661],[100,11245],[100,11411],[100,11495],[100,11577],[100,11661],[99.9,11744],[99.8,11828],[100,11911],[100,11994],[100,12077],[100,12161],[100,12244],[100,12327],[100,12411],[100,12494],[100,12577],[100,12660],[98.9,12744],[100,13327],[99.2,13827],[100,13910],[100,13993],[100,14076],[100,14160],[100,14243],[100,14327],[100,14410],[100,14493],[99.7,14576],[98.3,14659],[98.3,14743],[98.3,14826],[98.3,14909],[98.3,14993],[98.3,15076],[98.3,15159],[98.3,15243],[98.3,15326],[98.3,15409],[98.3,15493],[98.3,15576],[98.3,15659],[98.3,15742],[98.3,15826],[98.3,15909]]",1,0,420.3747,422.0239,97.91666667,1.1789,"[{""rating"":97.91666666666667,""responseTime"":1.1788999998569807}]",space,1.1032,,422.0239,Not at all,0,422.0278,,,[],,0,10,10,10,1,audio/Narrative8Situation1.wav,audio/Narrative7Situation1.wav,audio/Narrative6Situation1.wav,audio/Narrative5Situation1.wav,5,2,2,5,2.3627,,,,,,,,,,,,,,,,,,,,,,,,,,,,,,,,,,,,,,
,,,,,,65c23bf7904812607642bad6,2024-05-13_10h33.19.781,group3.1-3.2-social-tom,2023.2.2,Win32,60.24096386,65c5074098b851296ff0b7ed,6642329cd3daf0304e371b9e,,,,,,,,,,,,,,,,,,,,,,,,,,,,,422.0281,1,audio/Narrative8Situation2.wav,425.0391,,425.0391,435.1683,"[[999,0],[999,83],[999,166],[999,249],[999,333],[999,416],[999,499],[999,583],[999,666],[999,750],[999,833],[999,916],[999,999],[999,1082],[999,1166],[999,1249],[999,1333],[999,1416],[999,1499],[999,1582],[999,1665],[999,1749],[999,1832],[999,1915],[999,1999],[999,2082],[48.9,2166],[49.2,2249],[49.4,2332],[49.4,2415],[49.4,2498],[49.4,2582],[49.4,2665],[49.4,2748],[49.4,2832],[49.4,2915],[49.4,2998],[49.4,3082],[49.4,3165],[49.4,3248],[49.4,3331],[49.4,3415],[49.4,3498],[49.4,3581],[49.4,3665],[49.4,3748],[49.4,3831],[49.4,3914],[49.4,3998],[49.4,4081],[49.4,4164],[49.4,4248],[49.4,4331],[49.4,4414],[49.4,4498],[49.4,4581],[49.4,4664],[49.4,4748],[49.4,4831],[49.4,4914],[49.4,4997],[49.4,5081],[49.4,5164],[49.4,5247],[49.4,5330],[49.4,5414],[49.4,5497],[49.4,5580],[48.1,5669],[45,5747],[39.3,5831],[33.1,5914],[8.8,6414],[8.6,6497],[10.1,6580],[9.9,6663],[8.5,6747],[4.9,6830],[3.6,6913],[0.6,6996],[0.6,7080],[0.6,7163],[0.6,7246],[1.4,7330],[1.7,7413],[1.7,7496],[2.9,7580],[3.3,7663],[3.3,7746],[3.3,7829],[3.3,7913],[3.3,7996],[3.3,8079],[3.3,8163],[3.3,8246],[3.1,8329],[3.1,8413],[3.1,8496],[3.1,8579],[3.1,8662],[3.1,8746],[3.1,8829],[3.1,8912],[3.1,8996],[3,9079],[3,9162],[3,9246],[3,9329],[3,9412],[3,9495],[3,9579],[4,9662],[3.3,9746]]",1,0,435.1685,436.501,13.54166667,1.0591,"[{""rating"":13.541666666666668,""responseTime"":1.0590999999046744}]",space,0.7824,,436.5012,Not at all,0,436.5033,,,[],,0,11,11,11,1,audio/Narrative8Situation2.wav,audio/Narrative7Situation2.wav,audio/Narrative6Situation2.wav,audio/Narrative5Situation2.wav,3,3,3,3,,,,,,,,,,,,,,,,,,,,,,,,,,,,,,,,,,,,,,,
,,,,,,65c23bf7904812607642bad6,2024-05-13_10h33.19.781,group3.1-3.2-social-tom,2023.2.2,Win32,60.24096386,65c5074098b851296ff0b7ed,6642329cd3daf0304e371b9e,,,,,,,,,,,,,,,,,,,,,,,,,,,,,436.5036,1,audio/Narrative8Situation3.wav,440.516,,440.5161,462.9064,"[[14.8,2082],[14.8,2165],[4,2831],[4.2,3081],[1.3,3165],[10.5,3248],[28,3332],[50.2,3414],[88.1,3914],[89.8,3998],[98.8,4081],[98.8,4164],[98.9,4248],[99.4,4331],[99.3,4414],[99.3,4497],[99.3,4581],[99.3,4664],[99.3,4747],[99.3,4831],[99.3,4914],[99.3,4997],[99.3,5080],[99.3,5164],[99.3,5247],[99.3,5330],[99.3,5413],[99.3,5497],[99.3,5580],[99.3,5663],[99.3,5747],[99.3,5830],[99.3,5913],[99.3,5997],[99.3,6080],[99.3,6163],[99.3,6247],[99.3,6330],[99.3,6413],[99.3,6496],[99.3,6580],[99.3,6663],[99.3,6746],[99.3,6829],[99.3,6913],[99.3,6996],[99.3,7079],[99.3,7163],[99.3,7246],[99.3,7329],[99.3,7413],[99.3,7496],[99.3,7579],[99.3,7663],[99.3,7746],[99.3,7829],[99.3,7912],[99.3,7996],[99.3,8079],[99.3,8162],[99.3,8246],[99.3,8329],[99.3,8412],[99.3,8496],[99.3,8579],[99.3,8662],[99.3,8745],[99.3,8829],[99.3,8912],[99.3,8995],[99.3,9079],[99.3,9162],[99.3,9245],[99.3,9329],[99.3,9412],[99.3,9495],[99.3,9578],[99.3,9662],[99.3,9745],[99.3,9828],[99.3,9912],[99.3,9995],[99.3,10078],[99.3,10161],[99.3,10245],[99.3,10328],[99.3,10411],[99.3,10495],[99.3,10578],[99.3,10661],[99.3,10745],[99.3,10828],[99.3,10911],[99.3,10995],[99.3,11078],[99.3,11161],[99.3,11244],[99.3,11328],[99.3,11411],[99.3,11494],[99.3,11578],[99.3,11661],[99.3,11744],[99.3,11827],[99.3,11911],[99.3,11994],[99.3,12077],[99.3,12161],[99.3,12244],[99.3,12327],[99.3,12411],[99.3,12494],[99.3,12577],[99.3,12660],[99.3,12744],[99.3,12827],[99.3,12910],[99.3,12994],[99.3,13077],[99.3,13160],[99.3,13243],[99.3,13327],[99.3,13410],[99.3,13493],[99.3,13577],[99.3,13660],[99.3,13743],[99.3,13827],[99.3,13910],[99.3,13993],[99.3,14078],[99.3,14160],[99.3,14243],[99.3,14326],[99.3,14410],[99.3,14493],[99.3,14576],[99.3,14660],[99.3,14743],[99.3,14826],[99.3,14909],[99.3,14993],[99.3,15076],[99.3,15159],[99.3,15243],[99.3,15326],[99.3,15409],[99.3,15492],[99.3,15576],[99.3,15659],[99.3,15742],[99.3,15826],[99.3,15909],[99.3,15992],[99.3,16076],[99.3,16159],[99.3,16242],[99.3,16325],[99.3,16409],[99.3,16492],[99.3,16576],[99.3,16659],[99.3,16742],[99.3,16825],[99.3,16909],[99.3,16992],[99.3,17075],[99.3,17158],[99.3,17242],[99.3,17325],[99.3,17408],[99.3,17492],[99.3,17575],[99.3,17658],[99.3,17742],[99.3,17825],[99.3,17908],[99.3,17991],[99.3,18075],[99.3,18158],[99.3,18241],[99.3,18325],[99.3,18408],[99.3,18491],[99.3,18575],[99.3,18658],[99.3,18741],[99.3,18824],[99.3,18908],[99.3,18991],[99.3,19074],[99.3,19158],[99.3,19241],[99.3,19324],[99.3,19408],[99.3,19491],[99.3,19574],[99.3,19658],[99.3,19741],[99.3,19824],[99.3,19907],[99.3,19991],[99.3,20074],[99.3,20157],[99.3,20240],[99.3,20324],[99.3,20407],[99.3,20490],[99.3,20574],[99.3,20657],[99.3,20740],[99.3,20824],[99.3,20907],[99.3,20990],[99.3,21074],[99.3,21157],[99.3,21240],[99.3,21323],[99.3,21407],[99.3,21490],[99.3,21573],[99.3,21657],[96,21746],[95.4,21823],[95.4,21906],[100,22240],[100,22323]]",1,0,462.9066,465.172,96.14583333,0.8097,"[{""rating"":96.14583333333333,""responseTime"":0.8097000000476555}]",space,1.7136,,465.172,Definitely yes,100,465.1752,,,[],,0,12,12,12,1,audio/Narrative8Situation3.wav,audio/Narrative7Situation3.wav,audio/Narrative6Situation3.wav,audio/Narrative5Situation3.wav,4,8,5,3,,,,,,,,,,,,,,,,,,,,,,,,,,,,,,,,,,,,,,,
,,,,,,65c23bf7904812607642bad6,2024-05-13_10h33.19.781,group3.1-3.2-social-tom,2023.2.2,Win32,60.24096386,65c5074098b851296ff0b7ed,6642329cd3daf0304e371b9e,,,,,,,,,,,,,,,,,,,,,,,,,,,,,465.1754,1,audio/Narrative8Situation4.wav,468.1873,,468.1874,482.3647,"[[999,0],[999,83],[999,166],[999,249],[999,333],[999,416],[999,499],[999,583],[999,666],[999,749],[999,833],[999,916],[999,999],[999,1082],[999,1166],[999,1249],[999,1332],[999,1415],[999,1499],[999,1582],[999,1665],[999,1749],[999,1832],[999,1916],[999,1999],[999,2082],[999,2165],[999,2248],[999,2332],[999,2415],[999,2498],[999,2582],[999,2665],[999,2748],[999,2832],[999,2915],[999,2998],[999,3081],[999,3165],[999,3248],[999,3331],[999,3415],[999,3498],[999,3581],[999,3665],[999,3748],[999,3831],[999,3914],[999,3998],[999,4081],[999,4164],[999,4248],[999,4331],[999,4414],[999,4498],[999,4581],[999,4664],[999,4747],[999,4831],[999,4914],[999,4997],[999,5081],[999,5164],[999,5247],[999,5330],[999,5414],[999,5497],[999,5580],[999,5664],[999,5747],[999,5830],[999,5914],[999,5997],[999,6080],[999,6164],[999,6247],[75.7,6330],[100,6747],[100,6830],[100,6913],[100,6997],[100,7080],[99.3,7163],[99.3,7246],[99.4,7330],[99.3,7413],[99.3,7496],[99.3,7580],[99.3,7663],[99.3,7746],[99.3,7829],[99.3,7913],[99.3,7996],[99.3,8079],[99.1,8163],[99,8246],[99,8329],[99,8413],[99,8496],[99,8579],[99,8663],[99,8746],[99,8829],[99,8912],[99,8996],[99,9079],[99,9162],[99,9246],[99,9329],[99,9412],[99,9495],[99,9579],[99.3,9662],[99.5,9745],[99.3,9829],[98.6,9912],[98.1,9995],[97.8,10079],[97.8,10162],[97.8,10245],[97.8,10328],[97.9,10412],[99.5,10495],[100,10579],[100,10662],[100,10745],[100,10828],[100,10911],[100,10995],[100,11078],[100,11161],[100,11245],[100,11328],[100,11411],[100,11495],[100,11578],[100,11661],[100,11744],[100,11828],[100,11911],[100,11994],[100,12078],[100,12161],[100,12244],[100,12327],[100,12411],[100,12494],[100,12577],[100,12661],[100,12744],[100,12827],[100,12911],[100,12994],[100,13077],[100,13161],[100,13244],[100,13327],[100,13410],[100,13494],[100,13577],[100,13660],[100,13744],[100,13827],[100,13910],[100,13994],[100,14077],[100,14160]]",1,0,482.3648,484.7636,99.16666667,1.7443,"[{""rating"":99.16666666666667,""responseTime"":1.744299999952318}]",space,1.8595,,484.7636,Definitely yes,100,484.7656,,,[],,0,13,13,13,1,audio/Narrative8Situation4.wav,audio/Narrative7Situation4.wav,audio/Narrative6Situation4.wav,audio/Narrative5Situation4.wav,3,3,2,1,,,,,,,,,,,,,,,,,,,,,,,,,,,,,,,,,,,,,,,
,,,,,,65c23bf7904812607642bad6,2024-05-13_10h33.19.781,group3.1-3.2-social-tom,2023.2.2,Win32,60.24096386,65c5074098b851296ff0b7ed,6642329cd3daf0304e371b9e,,,,,,,,,,,,,,,,,,,,,,,,,,,,,484.7659,1,audio/Narrative8Situation5.wav,486.7795,,486.7796,495.026,"[[94.9,2499],[94.8,2582],[94.9,2665],[94.9,2748],[96,2832],[96.4,2915],[96.4,2998],[96.9,3082],[97.4,3165],[97.9,3248],[98.6,3331],[98.9,3415],[99.5,3498],[99.5,3581],[99.5,3665],[99.5,3748],[99.5,3831],[99.5,3914],[99.5,3998],[99.5,4081],[99.5,4165],[99.5,4248],[99.5,4331],[99.5,4414],[99.5,4498],[99.5,4581],[99.5,4664],[99.5,4747],[99.5,4831],[99.5,4914],[99.5,4997],[99.5,5080],[99.5,5164],[99.5,5247],[99.5,5330],[99.5,5414],[99.5,5497],[99.5,5580],[99.5,5664],[99.5,5747],[99.5,5830],[99.5,5913],[99.5,5997],[99.5,6080],[99.5,6163],[99.5,6247],[99.5,6330],[99.5,6413],[99.5,6497],[99.5,6580],[99.5,6663],[99.5,6746],[99.5,6830],[99.5,6913],[99.5,6996],[99.5,7080],[99.5,7163],[99.5,7246],[99.5,7329],[99.5,7413],[99.5,7496],[99.5,7579],[99.5,7663],[99.5,7746],[99.5,7829],[99.5,7913],[99.5,7996],[99.5,8079],[99.5,8163],[99.5,8246]]",1,0,495.0261,496.7253,99.47916667,0.5946,"[{""rating"":99.47916666666667,""responseTime"":0.594600000143032}]",space,1.1529,,496.7253,Definitely yes,100,496.7274,,,[],,0,14,14,14,1,audio/Narrative8Situation5.wav,audio/Narrative7Situation5.wav,audio/Narrative6Situation5.wav,audio/Narrative5Situation5.wav,2,5,2,5,,,,,,,,,,,,,,,,,,,,,,,,,,,,,,,,,,,,,,,
,,,,,,65c23bf7904812607642bad6,2024-05-13_10h33.19.781,group3.1-3.2-social-tom,2023.2.2,Win32,60.24096386,65c5074098b851296ff0b7ed,6642329cd3daf0304e371b9e,,,,,,,,,,,,,,,,,,,,,,,,,,,,,496.7278,1,audio/Narrative8Situation6.wav,498.741,,498.7411,505.2217,"[[999,0],[999,83],[999,166],[999,249],[999,332],[999,416],[999,499],[999,582],[999,666],[999,749],[999,833],[999,916],[999,999],[999,1082],[999,1165],[999,1249],[999,1332],[999,1415],[999,1499],[999,1582],[999,1665],[999,1749],[999,1832],[999,1915],[999,1998],[999,2082],[999,2165],[999,2248],[999,2332],[999,2415],[999,2498],[999,2581],[999,2665],[999,2748],[999,2831],[999,2915],[999,2998],[999,3081],[999,3165],[999,3248],[999,3331],[999,3415],[999,3498],[999,3581],[999,3665],[999,3748],[92.1,3831],[93.3,3915],[93.9,3998],[94,4081],[95.8,4164],[96.6,4248],[97.9,4331],[98.4,4414],[98.9,4498],[100,4581],[100,4664],[100,4747],[100,4831],[100,4914],[100,4997],[100,5081],[100,5164],[100,5247],[100,5330],[100,5414],[100,5497],[100,5580],[100,5664],[100,5747],[100,5830],[100,5914],[100,5997],[100,6080],[100,6163],[100,6247],[100,6330],[100,6413]]",1,0,505.2218,507.2208,97.1875,1.0772,"[{""rating"":97.1875,""responseTime"":1.0771999998092952}]",space,1.4584,,507.2208,Not at all,0,507.224,,,[],,0,15,15,15,1,audio/Narrative8Situation6.wav,audio/Narrative7Situation6.wav,audio/Narrative6Situation6.wav,audio/Narrative5Situation6.wav,2,3,2,3,,,,,,,,,,,,,,,,,,,,,,,,,,,,,,,,,,,,,,,
,,,,,,65c23bf7904812607642bad6,2024-05-13_10h33.19.781,group3.1-3.2-social-tom,2023.2.2,Win32,60.24096386,65c5074098b851296ff0b7ed,6642329cd3daf0304e371b9e,,,,,,,,,,,,,,,,,,,,,,,,,,,,,507.2243,1,audio/Narrative8Situation7.wav,510.2364,,510.2365,522.331,"[[999,0],[999,83],[999,166],[999,249],[999,332],[999,416],[999,499],[999,583],[999,666],[999,749],[999,832],[999,916],[999,999],[999,1082],[999,1166],[999,1249],[999,1332],[999,1415],[999,1499],[999,1582],[999,1665],[999,1749],[999,1832],[999,1916],[999,1999],[90,2083],[90.5,2166],[90.5,2249],[99.2,2332],[100,2415],[100,2499],[99.8,2581],[99.8,2665],[100,2749],[100,2832],[100,2916],[100,2998],[100,3081],[100,3165],[100,3248],[100,3331],[100,3415],[100,3498],[100,3581],[100,3665],[100,3748],[100,3831],[100,3914],[100,3998],[100,4081],[100,4164],[100,4248],[100,4331],[100,4414],[100,4497],[100,4581],[100,4664],[100,4747],[100,4831],[100,4914],[100,4997],[100,5080],[100,5164],[100,5247],[100,5330],[100,5414],[100,5497],[100,5580],[100,5663],[100,5747],[100,5830],[100,5913],[100,5997],[100,6080],[100,6163],[100,6247],[100,6330],[100,6413],[100,6496],[100,6580],[100,6663],[100,6746],[100,6830],[100,6913],[100,6996],[100,7079],[100,7163],[100,7246],[100,7329],[100,7413],[100,7496],[100,7579],[100,7663],[100,7746],[100,7829],[100,7912],[100,7996],[100,8079],[100,8162],[100,8246],[100,8329],[100,8412],[100,8496],[100,8579],[100,8662],[100,8745],[100,8829],[100,8912],[100,8995],[100,9079],[100,9162],[100,9245],[100,9329],[100,9412],[100,9495],[100,9578],[100,9662],[100,9745],[100,9828],[100,9912],[100,9995],[100,10079],[100,10162],[100,10245],[100,10328],[100,10411],[100,10495],[100,10578],[100,10661],[100,10745],[100,10828],[100,10911],[100,10994],[100,11078],[100,11161],[100,11244],[100,11328],[100,11411],[100,11494],[100,11578],[100,11661],[100,11744],[100,11827],[100,11911],[100,11994],[100,12077]]",1,0,522.3311,524.3301,98.64583333,0.9236,"[{""rating"":98.64583333333333,""responseTime"":0.9235999999046953}]",space,1.456,,524.3302,Partially,50,524.3343,,,[],,0,16,16,16,1,audio/Narrative8Situation7.wav,audio/Narrative7Situation7.wav,audio/Narrative6Situation7.wav,audio/Narrative5Situation7.wav,3,5,5,4,,,,,,,,,,,,,,,,,,,,,,,,,,,,,,,,,,,,,,,
,,,,,,65c23bf7904812607642bad6,2024-05-13_10h33.19.781,group3.1-3.2-social-tom,2023.2.2,Win32,60.24096386,65c5074098b851296ff0b7ed,6642329cd3daf0304e371b9e,,,,,,,,,,,,,,,,,,,,,,,,,,,,,524.3345,1,audio/Narrative8Situation8.wav,527.3454,,527.3455,540.2066,"[[98.4,3915],[98.3,3998],[98.3,4081],[98.8,4164],[98.9,4248],[98.9,4331],[98.1,4414],[98,4498],[97.8,4581],[97.8,4664],[97.8,4747],[91.5,4831],[88.3,4914],[8.9,5497],[10.3,5581],[10.7,5664],[10.4,5747],[11.8,5831],[50.9,6247],[49.5,6330],[49.5,6413],[49.5,6497],[49.5,6580],[52.1,6663],[61.6,6747],[63,6830],[78,6913],[87.8,6997],[89.2,7080],[90.4,7163],[93.3,7246],[94.4,7330],[95.6,7413],[99.6,7496],[99.8,7580],[99.8,7663],[99.8,7746],[99.8,7829],[99.8,7913],[99.8,7996],[99.8,8079],[99.8,8163],[99.8,8246],[99.8,8329],[99.8,8412],[99.8,8496],[99.8,8579],[99.8,8662],[99.8,8746],[99.8,8829],[99.8,8912],[99.8,8996],[99.8,9079],[99.8,9162],[99.8,9245],[99.8,9329],[99.8,9412],[99.8,9495],[99.8,9579],[99.8,9662],[99.8,9745],[99.8,9829],[99.8,9912],[99.8,9995],[99.8,10079],[99.8,10162],[99.8,10245],[99.8,10328],[99.8,10412],[99.8,10495],[99.8,10578],[99.8,10662],[99.8,10745],[99.8,10828],[99.8,10911],[99.8,10995],[99.8,11078],[99.8,11161],[99.8,11245],[99.8,11328],[99.8,11411],[99.8,11494],[99.8,11578],[99.8,11661],[99.8,11744],[99.8,11828],[99.8,11911],[99.8,11994],[99.8,12077],[99.8,12161],[99.8,12244],[99.8,12327],[99.8,12411],[99.8,12494],[99.8,12577],[99.8,12661],[99.8,12744],[99.8,12829]]",1,0,540.2068,542.3561,99.58333333,0.732,"[{""rating"":99.58333333333333,""responseTime"":0.7320000000000846}]",space,1.5998,,542.3561,Definitely yes,100,542.3601,,,[],,0,17,17,17,1,audio/Narrative8Situation8.wav,audio/Narrative7Situation8.wav,audio/Narrative6Situation8.wav,audio/Narrative5Situation8.wav,3,2,5,3,,,,,,,,,,,,,,,,,,,,,,,,,,,,,,,,,,,,,,,
,,,,,,65c23bf7904812607642bad6,2024-05-13_10h33.19.781,group3.1-3.2-social-tom,2023.2.2,Win32,60.24096386,65c5074098b851296ff0b7ed,6642329cd3daf0304e371b9e,,,,,,,,,,,,,,,,,,,,,,,,,,,,,542.3604,1,audio/Narrative8Situation9.wav,545.3714,,545.3714,556.6999,"[[999,0],[999,82],[999,166],[999,249],[999,332],[999,416],[999,499],[999,582],[999,666],[999,749],[999,832],[999,915],[999,999],[999,1082],[999,1166],[999,1249],[74,1332],[99,1582],[100,1665],[100,1749],[100,1832],[98.9,1915],[100,3248],[100,3331],[98.8,3748],[99.2,3831],[99.7,3915],[99.7,3998],[99.7,4081],[99.7,4164],[99.7,4248],[99.7,4331],[99.7,4414],[99.7,4497],[99.7,4581],[99.7,4664],[99.7,4747],[99.7,4830],[99.7,4914],[99.7,4997],[99.7,5080],[99.7,5164],[99.7,5247],[99.7,5330],[99.7,5413],[99.7,5497],[99.7,5580],[99.7,5663],[99.7,5747],[99.7,5830],[99.7,5913],[99.7,5997],[99.7,6080],[99.7,6164],[99.7,6246],[99.7,6330],[99.7,6413],[99.7,6496],[99.7,6580],[99.7,6663],[99.7,6746],[99.7,6830],[99.7,6913],[99.7,6997],[99.7,7080],[99.7,7163],[99.7,7246],[99.7,7329],[99.7,7413],[99.7,7496],[99.7,7579],[99.7,7663],[99.7,7746],[99.7,7829],[99.7,7913],[99.7,7996],[99.7,8079],[99.7,8162],[99.7,8246],[99.7,8329],[99.7,8412],[99.7,8495],[99.7,8579],[99.7,8662],[99.7,8745],[99.7,8829],[99.7,8912],[99.7,8996],[99.7,9078],[99.7,9162],[99.7,9245],[99.7,9328],[99.7,9412],[99.7,9495],[99.7,9578],[99.7,9662],[99.7,9745],[99.7,9828],[99.7,9912],[99.7,9995],[99.7,10078],[99.7,10161],[99.7,10245],[99.7,10328],[99.7,10411],[99.7,10495],[99.7,10578],[99.7,10661],[99.7,10745],[97.6,10833]]",1,0,556.7001,558.6154,99.16666667,0.6974,"[{""rating"":99.16666666666667,""responseTime"":0.6974000000953993}]",space,1.3669,,558.6155,Partially,50,564.8461,99.375,5.4535,"[{""rating"":99.375,""responseTime"":5.453499999999963}]",space,0,18,18,18,1,audio/Narrative8Situation9.wav,audio/Narrative7Situation9.wav,audio/Narrative6Situation9.wav,audio/Narrative5Situation9.wav,3,2,4,3,,,5.6806,,,,,,,,,,,,,,,,,,,,,,,,,,,,,,,,,,,,
,,,,,,65c23bf7904812607642bad6,2024-05-13_10h33.19.781,group3.1-3.2-social-tom,2023.2.2,Win32,60.24096386,65c5074098b851296ff0b7ed,6642329cd3daf0304e371b9e,,,,,,,,,,,,,,,,,,,,,,,,,,,624.8505,627.4194,627.433,2,audio/Narrative13Situation2.wav,627.4331,,627.4331,657.1738,"[[82.8,3068],[84,3151],[84,3235],[83.3,3318],[42.9,3735],[49,3818],[49.3,3901],[49.5,3985],[49.6,4068],[49.6,4151],[49.6,4234],[50.9,4317],[100,4651],[100,4734],[100,4817],[96.6,4901],[92.1,4984],[87.2,5067],[87.8,5150],[88.2,5234],[88.2,5317],[84.6,5400],[58.9,5484],[24.1,5567],[22.3,5650],[21.5,5734],[17.1,5817],[10,5900],[10,5983],[16.3,6067],[21.6,6150],[21.6,6233],[24.7,6317],[33.5,6400],[34.4,6483],[37.8,6567],[42.9,6650],[45.2,6733],[46.8,6816],[49.5,6900],[49.5,6983],[49.5,7066],[49.5,7149],[49.5,7233],[49.5,7316],[54.5,7400],[54.7,7483],[54.7,7566],[54.7,7649],[54.7,7732],[54.1,7816],[50.4,8232],[56.1,8316],[61.3,8399],[65,8482],[75.6,8566],[82.7,8649],[88,8732],[95.3,8816],[99.3,8899],[99.7,8982],[99.7,9065],[99.7,9149],[99.7,9232],[99.7,9315],[99.7,9398],[99.7,9482],[99.7,9565],[99.7,9648],[99.7,9732],[99.7,9815],[99.7,9898],[99.7,9981],[99.7,10065],[99.7,10148],[99.7,10231],[99.7,10315],[99.7,10398],[99.7,10481],[99.7,10565],[99.7,10648],[99.7,10731],[99.7,10814],[99.7,10898],[99.7,10981],[99.7,11064],[99.7,11148],[99.7,11231],[99.7,11314],[99.7,11397],[99.7,11481],[99.7,11564],[99.7,11647],[99.7,11731],[99.7,11814],[99.7,11897],[99.7,11981],[99.7,12064],[99.7,12147],[99.7,12230],[99.7,12314],[99.7,12397],[99.7,12480],[99.7,12564],[99.7,12647],[99.7,12730],[99.7,12814],[99.7,12897],[99.7,12980],[99.7,13064],[99.7,13147],[99.7,13230],[99.7,13313],[99.7,13397],[99.7,13480],[99.7,13563],[99.7,13647],[99.7,13730],[99.7,13813],[99.7,13896],[99.7,13980],[99.7,14063],[99.7,14146],[99.7,14230],[99.7,14313],[99.7,14396],[99.7,14480],[99.7,14563],[99.7,14646],[99.7,14730],[99.7,14813],[99.7,14896],[99.7,14979],[99.7,15063],[99.7,15146],[99.7,15229],[99.7,15313],[99.7,15396],[99.7,15479],[99.7,15562],[99.7,15646],[93.6,15729],[80.1,15812],[68.8,15896],[1,16063],[7.1,16646],[7.2,16729],[7.2,16812],[6.6,16895],[0.8,16979],[0.6,17062],[0.6,17145],[0.6,17228],[0.6,17312],[0.6,17395],[0.6,17478],[0.6,17562],[0.6,17645],[0.6,17728],[0.6,17812],[0.6,17895],[0.6,17978],[0.6,18061],[0.6,18145],[0.6,18228],[0.6,18311],[0.6,18395],[0.6,18478],[0.6,18561],[0.6,18644],[0.6,18728],[0.6,18811],[0.6,18894],[0.6,18978],[6.9,19061],[10.1,19144],[10.4,19228],[11,19311],[11.1,19395],[13.1,19478],[15.8,19561],[20,19644],[25.3,19728],[30,19811],[32.4,19894],[33.8,19978],[34,20061],[34,20144],[32.1,20228],[31.3,20311],[29,20394],[21.6,20478],[20.1,20561],[17.4,20644],[13.8,20727],[11.9,20811],[9.3,20894],[4.3,21477],[4.3,21560],[4.3,21643],[4.3,21727],[4.3,21810],[4.3,21893],[4.3,21977],[4.3,22060],[4.3,22143],[4.3,22226],[4.3,22309],[4.3,22393],[4.3,22476],[4.3,22559],[4.3,22643],[4.3,22726],[4.3,22809],[4.3,22893],[4.3,22976],[4.3,23059],[4.3,23143],[4.3,23226],[4.3,23309],[4.3,23392],[4.3,23476],[4.3,23559],[4.3,23642],[4.3,23726],[4.3,23809],[4.3,23892],[4.3,23976],[4.3,24059],[4.3,24142],[5.7,24226],[6.4,24309],[6.5,24392],[6.5,24475],[6.5,24559],[6.5,24642],[6.5,24725],[6.6,24809],[7.5,24892],[8.1,24975],[8.8,25059],[10.3,25142],[13.9,25225],[22.7,25308],[28.9,25392],[32.2,25475],[35.9,25558],[39.5,25642],[42,25725],[43.4,25808],[45.7,25891],[47.5,25975],[47.6,26058],[48.1,26142],[48.9,26225],[49.4,26308],[49.4,26391],[49.5,26475],[49.5,26558],[46.8,26641],[35.6,26725],[22,27391],[26.9,27474],[27.2,27557],[27.2,27641],[27.2,27724],[27.2,27807],[27.2,27890],[27.2,27974],[27.9,28057],[30.3,28141],[31,28224],[32.5,28307],[34.6,28391],[39.1,28474],[43.3,28557],[46.7,28640],[49.1,28724],[52.1,28807],[56.4,28890],[65.6,28974],[73.8,29057],[76.3,29140],[76.3,29223],[76.3,29307],[76.3,29390],[76.3,29473],[75.6,29557],[71.9,29640],[63.4,29723]]",1,0,657.174,657.176,,,[],,,,657.176,Definitely yes,100,657.1788,,,[],,0,0,0,0,1,audio/Narrative13Situation2.wav,audio/Narrative13Situation2.wav,audio/Narrative13Situation2.wav,audio/Narrative13Situation2.wav,2,2,2,2,,,,,564.8468,624.8381,,,,,,,,,,,,,,,,,,,,,,,,,,,,,,,,,
,,,,,,65c23bf7904812607642bad6,2024-05-13_10h33.19.781,group3.1-3.2-social-tom,2023.2.2,Win32,60.24096386,65c5074098b851296ff0b7ed,6642329cd3daf0304e371b9e,,,,,,,,,,,,,,,,,,,,,,,,,,,,,657.1791,2,audio/Narrative5Situation1.wav,662.1881,,662.1881,675.4826,"[[62.8,2415],[67.6,2498],[44,2582],[28.8,5497],[27.6,5914],[24.3,5997],[22.5,6080],[20.8,6164],[15.5,6247],[15.4,6330],[7.3,6413],[7.2,6496],[6.6,6580],[5.5,6663],[5.5,6746],[5.3,6830],[2.9,6913],[2.6,6996],[1.8,7080],[1.6,7163],[1.6,7246],[1.6,7329],[1.6,7413],[1.6,7496],[1.6,7579],[1.6,7663],[1.6,7746],[1.6,7829],[1.6,7913],[1.6,7996],[1.6,8079],[1.6,8162],[1.6,8246],[1.6,8329],[1.6,8412],[1.6,8496],[1.6,8579],[1.6,8662],[1.6,8745],[1.6,8829],[1.6,8912],[1.6,8995],[1.6,9079],[1.6,9162],[1.6,9245],[1.6,9329],[1.6,9412],[1.6,9495],[1.6,9578],[1.6,9662],[1.6,9745],[1.6,9828],[1.6,9912],[1.6,9995],[1.6,10078],[1.6,10162],[1.6,10245],[1.6,10328],[1.6,10411],[1.6,10495],[1.6,10578],[1.6,10662],[1.6,10745],[1.6,10828],[1.6,10911],[1.6,10995],[1.6,11078],[1.6,11161],[1.6,11244],[1.6,11328],[1.6,11411],[1.6,11494],[1.6,11578],[1.6,11661],[1.6,11744],[1.6,11827],[1.6,11911],[1.6,11994],[1.6,12077],[1.6,12161],[1.6,12244],[1.6,12327],[1.6,12411],[1.6,12494],[1.6,12577],[1.6,12660],[1.6,12744],[1.6,12827],[1.6,12910],[1.6,12994],[1.6,13077],[1.6,13160],[1.6,13244]]",1,0,675.4829,676.882,1.5625,0.918,"[{""rating"":1.5625,""responseTime"":0.9180000000000064}]",space,0.8507,,676.882,Not at all,0,676.8862,,,[],,0,1,1,1,1,audio/Narrative7Situation1.wav,audio/Narrative8Situation1.wav,audio/Narrative5Situation1.wav,audio/Narrative6Situation1.wav,2,5,5,2,,,,,,,,,,,,,,,,,,,,,,,,,,,,,,,,,,,,,,,
,,,,,,65c23bf7904812607642bad6,2024-05-13_10h33.19.781,group3.1-3.2-social-tom,2023.2.2,Win32,60.24096386,65c5074098b851296ff0b7ed,6642329cd3daf0304e371b9e,,,,,,,,,,,,,,,,,,,,,,,,,,,,,676.8864,2,audio/Narrative5Situation2.wav,679.897,,679.8971,709.3681,"[[1.4,1082],[2.7,1166],[3.2,1249],[3.4,1332],[3.4,1415],[3.4,1499],[3.6,1582],[3.6,1665],[3.6,1749],[3.6,1832],[3.6,1915],[3.6,1999],[2.9,2082],[1.9,2165],[1.4,2249],[0.9,2332],[0.9,2415],[0.9,2498],[0.9,2582],[1.8,2665],[4.4,2749],[6.9,2832],[10.6,2915],[11.8,2998],[14.5,3082],[16.7,3165],[19.1,3248],[19.6,3331],[19.6,3415],[19.6,3498],[19.6,3581],[19.6,3664],[19.6,3748],[19.6,3831],[19.6,3914],[19.6,3998],[20.1,4081],[24.1,4164],[28.2,4248],[28.8,4331],[30.2,4414],[31.1,4498],[31.3,4581],[31.3,4664],[31.3,4747],[31.3,4831],[31.3,4914],[31.3,4997],[31.3,5081],[31.3,5164],[31.3,5247],[31.3,5331],[31.3,5414],[31.3,5497],[32.9,5581],[33.4,5664],[33.5,5747],[33.5,5830],[33.5,5913],[33.5,5997],[33.5,6080],[33.5,6163],[32.8,6247],[32.7,6330],[32.7,6413],[32.7,6497],[32.7,6580],[32.7,6663],[33,6747],[33.6,6830],[33.6,6913],[34.4,6997],[35.9,7080],[39.1,7163],[39.5,7246],[40.8,7330],[43.8,7413],[44.1,7496],[44.1,7579],[44.1,7663],[44.1,7746],[44.1,7830],[44.1,7913],[45.5,7996],[53.2,8080],[61.9,8163],[74.3,8246],[88,8329],[89.3,8413],[91.4,8496],[93.8,8579],[95.3,8663],[96.5,8745],[96.9,8829],[98.5,8912],[98.9,8995],[99,9079],[99,9162],[99,9245],[99,9329],[99,9412],[99,9495],[99,9579],[99,9662],[99,9745],[99,9829],[99,9912],[99,9995],[97.6,10079],[88,10162],[88,10245],[88,10328],[88,10412],[88,10495],[88,10578],[89,10662],[97.7,10745],[99.8,10828],[100,10912],[100,10995],[100,11078],[99,11162],[98.5,11245],[98.5,11328],[88.5,11411],[88.5,11494],[88.5,11578],[88.5,11661],[88.5,11744],[89,11828],[90.2,11911],[92.7,11994],[96.3,12078],[98.1,12161],[100,12245],[100,12327],[100,12411],[100,12494],[100,12578],[100,12661],[100,12744],[100,12827],[100,12911],[100,12994],[100,13077],[100,13160],[100,13244],[100,13327],[99.8,13411],[98.8,13494],[98.6,13577],[98.3,13660],[98.3,13744],[98.3,13827],[98.3,13910],[98.3,13993],[98.3,14077],[98.3,14160],[98.3,14243],[98.3,14327],[98.3,14410],[98.3,14493],[98.3,14576],[98.3,14660],[98.3,14743],[98.3,14826],[98.3,14910],[98.3,14993],[98.3,15076],[98.3,15160],[98.3,15243],[98.3,15326],[98.3,15410],[98.3,15493],[98.3,15576],[98.3,15659],[98.3,15743],[98.3,15826],[98.3,15909],[98.3,15993],[98.3,16076],[98.3,16159],[98.3,16242],[98.3,16326],[98.3,16409],[98.3,16492],[98.3,16576],[98.3,16659],[98.3,16742],[98.3,16826],[98.3,16909],[98.3,16992],[98.3,17075],[98.3,17159],[98.3,17242],[98.3,17325],[98.3,17409],[98.3,17492],[98.3,17575],[98.3,17658],[98.3,17742],[98.3,17825],[98.3,17908],[98.2,17992],[96.9,18075],[86.9,18158],[86.9,18242],[84.4,18325],[30.8,18575],[30.4,18658],[53.3,18991],[53.8,19076],[51.7,19158],[49.8,19241],[50.5,19325],[50.7,19408],[50.7,19491],[50.7,19574],[50.7,19658],[50.7,19741],[50.7,19824],[50.7,19908],[50.7,19991],[50.7,20074],[50.7,20158],[50.7,20241],[50.7,20324],[50.7,20407],[50.7,20491],[50.7,20574],[50.7,20657],[50.7,20740],[50.7,20824],[50.7,20907],[50.7,20990],[50.7,21074],[50.7,21157],[50.7,21240],[50.7,21324],[50.7,21407],[50.7,21490],[50.7,21574],[50.7,21657],[50.7,21740],[50.7,21823],[50.7,21907],[50.7,21990],[50.7,22074],[50.7,22157],[50.7,22240],[50.7,22323],[50.7,22406],[50.7,22490],[50.7,22573],[50.7,22657],[50.7,22740],[50.7,22823],[50.7,22906],[50.7,22990],[50.7,23073],[50.7,23156],[50.7,23240],[50.7,23323],[50.7,23406],[50.7,23489],[50.7,23573],[50.7,23656],[50.7,23739],[50.7,23822],[50.7,23906],[50.7,23989],[50.7,24072],[65.6,24156],[97.8,24239],[100,24323],[100,24406],[100,24489],[100,24572],[100,24656],[100,24739],[100,24822],[100,24906],[100,24989],[100,25072],[100,25155],[100,25239],[100,25322],[100,25405],[100,25489],[100,25572],[100,25655],[100,25738],[100,25822],[100,25905],[100,25988],[100,26072],[100,26155],[100,26238],[100,26322],[100,26405],[100,26488],[100,26571],[100,26655],[100,26738],[100,26821],[100,26905],[100,26988],[100,27071],[100,27155],[100,27238],[100,27321],[100,27404],[100,27488],[100,27571],[100,27654],[100,27738],[100,27821],[100,27904],[100,27987],[100,28071],[100,28154],[100,28237],[100,28321],[100,28404],[100,28487],[100,28571],[98.1,28654],[95.6,28737],[95.6,28820],[95.7,28904],[93.2,28987],[87.5,29071],[87.8,29154],[91.6,29237],[100,29320],[100,29404]]",1,0,709.3683,712,72.29166667,1.6778,"[{""rating"":72.29166666666667,""responseTime"":1.677799999952299}]",space,2.0798,,712.0002,Not at all,0,712.002,,,[],,0,2,2,2,1,audio/Narrative7Situation2.wav,audio/Narrative8Situation2.wav,audio/Narrative5Situation2.wav,audio/Narrative6Situation2.wav,3,3,3,3,,,,,,,,,,,,,,,,,,,,,,,,,,,,,,,,,,,,,,,
,,,,,,65c23bf7904812607642bad6,2024-05-13_10h33.19.781,group3.1-3.2-social-tom,2023.2.2,Win32,60.24096386,65c5074098b851296ff0b7ed,6642329cd3daf0304e371b9e,,,,,,,,,,,,,,,,,,,,,,,,,,,,,712.0023,2,audio/Narrative5Situation3.wav,715.0155,,715.0155,728.9262,"[[999,11],[999,83],[999,166],[999,249],[999,333],[999,416],[999,499],[999,583],[999,667],[999,749],[999,833],[999,916],[999,999],[999,1082],[999,1166],[999,1249],[999,1332],[999,1415],[999,1499],[999,1582],[999,1665],[999,1749],[999,1832],[999,1915],[12.8,1999],[12.4,2249],[64,2582],[70.9,2665],[77.6,2748],[77.6,2831],[87.6,2915],[89.8,2998],[90.4,3082],[90.8,3165],[94.2,3248],[97.5,3332],[97.6,3415],[97.6,3498],[97.6,3581],[97.6,3664],[97.6,3748],[97.6,3831],[97.6,3914],[97.6,3998],[97.6,4081],[97.6,4164],[97.6,4247],[97.6,4331],[97.6,4414],[97.6,4497],[97.6,4581],[97.6,4664],[97.6,4747],[97.6,4831],[97.6,4914],[97.6,4997],[97.6,5081],[97.6,5164],[97.6,5247],[97.6,5330],[97.6,5414],[97.6,5497],[97.6,5580],[97.6,5664],[97.6,5747],[97.6,5830],[97.6,5914],[97.6,5997],[97.6,6080],[97.6,6163],[97.6,6247],[97.6,6330],[97.6,6413],[97.6,6497],[97.6,6580],[97.6,6663],[97.6,6747],[97.6,6830],[97.6,6913],[97.6,6996],[97.6,7080],[97.6,7163],[97.6,7246],[97.6,7330],[97.6,7413],[97.6,7496],[97.6,7580],[97.6,7663],[97.6,7746],[97.6,7829],[97.6,7913],[97.6,7996],[97.6,8079],[97.6,8163],[97.6,8246],[97.6,8329],[97.6,8413],[97.6,8496],[97.6,8579],[97.6,8662],[97.6,8746],[97.6,8829],[97.6,8912],[97.6,8995],[97.6,9079],[97.6,9162],[97.6,9245],[97.6,9329],[97.6,9412],[97.6,9495],[97.6,9579],[97.6,9662],[97.6,9745],[97.6,9829],[97.6,9912],[97.6,9995],[97.6,10078],[97.6,10162],[97.6,10245],[97.6,10328],[97.6,10412],[97.6,10495],[97.6,10578],[97.6,10661],[97.6,10745],[97.6,10828],[97.6,10911],[97.6,10995],[97.6,11078],[97.6,11161],[97.6,11245],[97.6,11328],[97.6,11411],[97.6,11494],[97.6,11578],[97.6,11661],[97.6,11744],[97.6,11828],[97.6,11911],[97.6,11994],[97.6,12078],[97.6,12161],[97.6,12244],[97.6,12327],[97.6,12411],[97.6,12494],[97.6,12577],[97.6,12661],[97.6,12744],[97.6,12827],[97.6,12911],[97.6,12994],[97.6,13077],[97.6,13160],[97.6,13244],[97.6,13327],[97.6,13410],[97.6,13494],[97.6,13577],[97.6,13660],[97.6,13743],[97.6,13827],[97.6,13910]]",1,0,728.9264,732.1082,96.45833333,1.9177,"[{""rating"":96.45833333333333,""responseTime"":1.9177000000477165}]",space,2.633,,732.1082,Not at all,0,732.1102,,,[],,0,3,3,3,1,audio/Narrative7Situation3.wav,audio/Narrative8Situation3.wav,audio/Narrative5Situation3.wav,audio/Narrative6Situation3.wav,8,4,3,5,,,,,,,,,,,,,,,,,,,,,,,,,,,,,,,,,,,,,,,
,,,,,,65c23bf7904812607642bad6,2024-05-13_10h33.19.781,group3.1-3.2-social-tom,2023.2.2,Win32,60.24096386,65c5074098b851296ff0b7ed,6642329cd3daf0304e371b9e,,,,,,,,,,,,,,,,,,,,,,,,,,,,,732.1104,2,audio/Narrative5Situation4.wav,733.1244,,733.1244,753.5157,"[[96,2498],[96,2582],[96,2665],[96,2748],[96,2831],[96,2915],[96,2998],[96,3081],[96,3165],[95.8,3248],[95.7,3331],[95.7,3415],[95.7,3498],[95.7,3581],[99.7,3665],[100,3748],[53.3,4664],[45.9,4914],[46.7,4998],[24.1,5081],[8.2,5164],[8,5247],[3.3,5331],[0.2,5497],[3.9,5581],[4.7,5664],[4.7,5747],[4.7,5830],[4.7,5913],[4.7,5997],[4.7,6080],[8.4,6164],[5.1,6247],[5.1,6330],[5.1,6413],[5.1,6497],[5.1,6580],[6.7,6663],[6.1,6747],[5.9,6830],[5.9,6913],[5.9,6997],[5.9,7080],[5.9,7163],[5.9,7246],[5.9,7330],[5.9,7413],[5.9,7496],[5.9,7579],[5.9,7663],[5.9,7746],[5.9,7829],[5.9,7913],[5.9,7996],[6,8079],[5.8,8163],[4.1,8246],[2.7,8329],[4.2,8413],[7.4,8496],[23.8,8579],[63,9246],[62.7,9329],[61.8,9412],[61.1,9495],[61.1,9579],[47.9,9662],[45.2,9745],[45.8,9829],[47.7,9912],[55.4,9995],[59.6,10079],[65,10162],[67.2,10245],[70.2,10329],[72.4,10412],[75.1,10495],[76.3,10578],[76.6,10661],[76.6,10745],[76.6,10828],[76.6,10911],[76.6,10995],[73.5,11078],[46.3,11162],[41.6,11245],[41.6,11328],[41.6,11411],[50.4,11495],[54.9,11578],[55.1,11661],[55.1,11744],[53.9,11828],[49.7,11911],[48,11994],[48,12078],[48,12161],[48,12244],[48,12327],[47.8,12411],[48,12494],[48.4,12578],[51,12661],[51.6,12744],[51.6,12827],[51.6,12911],[51.6,12994],[51.6,13077],[51.6,13160],[51.6,13244],[51.6,13327],[51.6,13410],[51.6,13494],[51.6,13577],[51.6,13660],[51.6,13743],[52.3,13827],[54.6,13912],[55.7,13994],[56.5,14077],[57.9,14160],[59.2,14243],[60,14327],[61.4,14410],[62.9,14493],[63,14576],[63,14660],[63,14743],[63,14826],[74.3,14910],[78.5,14993],[82.4,15076],[85.3,15160],[89.2,15243],[90.9,15326],[93.6,15410],[96.1,15493],[98.3,15576],[99.5,15659],[99.6,15743],[99.6,15826],[99.6,15909],[99.6,15992],[99.6,16076],[99.6,16159],[99.6,16242],[99.6,16326],[99.6,16409],[99.6,16492],[99.6,16576],[99.6,16659],[99.6,16742],[99.6,16825],[99.6,16909],[99.6,16992],[99.6,17075],[99.6,17159],[99.6,17242],[99.6,17325],[99.6,17409],[99.6,17492],[99.6,17575],[99.6,17659],[99.6,17742],[99.6,17825],[99.6,17908],[99.6,17992],[100,18075],[100,18158],[100,18242],[100,18325],[100,18408],[100,18491],[100,18575],[100,18658],[100,18741],[100,18825],[100,18908],[100,18991],[100,19075],[100,19158],[100,19241],[100,19324],[100,19408],[100,19491],[100,19575],[100,19658],[100,19741],[100,19824],[100,19908],[100,19991],[100,20074],[100,20157],[100,20241],[100,20324]]",1,0,753.5159,754.6819,98.85416667,0.6594,"[{""rating"":98.85416666666667,""responseTime"":0.6594000000953884}]",space,0.6152,,754.682,Definitely yes,100,754.6862,,,[],,0,4,4,4,1,audio/Narrative7Situation4.wav,audio/Narrative8Situation4.wav,audio/Narrative5Situation4.wav,audio/Narrative6Situation4.wav,3,3,1,2,,,,,,,,,,,,,,,,,,,,,,,,,,,,,,,,,,,,,,,
,,,,,,65c23bf7904812607642bad6,2024-05-13_10h33.19.781,group3.1-3.2-social-tom,2023.2.2,Win32,60.24096386,65c5074098b851296ff0b7ed,6642329cd3daf0304e371b9e,,,,,,,,,,,,,,,,,,,,,,,,,,,,,754.6866,2,audio/Narrative5Situation5.wav,759.6963,,759.6964,775.1232,"[[44.7,1332],[45.3,1416],[46.4,1499],[46.9,1582],[47.2,1665],[2.7,2165],[0.5,2249],[0.6,2582],[0.7,2665],[1.6,2748],[2.5,2832],[3.2,2915],[3.3,2998],[3.3,3081],[4.7,3165],[5.9,3248],[6.4,3331],[6.4,3415],[6.4,3498],[6.4,3581],[6.4,3664],[6,3748],[3.6,3831],[3.6,3915],[3.4,3998],[3.4,4081],[3.4,4164],[1.5,4248],[0.7,4331],[0.4,4414],[0.4,4497],[0.4,4581],[0.4,4664],[0.4,4747],[0.4,4831],[0.4,4914],[0.4,4997],[0.4,5080],[0.4,5164],[0.4,5247],[0.4,5330],[0.4,5414],[0.4,5497],[0.4,5580],[0.4,5664],[0.4,5747],[0.4,5830],[0.4,5913],[0.4,5997],[0.4,6080],[0.4,6163],[0.4,6247],[0.4,6330],[0.4,6413],[0.4,6497],[0.4,6580],[0.4,6663],[0.4,6746],[0.4,6830],[0.4,6913],[0.4,6996],[0.4,7080],[0.4,7163],[0.4,7246],[0.4,7329],[0.4,7413],[0.4,7496],[0.4,7579],[0.4,7663],[0.4,7746],[0.4,7829],[1,7913],[15.5,7996],[27,8079],[33.3,8163],[38.6,8246],[45.9,8330],[50.3,8413],[50.3,8496],[50.3,8579],[50.3,8662],[50.3,8746],[50.3,8829],[50.3,8912],[50.3,8995],[50.3,9079],[50.3,9162],[50.3,9245],[50.3,9329],[50.3,9412],[50.3,9495],[50.3,9579],[50.3,9662],[50.3,9745],[50.3,9829],[50.3,9912],[50.3,9995],[50.3,10079],[50.3,10162],[50.3,10245],[50.3,10328],[50.3,10412],[50.3,10495],[50.3,10578],[50.3,10662],[50.3,10745],[50.3,10828],[50.3,10911],[50.3,10995],[50.3,11078],[50.3,11161],[50.3,11245],[50.3,11328],[50.3,11411],[50.3,11495],[50.3,11578],[50.3,11661],[50.3,11744],[50.3,11828],[50.3,11911],[50.3,11994],[50.3,12077],[50.3,12161],[50.3,12244],[50.3,12327],[50.3,12411],[50.3,12494],[50.3,12577],[50.3,12661],[50.3,12744],[50.3,12827],[50.3,12910],[50.3,12994],[50.3,13077],[50.3,13160],[50.3,13244],[50.3,13327],[50.3,13410],[50.3,13494],[50.3,13577],[50.3,13660],[50.3,13744],[50.3,13827],[49.6,13915],[47.3,13994],[47.3,14077],[47.3,14160],[47.3,14243],[47.3,14326],[47.8,14410],[49.5,14493],[49.6,14576],[49.6,14660],[49.6,14743],[49.6,14826],[49.6,14910],[49.6,14993],[49.6,15076],[49.6,15160],[49.6,15243],[49.6,15326],[49.6,15409]]",1,0,775.1233,776.2726,49.58333333,0.2787,"[{""rating"":49.583333333333336,""responseTime"":0.27870000004770645}]",space,0.6002,,776.2728,Partially,50,776.276,,,[],,0,5,5,5,1,audio/Narrative7Situation5.wav,audio/Narrative8Situation5.wav,audio/Narrative5Situation5.wav,audio/Narrative6Situation5.wav,5,2,5,2,,,,,,,,,,,,,,,,,,,,,,,,,,,,,,,,,,,,,,,
,,,,,,65c23bf7904812607642bad6,2024-05-13_10h33.19.781,group3.1-3.2-social-tom,2023.2.2,Win32,60.24096386,65c5074098b851296ff0b7ed,6642329cd3daf0304e371b9e,,,,,,,,,,,,,,,,,,,,,,,,,,,,,776.2763,2,audio/Narrative5Situation6.wav,779.288,,779.288,784.969,"[[99.9,4914],[100,4997],[100,5081],[99,5164],[99,5247],[99,5331],[99,5414],[99,5497],[99,5580],[99,5664]]",1,0,784.9691,787.3345,99.79166667,1.0659,"[{""rating"":99.79166666666667,""responseTime"":1.0659000000953256}]",space,1.813,,787.3346,Partially,50,787.3364,,,[],,0,6,6,6,1,audio/Narrative7Situation6.wav,audio/Narrative8Situation6.wav,audio/Narrative5Situation6.wav,audio/Narrative6Situation6.wav,3,2,3,2,,,,,,,,,,,,,,,,,,,,,,,,,,,,,,,,,,,,,,,
,,,,,,65c23bf7904812607642bad6,2024-05-13_10h33.19.781,group3.1-3.2-social-tom,2023.2.2,Win32,60.24096386,65c5074098b851296ff0b7ed,6642329cd3daf0304e371b9e,,,,,,,,,,,,,,,,,,,,,,,,,,,,,787.3368,2,audio/Narrative5Situation7.wav,791.3495,,791.3495,812.3906,"[[999,11],[999,83],[999,166],[999,249],[999,332],[999,416],[999,499],[999,583],[999,666],[999,749],[999,833],[999,916],[999,999],[999,1082],[999,1166],[999,1249],[999,1332],[999,1415],[999,1499],[999,1582],[999,1665],[999,1749],[999,1832],[999,1915],[999,1999],[999,2082],[999,2165],[999,2249],[999,2332],[999,2415],[999,2498],[999,2582],[999,2665],[999,2748],[999,2832],[999,2915],[999,2998],[999,3082],[999,3165],[999,3248],[999,3331],[999,3415],[999,3498],[999,3581],[999,3665],[999,3748],[999,3831],[999,3914],[999,3998],[53.9,4081],[56.4,4165],[57,4248],[56.5,4331],[56.4,4414],[54.4,4498],[54.2,4581],[55.2,4664],[56.6,4748],[56.8,4831],[59.3,4914],[65.3,4998],[67.6,5081],[69.3,5164],[70.4,5248],[76.5,5331],[80.3,5414],[85.6,5497],[93,5581],[97.5,5664],[100,5747],[100,5830],[100,5914],[100,5997],[99.7,6080],[99.7,6163],[99.7,6247],[99.7,6330],[99.7,6413],[99.7,6497],[100,6580],[99.3,6663],[98.9,6747],[97.2,6830],[96.7,6913],[96.7,6996],[96.7,7080],[96.7,7163],[96.7,7247],[96.4,7330],[96.4,7413],[96.4,7496],[96.4,7580],[96.4,7663],[96.4,7746],[96.4,7830],[96.4,7913],[95.3,7996],[95.3,8079],[95.3,8163],[95.7,8246],[95.7,8329],[95.7,8413],[94.7,8496],[80.7,8579],[74.5,8663],[58.9,8746],[55.9,8829],[55.9,8912],[53.8,8996],[46.9,9079],[46.4,9162],[46.5,9246],[48,9329],[49.5,9412],[49.6,9495],[49.8,9579],[50.1,9662],[50.1,9745],[50.1,9829],[50.1,9912],[50.1,9995],[50.1,10078],[50.1,10162],[50.1,10245],[50.1,10328],[50.1,10412],[50.1,10495],[50.1,10578],[50.1,10662],[50.1,10745],[50.1,10828],[50.1,10911],[50.1,10995],[50.1,11078],[50.1,11161],[50.1,11245],[50.1,11328],[50.1,11411],[50.1,11495],[50.1,11578],[50.1,11661],[50.1,11745],[50.1,11828],[50.1,11911],[50.1,11994],[50.1,12078],[50.1,12161],[50.1,12244],[50.1,12328],[50.1,12411],[50.1,12494],[50.1,12577],[50.1,12661],[50.1,12744],[50.1,12827],[50.1,12911],[50.1,12994],[50.1,13077],[50.1,13160],[50.1,13244],[50.1,13327],[50.1,13410],[50.1,13494],[50.1,13577],[50.1,13661],[50.1,13744],[50.1,13827],[50.1,13910],[50.1,13994],[50.1,14077],[50.1,14160],[50.1,14244],[50.1,14327],[50.1,14410],[50.1,14493],[50.1,14576],[50.1,14660],[50.1,14743],[47.7,15077],[48.1,15160],[48.1,15243],[49.6,15327],[52,15410],[52,15493],[52,15576],[52,15660],[52.8,15743],[52.8,15826],[52.8,15909],[52.4,15993],[51.7,16076],[49.7,16160],[49.7,16242],[49.7,16326],[49.7,16409],[49.7,16492],[49.7,16576],[49.7,16659],[50,16742],[50.1,16826],[47,16909],[37.8,16993],[30.4,17076],[23.9,17159],[20.2,17242],[17.8,17326],[14.4,17409],[13.2,17492],[12,17576],[10.9,17659],[5.9,17742],[5.4,17825],[4.3,17909],[3.5,17992],[3.5,18075],[3.1,18159],[2.9,18242],[2.4,18325],[0.5,18408],[0.5,18491],[0.5,18575],[0.5,18658],[0.5,18741],[0.5,18825],[0.5,18908],[0.5,18991],[0.5,19075],[0.5,19158],[0.5,19241],[0.5,19325],[0.5,19408],[0.5,19491],[0.5,19574],[0.5,19658],[0.5,19741],[0.5,19824],[0.5,19908],[0.5,19991],[0.5,20074],[0.5,20158],[0.5,20241],[0.5,20324],[0.5,20407],[0.5,20491],[0.5,20574],[0.5,20657],[0.5,20741],[0.5,20824],[0.5,20907],[0.5,20990]]",1,0,812.3907,815.306,49.79166667,1.8557,"[{""rating"":49.791666666666664,""responseTime"":1.855700000047591}]",space,2.3631,,815.306,Not at all,0,815.3094,,,[],,0,7,7,7,1,audio/Narrative7Situation7.wav,audio/Narrative8Situation7.wav,audio/Narrative5Situation7.wav,audio/Narrative6Situation7.wav,5,3,4,5,,,,,,,,,,,,,,,,,,,,,,,,,,,,,,,,,,,,,,,
,,,,,,65c23bf7904812607642bad6,2024-05-13_10h33.19.781,group3.1-3.2-social-tom,2023.2.2,Win32,60.24096386,65c5074098b851296ff0b7ed,6642329cd3daf0304e371b9e,,,,,,,,,,,,,,,,,,,,,,,,,,,,,815.3097,2,audio/Narrative5Situation8.wav,818.3214,,818.3214,827.1512,"[[55.4,1665],[50.7,2082],[50.8,2165],[51.5,2248],[56.1,2332],[57.6,2415],[57.6,2498],[57.6,2582],[64.8,2665],[71.8,2748],[71.8,2832],[71.8,2915],[70.4,2998],[59.4,3082],[55.8,3165],[52.9,3248],[45,3332],[35.2,3415],[32.9,3498],[22.7,3581],[15.3,3665],[6.3,3748],[5.9,3831],[6.7,3915],[4.2,3998],[4.2,4081],[4.2,4164],[4.2,4248],[4.2,4331],[4.2,4414],[4.2,4497],[4.2,4581],[4.2,4664],[4.2,4747],[4.2,4831],[4.2,4914],[4.2,4997],[4.2,5081],[4.2,5164],[4.2,5247],[4.2,5330],[4.2,5414],[4.2,5497],[4.2,5580],[4.2,5663],[4.2,5747],[4.2,5830],[4.2,5913],[4.2,5997],[4.2,6080],[4.2,6163],[4.2,6247],[4.2,6330],[4.2,6413],[4.2,6497],[4.2,6580],[4.2,6663],[4.2,6746],[4.2,6830],[4.2,6913],[4.2,6996],[4.2,7080],[4.2,7163],[4.2,7246],[4.2,7330],[4.2,7413],[4.2,7496],[4.2,7579],[4.2,7663],[4.2,7746],[4.2,7829],[4.2,7913],[4.2,7996],[4.2,8079],[4.2,8163],[4.2,8246],[4.2,8329],[4.2,8412],[4.2,8496],[4.2,8579],[4.2,8662],[4.2,8746],[6.5,8829]]",1,0,827.1513,830.9993,20.72916667,2.8946,"[{""rating"":10.416666666666668,""responseTime"":2.3952999999522717},{""rating"":20.729166666666664,""responseTime"":2.8945999999045853}]",space,3.296,,830.9993,Partially,50,831.0026,,,[],,0,8,8,8,1,audio/Narrative7Situation8.wav,audio/Narrative8Situation8.wav,audio/Narrative5Situation8.wav,audio/Narrative6Situation8.wav,2,3,3,5,,,,,,,,,,,,,,,,,,,,,,,,,,,,,,,,,,,,,,,
,,,,,,65c23bf7904812607642bad6,2024-05-13_10h33.19.781,group3.1-3.2-social-tom,2023.2.2,Win32,60.24096386,65c5074098b851296ff0b7ed,6642329cd3daf0304e371b9e,,,,,,,,,,,,,,,,,,,,,,,,,,,,,831.0028,2,audio/Narrative5Situation9.wav,834.0147,,834.0147,873.565,"[[25.9,6497],[28.1,6580],[32.2,6663],[37.2,6747],[60.7,6830],[66.5,6913],[66.5,6997],[65,7080],[56.6,7163],[51.4,7247],[53.6,7330],[62.7,7413],[70.2,7496],[78.1,7580],[80.8,7663],[84.3,7746],[89.1,7830],[91,7913],[93.1,7996],[94.6,8080],[98.2,8163],[99.8,8246],[99.8,8329],[99.8,8413],[99.8,8496],[99.8,8579],[99.8,8662],[99.8,8746],[99.8,8829],[99.8,8912],[99.8,8995],[99.8,9079],[99.8,9162],[99.8,9245],[99.8,9329],[99.8,9412],[99.8,9495],[99.8,9579],[99.8,9662],[99.8,9745],[99.8,9829],[99.8,9912],[99.8,9995],[99.8,10078],[99.8,10162],[99.8,10245],[99.8,10328],[99.8,10412],[99.8,10495],[99.8,10578],[99.8,10662],[99.8,10745],[99.8,10828],[99.8,10911],[99.8,10995],[99.8,11078],[99.8,11161],[99.8,11245],[99.8,11328],[99.8,11411],[99.8,11494],[99.8,11578],[99.8,11661],[99.8,11744],[99.8,11828],[99.8,11911],[99.8,11994],[99.8,12077],[99.8,12161],[99.8,12244],[99.8,12327],[99.8,12411],[99.8,12494],[99.8,12577],[99.8,12661],[99.8,12744],[99.8,12827],[99.8,12911],[98.1,12994],[97.6,13078],[96.9,13161],[96,13244],[94.2,13327],[94.1,13410],[94,13494],[92.6,13577],[91.3,13661],[89.6,13744],[89.6,13827],[89.6,13910],[90.5,13994],[94.2,14077],[96.3,14160],[96.6,14243],[96.8,14327],[96.9,14410],[97.5,14493],[98.4,14576],[99.2,14660],[99.3,14743],[99.3,14826],[99.3,14910],[99.3,14993],[99.3,15076],[99.3,15159],[95.3,15243],[82,15328],[71.5,15410],[59.1,15493],[55.3,15576],[52.8,15660],[48.6,15743],[42.8,15826],[41.8,15909],[41.8,15993],[41.9,16076],[44.9,16159],[49.9,16243],[61.3,16326],[70.9,16409],[78.4,16493],[81.1,16576],[87.2,16659],[95,16743],[99.3,16826],[100,16909],[100,16992],[100,17075],[100,17160],[100,17242],[100,17325],[100,17409],[100,17492],[100,17575],[100,17658],[100,17742],[100,17825],[100,17908],[100,17992],[100,18075],[100,18158],[100,18242],[100,18325],[100,18408],[100,18491],[100,18575],[100,18658],[100,18741],[100,18825],[100,18908],[100,18991],[100,19075],[100,19158],[100,19241],[100,19325],[100,19408],[100,19491],[100,19574],[100,19658],[100,19741],[100,19824],[100,19908],[100,19991],[100,20074],[100,20157],[100,20241],[100,20324],[100,20407],[100,20491],[100,20574],[100,20657],[100,20740],[100,20824],[100,20907],[100,20990],[100,21074],[100,21157],[100,21240],[100,21324],[100,21407],[100,21490],[100,21574],[100,21657],[100,21740],[100,21823],[100,21907],[100,21990],[100,22073],[100,22157],[100,22240],[100,22323],[100,22407],[100,22490],[100,22573],[100,22656],[100,22740],[100,22823],[100,22906],[100,22990],[100,23073],[100,23156],[100,23239],[100,23323],[100,23406],[100,23489],[100,23573],[100,23656],[100,23739],[100,23823],[100,23906],[100,23989],[100,24072],[100,24156],[100,24239],[100,24322],[100,24406],[100,24489],[100,24572],[100,24656],[100,24739],[100,24822],[100,24905],[100,24989],[100,25072],[100,25155],[100,25239],[100,25322],[100,25405],[100,25489],[100,25572],[100,25655],[100,25739],[100,25822],[100,25905],[100,25988],[100,26072],[100,26155],[100,26238],[100,26321],[100,26405],[100,26488],[100,26571],[100,26655],[100,26738],[100,26821],[85.3,27988],[86.8,28071],[94.1,28154],[96.8,28238],[98.8,28321],[99.8,28404],[99.8,28487],[99.8,28571],[99.8,28654],[99.8,28737],[99.8,28820],[99.8,28904],[99.8,28987],[99.8,29070],[99.8,29154],[99.8,29237],[99.8,29320],[99.8,29403],[99.8,29487],[99.8,29570],[99.8,29653],[99.8,29737],[99.8,29820],[99.8,29903],[99.8,29987],[99.9,30070],[99.9,30153],[99.9,30236],[99.9,30320],[99.9,30403],[99.9,30486],[100,30570],[100,30653],[100,30736],[100,30820],[100,30903],[100,30986],[100,31070],[100,31153],[100,31236],[100,31319],[100,31403],[100,31486],[100,31569],[100,31653],[100,31736],[100,31819],[100,31903],[100,31986],[100,32069],[100,32152],[100,32236],[100,32319],[100,32402],[100,32485],[100,32569],[100,32652],[100,32735],[100,32819],[100,32902],[100,32985],[100,33069],[100,33152],[100,33235],[100,33319],[100,33402],[100,33485],[100,33568],[100,33652],[100,33735],[100,33818],[100,33902],[100,33985],[100,34068],[100,34152],[100,34235],[100,34318],[100,34401],[100,34485],[100,34568],[100,34651],[100,34735],[100,34818],[100,34901],[100,34985],[100,35401],[100,35485],[100,35568],[100,35651],[100,35734],[92.7,35822],[85.6,35901],[85.6,35984],[73.3,36067],[70.2,36151],[74.5,36234],[94.5,36317],[97.8,36401],[95.1,36484],[47.9,36567],[40,36651],[39.2,36734],[38,36817],[41.9,36901],[48.1,36984],[48.6,37067],[52.5,37150],[51.3,37234],[44.2,37317],[21.4,37400],[15.7,37484],[13.6,37567],[13.6,37650],[15.1,37734],[19.2,37817],[19.6,37900],[20,37983],[20,38067],[20,38150],[20.3,38233],[23.3,38317],[25,38400],[25.6,38483],[27,38566],[28.8,38650],[29.1,38733],[29.1,38816],[29.1,38899],[29.1,38983],[29.1,39066],[29.1,39149],[29.1,39233],[29.1,39316],[29.1,39399],[29.1,39483]]",1,0,873.5652,875.5473,78.54166667,1.1066,"[{""rating"":78.54166666666667,""responseTime"":1.106599999904688}]",space,1.4314,,875.5474,Partially,50,875.5496,,,[],,0,9,9,9,1,audio/Narrative7Situation9.wav,audio/Narrative8Situation9.wav,audio/Narrative5Situation9.wav,audio/Narrative6Situation9.wav,2,3,3,4,,,,,,,,,,,,,,,,,,,,,,,,,,,,,,,,,,,,,,,
,,,,,,65c23bf7904812607642bad6,2024-05-13_10h33.19.781,group3.1-3.2-social-tom,2023.2.2,Win32,60.24096386,65c5074098b851296ff0b7ed,6642329cd3daf0304e371b9e,,,,,,,,,,,,,,,,,,,,,,,,,,,,,875.5501,2,audio/Narrative6Situation1.wav,877.5629,,877.563,904.1518,"[[999,0],[999,82],[999,166],[999,249],[999,332],[999,416],[999,499],[999,582],[999,666],[999,749],[999,832],[999,916],[999,999],[999,1082],[999,1166],[999,1249],[999,1332],[999,1415],[999,1499],[999,1582],[999,1665],[999,1748],[999,1832],[999,1915],[999,1998],[999,2082],[999,2165],[999,2248],[999,2331],[999,2415],[999,2498],[999,2581],[999,2665],[999,2748],[999,2831],[999,2915],[999,2998],[999,3081],[999,3165],[999,3248],[999,3331],[999,3414],[999,3498],[999,3581],[999,3664],[999,3748],[999,3831],[999,3914],[999,3998],[999,4081],[999,4164],[999,4247],[999,4331],[999,4414],[999,4497],[999,4581],[999,4664],[999,4747],[999,4831],[999,4914],[999,4997],[83.8,5747],[84.9,5831],[85.6,5914],[86.9,5997],[87,6080],[87.9,6163],[88.9,6247],[88.9,6330],[88.9,6413],[88.3,6497],[87.6,6580],[87.5,6663],[87.5,6746],[87.5,6830],[87.5,6913],[87.5,6996],[87.5,7080],[87.5,7163],[87.5,7246],[87.5,7329],[87.5,7413],[87.5,7496],[87.5,7579],[87.5,7663],[87.5,7746],[87.5,7829],[87.5,7913],[87.5,7996],[87.5,8079],[87.5,8162],[87.5,8246],[87.5,8329],[87.4,8412],[87.4,8496],[87.4,8579],[87.4,8662],[87.4,8746],[87.3,8829],[87.1,8912],[87.1,8995],[87.1,9079],[87.3,9162],[87.3,9245],[87.3,9329],[87.3,9412],[87.3,9495],[87.3,9578],[87.3,9663],[87.5,9745],[87.5,9828],[87.5,9912],[87.5,9995],[87.5,10078],[87.5,10162],[87.5,10245],[87.5,10328],[87.5,10411],[87.2,10495],[87.2,10578],[87.2,10661],[86.8,10745],[8.2,10912],[8.2,10995],[11.8,11078],[21.8,11578],[20.9,11661],[20.9,11744],[20.9,11828],[20.9,11911],[22.5,11994],[22.5,12077],[21.8,12161],[20.1,12244],[20,12327],[20,12411],[20,12494],[3.1,12577],[0.3,12994],[0.3,13077],[0.3,13160],[0.3,13243],[1.1,13327],[4.1,13410],[5.8,13494],[7.7,13577],[9.2,13660],[9.2,13743],[10.9,13827],[11,13910],[11,13993],[11,14077],[11,14160],[11,14243],[11,14326],[12,14410],[12.7,14493],[13.4,14576],[14.7,14660],[14.8,14743],[14.8,14826],[14.8,14910],[14.8,14993],[14.8,15076],[14.8,15159],[14.8,15243],[14.9,15326],[14.9,15409],[14.9,15493],[14.9,15576],[14.2,15659],[13.8,15742],[13.8,15826],[13.8,15909],[13.8,15992],[13.2,16076],[13.1,16159],[13.1,16242],[12.3,16326],[12,16409],[11.9,16492],[11.9,16575],[11.9,16659],[10.8,16742],[9.6,16826],[8,16909],[6.8,16992],[6.8,17076],[6.8,17158],[6.3,17242],[5.6,17326],[5.6,17408],[5.5,17492],[5.2,17575],[5.1,17658],[5.1,17742],[5.1,17825],[5.1,17908],[5.1,17992],[5.1,18075],[5.1,18158],[5.1,18241],[5.1,18325],[5.1,18408],[5.1,18491],[5.1,18575],[5.1,18658],[5.1,18741],[5.1,18825],[5.1,18908],[5.1,18991],[5.1,19074],[5.1,19158],[5.1,19241],[5.1,19324],[5.1,19408],[5.1,19491],[5.1,19574],[5.1,19658],[5.1,19741],[4.4,19824],[4.3,19907],[4.3,19991],[4.3,20074],[4.3,20157],[4.3,20241],[4.3,20324],[4.3,20407],[5,20491],[6.5,20574],[7.5,20657],[11.7,20741],[25.4,20824],[33.1,20907],[39.7,20990],[47.3,21074],[50.1,21157],[52.3,21240],[54.2,21324],[55.6,21407],[58.3,21490],[64.3,21574],[70.9,21657],[76.4,21740],[80.3,21823],[83.3,21907],[84.4,21990],[85.2,22073],[85.8,22157],[86.4,22240],[87.1,22323],[88.9,22407],[90.5,22490],[92.9,22573],[94,22656],[94.1,22740],[94.1,22823],[90.9,22906],[86.3,22989],[82.9,23073],[77.5,23156],[66.9,23240],[63.4,23323],[59.4,23406],[61,23489],[70.3,23573],[73.8,23656],[77.1,23739],[78.6,23823],[80.3,23906],[85.9,23989],[89.7,24073],[93.5,24156],[96.1,24239],[97.3,24323],[97.7,24405],[97.7,24489],[97.7,24572],[97.8,24655],[97.8,24739],[97.8,24822],[97.8,24905],[97.8,24989],[97.8,25072],[97.8,25155],[97.8,25238],[97.8,25322],[97.8,25405],[97.8,25488],[97.8,25572],[97.8,25655],[97.8,25738],[97.8,25822],[97.8,25905],[97.8,25988],[97.8,26071],[97.8,26155],[97.8,26238],[97.8,26321],[97.8,26405],[94.1,26488],[89.6,26571]]",1,0,904.1519,906.1841,63.75,1.1586,"[{""rating"":63.74999999999999,""responseTime"":1.1585999999045953}]",space,1.4802,,906.1842,Not at all,0,906.1876,,,[],,0,10,10,10,1,audio/Narrative8Situation1.wav,audio/Narrative7Situation1.wav,audio/Narrative6Situation1.wav,audio/Narrative5Situation1.wav,5,2,2,5,,,,,,,,,,,,,,,,,,,,,,,,,,,,,,,,,,,,,,,
,,,,,,65c23bf7904812607642bad6,2024-05-13_10h33.19.781,group3.1-3.2-social-tom,2023.2.2,Win32,60.24096386,65c5074098b851296ff0b7ed,6642329cd3daf0304e371b9e,,,,,,,,,,,,,,,,,,,,,,,,,,,,,906.1879,2,audio/Narrative6Situation2.wav,909.1992,,909.1992,937.7037,"[[999,0],[999,83],[999,166],[999,249],[999,333],[999,416],[999,499],[999,582],[999,666],[999,749],[999,833],[999,916],[999,999],[999,1082],[999,1166],[999,1249],[999,1332],[999,1415],[999,1499],[999,1582],[999,1665],[999,1749],[999,1832],[999,1915],[999,1999],[999,2082],[999,2165],[999,2248],[999,2332],[999,2415],[999,2498],[999,2582],[999,2665],[999,2748],[999,2832],[999,2915],[999,2998],[999,3081],[999,3165],[999,3248],[999,3331],[999,3415],[999,3498],[999,3581],[999,3665],[999,3748],[999,3831],[999,3915],[999,3998],[999,4081],[999,4164],[999,4248],[999,4331],[999,4414],[999,4497],[999,4581],[999,4664],[999,4747],[999,4831],[999,4914],[999,4997],[999,5081],[999,5164],[999,5247],[999,5331],[999,5414],[999,5497],[999,5580],[999,5664],[999,5747],[999,5830],[999,5914],[999,5997],[999,6080],[999,6163],[999,6247],[999,6330],[999,6413],[999,6497],[999,6580],[50.5,7330],[50.2,7413],[49.3,7496],[49.7,7580],[49.9,7663],[49.9,7746],[49.9,7829],[49.9,7913],[62.8,7996],[68.1,8079],[73.2,8163],[78.8,8246],[83,8329],[86.4,8413],[91,8496],[94.1,8579],[98.2,8662],[98.3,8746],[98.3,8829],[98.1,8913],[97.8,8996],[97.6,9079],[97.6,9162],[97.6,9245],[97.6,9329],[97.6,9412],[97.6,9495],[97.6,9579],[97.6,9662],[97.6,9745],[97.6,9829],[97.6,9912],[97.6,9995],[97.6,10078],[97.6,10162],[97.6,10245],[97.6,10328],[97.6,10412],[97.6,10495],[97.6,10578],[97.6,10662],[97.6,10745],[97.6,10828],[97.6,10911],[97.6,10995],[97.6,11078],[97.6,11161],[97.6,11245],[97.6,11328],[97.6,11411],[97.6,11495],[97.6,11578],[97.6,11661],[97.6,11744],[97.6,11828],[97.6,11911],[97.6,11994],[97.6,12078],[97.6,12161],[97.6,12244],[97.6,12328],[97.6,12411],[97.6,12494],[97.6,12577],[97.6,12661],[97.6,12744],[97.6,12827],[97.6,12911],[97.6,12994],[97.6,13077],[97.6,13160],[97.6,13244],[97.6,13327],[97.6,13410],[97.6,13494],[97.6,13577],[97.6,13660],[97.6,13743],[97.6,13827],[97.6,13910],[97.6,13993],[97.6,14077],[97.6,14160],[97.6,14243],[97.6,14327],[97.6,14410],[97.6,14493],[97.6,14577],[97.6,14660],[97.6,14743],[97.6,14826],[97.6,14910],[97.6,14993],[97.6,15076],[97.6,15160],[97.6,15243],[97.6,15326],[97.6,15409],[97.6,15493],[97.6,15576],[97.6,15659],[97.6,15743],[97.6,15826],[97.6,15909],[97.6,15993],[97.6,16076],[97.6,16159],[97.6,16242],[97.6,16326],[97.6,16409],[97.6,16492],[97.6,16576],[97.6,16659],[97.6,16742],[97.6,16826],[97.6,16909],[97.6,16992],[97.6,17075],[97.6,17159],[97.6,17242],[97.6,17325],[97.6,17409],[97.6,17492],[97.6,17575],[97.6,17659],[97.6,17742],[97.6,17825],[97.6,17908],[97.6,17992],[97.6,18077],[97.6,18158],[97.6,18242],[97.6,18325],[97.6,18408],[97.6,18492],[97.6,18575],[97.6,18658],[97.6,18741],[97.6,18825],[97.6,18908],[97.6,18991],[97.3,19075],[97.3,19158],[97.3,19242],[98.6,19325],[98.8,19408],[98.8,19491],[98.8,19574],[97.3,19658],[97.3,19741],[97.4,19825],[97.8,19908],[97.8,19991],[97.8,20074],[97.8,20157],[97.8,20241],[97.8,20324],[97.8,20408],[97.8,20491],[97.8,20574],[97.8,20657],[97.8,20741],[97.8,20824],[97.8,20907],[97.8,20991],[97.8,21074],[97.8,21157],[97.8,21240],[97.8,21324],[97.8,21407],[97.8,21490],[97.8,21574],[97.8,21657],[97.8,21740],[97.8,21823],[97.8,21907],[97.8,21990],[97.8,22073],[97.8,22157],[97.8,22240],[97.8,22323],[97.8,22407],[97.8,22490],[97.8,22573],[97.8,22656],[97.8,22740],[97.8,22823],[97.8,22906],[97.8,22990],[97.8,23073],[97.8,23156],[97.8,23240],[97.8,23323],[97.8,23406],[97.8,23489],[97.8,23573],[97.8,23656],[97.8,23739],[97.8,23823],[97.8,23906],[97.8,23989],[97.8,24072],[97.8,24156],[97.8,24239],[97.8,24322],[97.8,24406],[97.8,24489],[97.8,24572],[97.8,24656],[97.8,24739],[97.8,24822],[97.8,24906],[97.8,24991],[97.8,25072],[97.8,25155],[97.8,25239],[97.8,25322],[97.8,25405],[97.8,25489],[97.8,25572],[97.8,25655],[97.8,25738],[97.8,25822],[97.8,25905],[97.8,25988],[97.8,26072],[97.8,26155],[97.8,26238],[97.8,26321],[97.8,26405],[97.8,26488],[97.8,26571],[97.8,26655],[97.8,26738],[97.8,26821],[97.8,26905],[97.8,26988],[97.8,27071],[97.8,27154],[97.8,27238],[97.8,27321],[97.8,27404],[97.8,27488],[97.8,27571],[97.8,27654],[97.8,27738],[97.8,27821],[97.8,27904],[97.8,27988],[97.8,28071],[97.8,28154],[97.8,28237],[97.8,28321],[97.8,28404],[97.8,28487]]",1,0,937.7039,939.2533,97.8125,0.5064,"[{""rating"":97.8125,""responseTime"":0.5063999998568534}]",space,1.0036,,939.2534,Not at all,0,939.2559,,,[],,0,11,11,11,1,audio/Narrative8Situation2.wav,audio/Narrative7Situation2.wav,audio/Narrative6Situation2.wav,audio/Narrative5Situation2.wav,3,3,3,3,,,,,,,,,,,,,,,,,,,,,,,,,,,,,,,,,,,,,,,
,,,,,,65c23bf7904812607642bad6,2024-05-13_10h33.19.781,group3.1-3.2-social-tom,2023.2.2,Win32,60.24096386,65c5074098b851296ff0b7ed,6642329cd3daf0304e371b9e,,,,,,,,,,,,,,,,,,,,,,,,,,,,,939.2563,2,audio/Narrative6Situation3.wav,944.2678,,944.2678,956.8956,"[[63.1,916],[66.8,1333],[66.9,1415],[53,1499],[48.3,1582],[43.6,1666],[39.4,1749],[39,1832],[38.2,1916],[22.5,1999],[1,2332],[1.3,2415],[2.2,2498],[3.1,2581],[3.1,2665],[3.1,2748],[3.1,2831],[3.1,2915],[3.1,2998],[3.1,3081],[3.1,3165],[3.1,3248],[3.1,3331],[3.1,3414],[3.1,3498],[3.1,3581],[3.1,3664],[3.1,3748],[3.1,3831],[3.2,3914],[4.1,3998],[4.3,4081],[4.5,4164],[4.6,4247],[4.8,4331],[4.9,4414],[5,4498],[5,4581],[5.1,4664],[5.1,4747],[5.1,4830],[5.1,4914],[5.1,4997],[5.1,5080],[5.1,5164],[5.1,5247],[5.1,5330],[5.1,5414],[5.1,5497],[5.1,5580],[5.1,5663],[5.3,5747],[5.3,5830],[5.4,5913],[5.7,5997],[5.9,6080],[7,6163],[8.2,6247],[13.9,6330],[27.6,6413],[43.8,6497],[61.6,6580],[81.5,6663],[96.3,6747],[100,6830],[100,6913],[100,6996],[100,7080],[100,7163],[100,7246],[100,7329],[100,7413],[100,7496],[100,7580],[100,7663],[100,7746],[100,7829],[100,7913],[100,7996],[100,8079],[100,8162],[100,8246],[100,8329],[100,8413],[100,8496],[100,8579],[100,8662],[100,8745],[100,8829],[100,8912],[100,8995],[100,9079],[100,9162],[100,9245],[100,9329],[100,9412],[100,9495],[100,9579],[100,9662],[100,9745],[100,9828],[100,9912],[100,9995],[100,10078],[100,10162],[100,10245],[100,10328],[100,10411],[100,10495],[100,10578],[100,10661],[100,10745],[100,10828],[100,10911],[100,10995],[100,11078],[100,11161],[100,11244],[100,11328],[100,11411],[100,11494],[100,11578],[100,11661],[100,11744],[100,11827],[100,11911],[100,11994],[100,12077],[100,12161],[100,12244],[100,12327],[100,12411],[100,12494],[100,12577]]",1,0,956.8958,958.4117,68.22916667,1.1679,"[{""rating"":68.22916666666666,""responseTime"":1.1678999998568997}]",space,0.9697,,958.4117,Definitely yes,100,958.4151,,,[],,0,12,12,12,1,audio/Narrative8Situation3.wav,audio/Narrative7Situation3.wav,audio/Narrative6Situation3.wav,audio/Narrative5Situation3.wav,4,8,5,3,,,,,,,,,,,,,,,,,,,,,,,,,,,,,,,,,,,,,,,
,,,,,,65c23bf7904812607642bad6,2024-05-13_10h33.19.781,group3.1-3.2-social-tom,2023.2.2,Win32,60.24096386,65c5074098b851296ff0b7ed,6642329cd3daf0304e371b9e,,,,,,,,,,,,,,,,,,,,,,,,,,,,,958.4154,2,audio/Narrative6Situation4.wav,960.4276,,960.4277,973.0556,"[[64.7,83],[64.8,166],[64.8,249],[65,333],[65.3,416],[66,499],[69.1,582],[80.9,666],[35,1166],[5.9,1249],[0.2,1749],[3.6,1832],[4.2,1915],[4.2,1998],[4.2,2082],[4.2,2165],[3.5,2249],[1.9,2332],[1,2415],[0.8,2498],[0.8,2581],[0.8,2665],[0.8,2748],[0.8,2831],[0.8,2915],[0.8,2998],[0.8,3081],[0.8,3164],[0.8,3248],[0.8,3331],[0.8,3414],[0.7,3498],[3.8,3581],[4.2,3664],[5,3748],[5.5,3831],[5.7,3914],[6.1,3998],[8,4081],[10.2,4165],[10.7,4248],[10.7,4331],[10.7,4414],[10.7,4497],[10.7,4581],[10.7,4664],[10.7,4747],[10.7,4831],[10.7,4914],[10.7,4997],[10.7,5080],[12.3,5164],[13.5,5247],[17.3,5330],[23,5414],[25.2,5497],[25.3,5580],[28.1,5664],[28.9,5747],[28.9,5830],[28.9,5913],[28.9,5996],[28.9,6080],[28.9,6163],[28.9,6246],[28.9,6330],[31.7,6413],[37.6,6497],[38.9,6580],[39.7,6663],[40,6746],[40.5,6829],[40.5,6913],[40.5,6996],[40.5,7079],[40.5,7163],[40.3,7246],[31.9,7330],[16.8,7413],[6.6,7496],[2.7,7579],[2.7,7663],[2.7,7746],[2.7,7829],[2.7,7912],[2.7,7996],[2.7,8079],[2.7,8162],[2.7,8246],[2.7,8329],[2.7,8412],[2.7,8495],[2.7,8579],[2.7,8662],[2.7,8745],[2.7,8829],[2.7,8912],[2.7,8995],[2.9,9079],[6,9162],[6.5,9245],[89,9828],[92.1,9912],[93,9995],[94.2,10078],[95.8,10162],[97.3,10245],[97.7,10328],[98.2,10412],[98.3,10495],[98.8,10578],[98.9,10661],[98.9,10745],[98.9,10828],[98.9,10913],[98.9,10994],[98.9,11078],[98.9,11161],[98.9,11244],[98.9,11328],[98.9,11411],[98.9,11494],[98.9,11578],[98.9,11661],[98.9,11744],[98.9,11827],[98.9,11911],[98.9,11994],[98.9,12077],[98.9,12161],[98.9,12244],[98.9,12327],[98.9,12411],[98.9,12494],[98.9,12577]]",1,0,973.056,975.5542,81.14583333,2.0384,"[{""rating"":69.6875,""responseTime"":1.1388000001908267},{""rating"":81.14583333333334,""responseTime"":2.0384000000954074}]",space,1.9537,,975.5543,Not at all,0,975.5573,,,[],,0,13,13,13,1,audio/Narrative8Situation4.wav,audio/Narrative7Situation4.wav,audio/Narrative6Situation4.wav,audio/Narrative5Situation4.wav,3,3,2,1,,,,,,,,,,,,,,,,,,,,,,,,,,,,,,,,,,,,,,,
,,,,,,65c23bf7904812607642bad6,2024-05-13_10h33.19.781,group3.1-3.2-social-tom,2023.2.2,Win32,60.24096386,65c5074098b851296ff0b7ed,6642329cd3daf0304e371b9e,,,,,,,,,,,,,,,,,,,,,,,,,,,,,975.5576,2,audio/Narrative6Situation5.wav,977.5701,,977.5701,985.5333,"[[82.2,1249],[85.2,1332],[82.4,1416],[82.4,1499],[82.7,1582],[81,1666],[79.1,1749],[80.1,1832],[85.9,1916],[89.5,1999],[93.4,2082],[95.3,2165],[99.1,2249],[99.9,2332],[100,2415],[100,2499],[100,2582],[100,2665],[100,2748],[100,2831],[100,2915],[100,2998],[100,3081],[100,3165],[100,3248],[100,3331],[100,3415],[100,3498],[100,3581],[100,3664],[100,3748],[100,3831],[100,3914],[100,3998],[100,4081],[100,4164],[100,4248],[100,4331],[100,4414],[100,4498],[100,4581],[100,4664],[100,4747],[100,4831],[100,4914],[100,4997],[100,5081],[100,5164],[100,5247],[100,5330],[100,5414],[100,5497],[100,5580],[100,5664],[100,5747],[100,5830],[100,5913],[100,5997],[100,6080],[100,6163],[100,6247],[100,6330],[100,6413],[100,6497],[100,6580],[100,6663],[100,6747],[100,6830],[100,6913],[100,6997],[100,7080],[100,7163],[100,7246],[100,7330],[100,7413],[100,7496],[100,7580],[100,7663],[100,7746],[100,7829],[100,7913]]",1,0,985.5335,987.7658,97.91666667,1.5714,"[{""rating"":97.91666666666667,""responseTime"":1.5713999998570216}]",space,1.6925,,987.7658,Partially,50,987.7694,,,[],,0,14,14,14,1,audio/Narrative8Situation5.wav,audio/Narrative7Situation5.wav,audio/Narrative6Situation5.wav,audio/Narrative5Situation5.wav,2,5,2,5,,,,,,,,,,,,,,,,,,,,,,,,,,,,,,,,,,,,,,,
,,,,,,65c23bf7904812607642bad6,2024-05-13_10h33.19.781,group3.1-3.2-social-tom,2023.2.2,Win32,60.24096386,65c5074098b851296ff0b7ed,6642329cd3daf0304e371b9e,,,,,,,,,,,,,,,,,,,,,,,,,,,,,987.7697,2,audio/Narrative6Situation6.wav,989.7815,,989.7816,1000.8602,"[[94.8,1832],[91.6,1915],[91.6,1999],[91.6,2082],[90.8,2165],[43.4,2332],[36,2415],[35.7,2499],[41.1,2665],[52,2998],[100,3498],[100,3748],[100,3831],[100,3914],[99.4,3998],[97.9,4081],[98,4165],[97.8,4248],[97.8,4331],[97.9,4414],[97.9,4498],[97.9,4581],[97.9,4664],[97.9,4747],[97.9,4831],[97.9,4914],[97.9,4997],[97.9,5081],[97.9,5164],[97.9,5247],[97.9,5330],[97.9,5414],[97.9,5497],[97.9,5580],[97.9,5664],[97.9,5747],[97.9,5830],[97.9,5913],[97.9,5997],[97.9,6080],[97.9,6163],[97.9,6247],[97.9,6330],[97.9,6413],[97.9,6497],[97.9,6580],[97.9,6663],[97.9,6747],[97.9,6830],[97.9,6913],[97.9,6996],[97.9,7080],[97.9,7163],[97.9,7246],[97.9,7330],[97.9,7413],[97.9,7496],[97.9,7580],[97.9,7663],[97.9,7746],[97.9,7830],[97.9,7913],[97.9,7996],[97.9,8079],[97.9,8163],[97.9,8246],[97.9,8329],[97.9,8412],[97.9,8496],[97.9,8579],[97.9,8662],[97.9,8746],[97.9,8829],[97.9,8912],[97.9,8995],[97.9,9079],[97.9,9162],[97.9,9246],[97.9,9329],[97.9,9412],[97.9,9495],[97.9,9579],[97.9,9662],[97.9,9745],[97.9,9829],[97.9,9912],[97.9,9995],[97.9,10078],[97.9,10162],[97.9,10245],[97.9,10329],[97.9,10412],[97.9,10495],[97.9,10578],[97.9,10662],[97.9,10745],[97.9,10828],[97.9,10911],[97.9,10995],[97.9,11078]]",1,0,1000.8603,1002.6261,97.91666667,0.6467,"[{""rating"":97.91666666666667,""responseTime"":0.6467000000476446}]",space,1.2137,,1002.6262,Not at all,0,1002.6296,,,[],,0,15,15,15,1,audio/Narrative8Situation6.wav,audio/Narrative7Situation6.wav,audio/Narrative6Situation6.wav,audio/Narrative5Situation6.wav,2,3,2,3,,,,,,,,,,,,,,,,,,,,,,,,,,,,,,,,,,,,,,,
