exp_question,consent.started,consent.stopped,consentResponse.keys,consentResponse.rt,consentResponse.duration,participantID,date,expName,psychopyVersion,OS,frameRate,STUDY_ID,SESSION_ID,opening1.started,opening1.stopped,keyEndingOpening1.keys,keyEndingOpening1.rt,keyEndingOpening1.duration,volumeAdjust.started,volumeAdjust.stopped,endingAdjust.keys,endingAdjust.rt,endingAdjust.duration,opening2.started,opening2.stopped,keyEndingOpening.keys,keyEndingOpening.rt,keyEndingOpening.duration,mouse.x,mouse.y,mouse.leftButton,mouse.midButton,mouse.rightButton,mouse.time,instructionLoop.thisRepN,instructionLoop.thisTrialN,instructionLoop.thisN,instructionLoop.thisIndex,instructionLoop.ran,readyForAudio.started,readyForAudio.stopped,fixation.started,run,audio_played,fixation.stopped,endPractice.keys,audioPre.started,audioPre.stopped,continuousResponses_audio,continuousSlider.response,continuousSlider.rt,intRating.started,intRating.stopped,intQuestionSlider.response,intQuestionSlider.rt,intQuestionSlider.history,confirmResponse.keys,confirmResponse.rt,confirmResponse.duration,catchQuestion.started,catch_label,catch_value,catchQuestion.stopped,catchQuestionSlider.response,catchQuestionSlider.rt,catchQuestionSlider.history,confirmResponse_2.keys,audioRunLoop.thisRepN,audioRunLoop.thisTrialN,audioRunLoop.thisN,audioRunLoop.thisIndex,audioRunLoop.ran,conditions1_1,conditions2_1,conditions1_2,conditions2_2,dur1_1,dur2_1,dur1_2,dur2_2,endPractice.rt,endPractice.duration,confirmResponse_2.rt,confirmResponse_2.duration,runIntervalBreak.started,runIntervalBreak.stopped,endingBreakKey.keys,endingBreakKey.rt,endingBreakKey.duration,connection.started,connection.stopped,connectionEnding.keys,connectionEnding.rt,connectionEnding.duration,readyForText.started,readyForText.stopped,textPre.started,run_dup,textPre.stopped,continuousResponses_text,textRunLoop.thisRepN,textRunLoop.thisTrialN,textRunLoop.thisN,textRunLoop.thisIndex,textRunLoop.ran,text1_1,text1_2,text2_1,text2_2,runBreakText.started,runBreakText.stopped,endingBreakKey_2.keys,endingBreakKey_2.rt,endingBreakKey_2.duration,ending.started,ending.stopped,endingEnding.keys,endingEnding.rt,endingEnding.duration
social,0,13.702,y,13.346,,65d863e56337aa59292ccd66,2024-05-13_13h51.31.807,group3.1-3.2-social-tom,2023.2.2,Win32,60.0240096,65c5074098b851296ff0b7ed,66424ff6e276cfb3c503739f,,,,,,,,,,,,,,,,,,,,,,,,,,,,,,,,,,,,,,,,,,,,,,,,,,,,,,,,,,,,,,,,,,,,,,,,,,,,,,,,,,,,,,,,,,,,,,,,,,,,,,,,,,
,,,,,,65d863e56337aa59292ccd66,2024-05-13_13h51.31.807,group3.1-3.2-social-tom,2023.2.2,Win32,60.0240096,65c5074098b851296ff0b7ed,66424ff6e276cfb3c503739f,13.702,21.107,space,6.62,,,,,,,,,,,,,,,,,,,,,,,,,,,,,,,,,,,,,,,,,,,,,,,,,,,,,,,,,,,,,,,,,,,,,,,,,,,,,,,,,,,,,,,,,,,,,,,,,,,,,,
,,,,,,65d863e56337aa59292ccd66,2024-05-13_13h51.31.807,group3.1-3.2-social-tom,2023.2.2,Win32,60.0240096,65c5074098b851296ff0b7ed,66424ff6e276cfb3c503739f,,,,,,21.107,34.908,space,13.469,,,,,,,,,,,,,,,,,,,,,,,,,,,,,,,,,,,,,,,,,,,,,,,,,,,,,,,,,,,,,,,,,,,,,,,,,,,,,,,,,,,,,,,,,,,,,,,,,
,,,,,,65d863e56337aa59292ccd66,2024-05-13_13h51.31.807,group3.1-3.2-social-tom,2023.2.2,Win32,60.0240096,65c5074098b851296ff0b7ed,66424ff6e276cfb3c503739f,,,,,,,,,,,34.97,46.223,space,11.158,,[],[],[],[],[],[],0,0,0,0,1,,,,,,,,,,,,,,,,,,,,,,,,,,,,,,,,,,,,,,,,,,,,,,,,,,,,,,,,,,,,,,,,,,,,,,,,,,,,,,,,
,,,,,,65d863e56337aa59292ccd66,2024-05-13_13h51.31.807,group3.1-3.2-social-tom,2023.2.2,Win32,60.0240096,65c5074098b851296ff0b7ed,66424ff6e276cfb3c503739f,,,,,,,,,,,46.226,81.293,space,34.521,,[],[],[],[],[],[],1,0,1,0,1,,,,,,,,,,,,,,,,,,,,,,,,,,,,,,,,,,,,,,,,,,,,,,,,,,,,,,,,,,,,,,,,,,,,,,,,,,,,,,,,
,,,,,,65d863e56337aa59292ccd66,2024-05-13_13h51.31.807,group3.1-3.2-social-tom,2023.2.2,Win32,60.0240096,65c5074098b851296ff0b7ed,66424ff6e276cfb3c503739f,,,,,,,,,,,81.306,100.447,space,18.832,,[],[],[],[],[],[],2,0,2,0,1,,,,,,,,,,,,,,,,,,,,,,,,,,,,,,,,,,,,,,,,,,,,,,,,,,,,,,,,,,,,,,,,,,,,,,,,,,,,,,,,
,,,,,,65d863e56337aa59292ccd66,2024-05-13_13h51.31.807,group3.1-3.2-social-tom,2023.2.2,Win32,60.0240096,65c5074098b851296ff0b7ed,66424ff6e276cfb3c503739f,,,,,,,,,,,100.46,127.645,space,27.079,,[],[],[],[],[],[],3,0,3,0,1,,,,,,,,,,,,,,,,,,,,,,,,,,,,,,,,,,,,,,,,,,,,,,,,,,,,,,,,,,,,,,,,,,,,,,,,,,,,,,,,
,,,,,,65d863e56337aa59292ccd66,2024-05-13_13h51.31.807,group3.1-3.2-social-tom,2023.2.2,Win32,60.0240096,65c5074098b851296ff0b7ed,66424ff6e276cfb3c503739f,,,,,,,,,,,127.658,139.213,space,11.474,,[],[],[],[],[],[],4,0,4,0,1,,,,,,,,,,,,,,,,,,,,,,,,,,,,,,,,,,,,,,,,,,,,,,,,,,,,,,,,,,,,,,,,,,,,,,,,,,,,,,,,
,,,,,,65d863e56337aa59292ccd66,2024-05-13_13h51.31.807,group3.1-3.2-social-tom,2023.2.2,Win32,60.0240096,65c5074098b851296ff0b7ed,66424ff6e276cfb3c503739f,,,,,,,,,,,,,,,,,,,,,,,,,,,139.225,141.804,141.946,1,audio/Narrative13Situation2.wav,143.957,,143.96,173.738,"[[999,6],[999,230],[999,313],[999,401],[999,586],[999,673],[999,765],[999,853],[999,944],[999,1042],[999,1164],[999,1235],[999,1318],[999,1411],[36.5,1550],[37.1,1658],[37.1,1737],[37.1,1820],[36.8,1905],[36.8,1987],[36.7,2075],[36.7,2163],[36.7,2241],[37.3,2325],[42.2,2435],[43.6,2528],[43.9,2612],[44.9,2697],[46.3,2777],[46.9,2865],[49.1,2949],[75.2,3663],[73.3,3747],[66.4,3838],[65.4,3913],[69,4006],[71.8,4087],[72.4,4171],[73,4253],[74.6,4337],[79.9,4425],[83.5,4549],[83.5,4633],[83.7,4723],[83.8,4818],[84,4905],[84.1,4985],[84.1,5076],[84.1,5171],[84.1,5252],[84.1,5336],[84.1,5420],[84.1,5512],[84.1,5598],[84.1,5670],[84.1,5754],[84.1,5838],[84.1,5923],[84.1,6006],[84.1,6092],[84.1,6174],[84.1,6257],[84.1,6341],[76.6,6495],[59.4,6651],[59.2,6738],[59.2,6817],[59.2,6900],[59.2,6985],[58.1,7092],[57.8,7188],[52.5,7330],[51,7425],[50,7520],[49.9,7613],[49.9,7697],[49.9,7781],[49.9,7864],[49.9,7948],[49.9,8031],[49.9,8115],[49.9,8199],[49.9,8282],[49.9,8367],[49.9,8449],[49.9,8533],[49.9,8617],[49.9,8700],[49.9,8784],[49.9,8867],[49.9,8951],[49.9,9044],[49.9,9193],[49.9,9293],[49.9,9387],[49.9,9495],[49.9,9570],[49.9,9655],[49.9,9739],[49.9,9828],[65.4,9962],[78.7,10072],[86,10188],[89.7,10296],[95.4,10402],[97.1,10509],[97.1,10592],[97.1,10675],[97.1,10760],[97.3,10852],[98.6,11060],[98.9,11159],[98.9,11266],[98.9,11389],[98.9,11515],[98.9,11605],[98.9,11705],[98.9,11792],[98.9,11876],[98.9,11957],[98.9,12038],[98.9,12116],[98.9,12200],[98.9,12282],[98.9,12370],[98.9,12461],[98.9,12552],[98.9,12640],[98.9,12718],[98.9,12802],[98.9,12902],[98.9,12986],[98.9,13073],[98.9,13161],[98.9,13244],[98.9,13328],[98.9,13413],[98.9,13510],[98.9,13592],[98.9,13671],[98.9,13757],[98.9,13840],[98.9,13924],[98.9,14008],[98.9,14091],[98.9,14175],[98.9,14259],[98.9,14342],[98.9,14425],[98.9,14512],[98.9,14599],[98.9,14683],[98.9,14772],[98.9,14851],[98.9,14929],[98.9,15016],[98.9,15096],[98.9,15180],[98.9,15262],[98.9,15347],[98.9,15437],[98.9,15520],[98.9,15609],[98.9,15698],[98.9,15787],[98.9,15865],[98.9,15949],[98.9,16033],[98.9,16116],[98.9,16200],[98.9,16283],[98.9,16369],[98.9,16478],[98.9,16575],[98.9,16656],[98.9,16741],[98.9,16819],[98.9,16902],[98.9,16988],[98.9,17070],[98.9,17161],[98.9,17238],[98.9,17322],[98.9,17405],[98.9,17494],[98.9,17573],[98.9,17657],[98.9,17740],[98.9,17824],[98.9,17907],[98.9,18002],[98.9,18084],[98.9,18170],[98.9,18256],[98.9,18337],[98.9,18426],[98.9,18510],[98.9,18593],[98.9,18677],[98.9,18764],[98.9,18852],[98.9,18942],[98.9,19033],[98.9,19122],[98.9,19204],[98.9,19288],[98.9,19381],[98.9,19476],[98.9,19556],[98.9,19639],[98.9,19723],[98.9,19800],[98.9,19883],[98.9,19966],[98.9,20050],[98.9,20134],[98.9,20218],[98.9,20305],[98.9,20385],[98.9,20479],[98.9,20558],[98.9,20635],[98.9,20721],[98.9,20810],[98.9,20887],[98.9,20971],[98.9,21056],[98.9,21139],[98.9,21223],[98.9,21306],[98.9,21390],[98.9,21473],[98.9,21557],[98.9,21644],[98.9,21724],[98.9,21812],[98.9,21893],[98.9,21976],[98.9,22060],[98.9,22143],[98.9,22232],[86.9,22359],[86.6,22452],[86.6,22534],[86.6,22621],[86.6,22703],[86.6,22788],[86.6,22871],[86.6,22953],[84.4,23061],[80.5,23208],[78.8,23366],[78.8,23503],[78.8,23592],[78.8,23692],[78.8,23829],[78.8,23944],[78.8,24026],[78.8,24101],[78.8,24185],[72.4,24300],[68.7,24387],[68.7,24470],[68.7,24554],[68.7,24637],[68.7,24721],[68.7,24805],[68.7,24891],[68.7,24973],[68.7,25056],[68.7,25139],[68.7,25229],[68.7,25306],[68.7,25391],[68.7,25479],[68.7,25557],[68.7,25640],[69.9,25735],[83.7,25865],[89.8,25997],[90.4,26091],[90.4,26176],[90.4,26264],[90.4,26345],[90.4,26431],[94.2,26554],[94.2,26629],[95.5,26720],[96.1,26802],[96.3,26882],[96.6,26965],[97.4,27056],[98.2,27137],[98.3,27215],[98.3,27299],[98.3,27383],[98.3,27466],[98.3,27550],[98.3,27634],[98.3,27717],[98.6,27801],[98.9,27884],[98.9,27968],[98.9,28055],[98.9,28135],[98.9,28232],[98.9,28320],[98.9,28403],[98.9,28514],[98.9,28596],[98.9,28687],[98.9,28771],[98.9,28865],[98.9,28945],[98.9,29037],[98.9,29125],[98.9,29209],[98.9,29290],[98.9,29373],[98.9,29459],[98.9,29546],[98.9,29626],[98.9,29715]]",1,0,173.74,185.898,99.78038067,6.339,"[{""rating"":99.78038067349927,""responseTime"":6.338999999999999}]",space,11.622,,185.899,Definitely yes,100,185.952,,,[],,0,0,0,0,1,audio/Narrative13Situation2.wav,audio/Narrative13Situation2.wav,audio/Narrative13Situation2.wav,audio/Narrative13Situation2.wav,2,2,2,2,,,,,,,,,,,,,,,,,,,,,,,,,,,,,,,,,,,,,,,
,,,,,,65d863e56337aa59292ccd66,2024-05-13_13h51.31.807,group3.1-3.2-social-tom,2023.2.2,Win32,60.0240096,65c5074098b851296ff0b7ed,66424ff6e276cfb3c503739f,,,,,,,,,,,,,,,,,,,,,,,,,,,,,185.954,1,audio/Narrative7Situation1.wav,187.92,space,187.921,243.83,"[[81.9,949],[80.9,1042],[78.3,1131],[78.3,1215],[78.3,1298],[78.1,1389],[77.1,1514],[72.3,1612],[65.4,1724],[58.9,1844],[54.1,1942],[50.9,2051],[49.9,2141],[49.9,2219],[49.9,2303],[49.7,2390],[49.7,2471],[49.7,2554],[49.7,2639],[49.7,2721],[49.7,2806],[49.7,2895],[49.7,2978],[49.7,3073],[49.7,3157],[49.7,3240],[49.7,3326],[49.7,3409],[49.7,3498],[49.7,3575],[49.7,3661],[49.7,3744],[49.7,3831],[49.7,3911],[49.7,3994],[49.7,4078],[49.7,4161],[49.7,4246],[49.7,4329],[49.7,4413],[49.7,4521],[49.7,4601],[49.7,4687],[49.7,4768],[49.7,4856],[49.7,4934],[49.7,5018],[49.7,5100],[49.7,5188],[49.7,5282],[49.7,5381],[49.7,5491],[49.7,5584],[49.7,5674],[49.7,5752],[49.7,5840],[49.7,5919],[49.7,6002],[49.7,6087],[49.7,6170],[49.7,6256],[49.7,6339],[49.7,6421],[49.7,6518],[49.7,6599],[49.7,6681],[41.2,6784],[19.1,6931],[17.2,7024],[15.3,7125],[12.5,7222],[9,7325],[8.7,7409],[2.9,7558],[2.1,7644],[2.1,7727],[2.1,7811],[2.1,7894],[2.1,7979],[2.1,8062],[2.1,8145],[2.1,8230],[2.1,8316],[2.1,8397],[2.1,8485],[2.1,8564],[2.1,8650],[2.1,8732],[2.1,8815],[2.1,8901],[2.1,8983],[2,9070],[1.8,9156],[1.8,9244],[1.7,9322],[1.7,9408],[1.7,9502],[1.7,9585],[1.4,9675],[1.2,9752],[1.2,9836],[1.2,9919],[1.2,10010],[1.2,10104],[1.2,10188],[1.2,10272],[1.2,10363],[1.2,10441],[1.2,10540],[1.2,10623],[1.2,10707],[1.2,10798],[1.2,10875],[1.2,10958],[1.2,11045],[1.2,11138],[1.2,11221],[1.2,11306],[1.2,11395],[1.2,11488],[1.2,11567],[1.2,11645],[1.2,11729],[1.2,11811],[1.2,11896],[1.2,11979],[1.2,12064],[1.2,12155],[1.2,12238],[1.2,12320],[1.8,12409],[4.6,12559],[4.9,12655],[4.9,12732],[4.9,12816],[4.9,12900],[4.9,12986],[4.9,13067],[4.9,13157],[4.9,13235],[4.9,13329],[4.9,13407],[4.9,13495],[4.9,13576],[4.9,13661],[4.9,13745],[4.9,13827],[4.9,13912],[4.9,13994],[4.9,14079],[4.9,14156],[4.9,14239],[4.9,14322],[4.9,14406],[4.9,14490],[4.9,14574],[4.9,14658],[4.9,14741],[4.9,14828],[4.9,14908],[4.9,14992],[4.9,15079],[4.9,15159],[5.5,15265],[5.5,15351],[5.5,15432],[5.5,15516],[5.5,15602],[5.5,15679],[5.6,15769],[5.8,15849],[5.8,15938],[5.8,16018],[5.8,16101],[5.8,16180],[5.8,16265],[5.8,16361],[5.8,16447],[5.8,16540],[5.8,16633],[5.8,16716],[5.8,16800],[5.8,16901],[5.8,16985],[5.8,17069],[5.8,17151],[5.8,17235],[6.4,17340],[6.4,17421],[6.8,17512],[7,17589],[7,17670],[7,17754],[7,17839],[7,17921],[7,18006],[7,18096],[7,18174],[7,18256],[7,18340],[7,18426],[7,18537],[7,18615],[7,18691],[7,18775],[7,18859],[7,18943],[7,19027],[7,19111],[7,19194],[7,19283],[7,19361],[7,19445],[7,19530],[7,19616],[7,19697],[7,19780],[7,19863],[7,19953],[7,20039],[7,20115],[7,20199],[7,20281],[7,20366],[7,20449],[7,20533],[7,20617],[11.1,20710],[11.3,20792],[13.5,20884],[16.2,20994],[16.9,21075],[17.2,21158],[19.4,21258],[19.4,21341],[19.4,21420],[19.4,21504],[19.4,21589],[19.4,21671],[19.4,21756],[19.4,21839],[19.4,21923],[19.4,22006],[19.4,22097],[19.4,22174],[19.4,22257],[19.4,22341],[19.4,22426],[19.4,22520],[19.4,22601],[19.4,22689],[19.4,22776],[19.4,22861],[19.4,22952],[19.4,23036],[19.4,23119],[19.4,23202],[19.4,23286],[19.4,23379],[19.4,23462],[19.4,23546],[19.4,23631],[19.4,23714],[19.4,23803],[19.4,23881],[19.4,23965],[19.4,24048],[19.4,24138],[19.4,24216],[19.4,24300],[19.4,24384],[19.4,24471],[19.4,24557],[19.4,24641],[19.4,24726],[19.4,24808],[19.4,24889],[19.4,24970],[19.4,25052],[19.4,25140],[19.4,25220],[19.4,25305],[19.4,25388],[19.4,25480],[19.4,25562],[19.4,25646],[19.4,25728],[19.4,25813],[19.4,25896],[19.4,25995],[19.4,26073],[19.4,26164],[19.4,26241],[19.4,26343],[19.4,26425],[19.4,26520],[19.4,26599],[19.4,26693],[19.4,26777],[19.4,26861],[19.4,26952],[19.4,27030],[19.4,27119],[19.4,27204],[19.4,27281],[19.4,27367],[19.4,27456],[19.4,27548],[19.4,27645],[19.4,27724],[19.4,27805],[19.4,27888],[19.4,27973],[19.4,28056],[19.4,28140],[19.4,28224],[19.4,28308],[19.4,28385],[19.4,28471],[19.4,28561],[19.4,28643],[19.4,28726],[19.4,28809],[19.4,28894],[19.4,28976],[19.4,29065],[19.4,29146],[19.4,29228],[19.4,29317],[19.4,29396],[19.4,29483],[19.4,29567],[19.4,29639],[19.4,29723],[19.4,29807],[19.4,29890],[19.4,29980],[19.4,30058],[19.4,30149],[19.4,30226],[19.4,30309],[19.4,30395],[19.4,30482],[19.4,30566],[19.4,30655],[19.4,30736],[19.4,30818],[19.4,30895],[19.4,30980],[19.4,31062],[19.4,31151],[19.4,31229],[19.4,31323],[19.4,31399],[19.4,31488],[19.4,31577],[19.4,31661],[19.4,31740],[19.4,31876],[19.4,31966],[19.4,32058],[19.4,32151],[19.4,32248],[19.4,32352],[19.4,32439],[19.4,32542],[19.4,32619],[19.4,32702],[19.4,32789],[19.4,32871],[19.4,32954],[19.4,33038],[19.4,33125],[19.4,33205],[19.4,33288],[19.4,33375],[19.4,33542],[19.4,33623],[19.4,33718],[19.4,33800],[19.4,33875],[19.4,33959],[19.4,34043],[19.4,34131],[19.4,34209],[19.4,34293],[19.4,34388],[19.4,34472],[19.4,34568],[19.4,34656],[19.4,34744],[19.4,34830],[19.4,34913],[19.4,34997],[19.4,35080],[19.4,35164],[19.4,35254],[19.4,35340],[19.4,35435],[19.4,35516],[19.4,35599],[19.4,35682],[19.4,35766],[19.4,35851],[19.4,35934],[21.4,36079],[23.8,36190],[23.9,36274],[25.8,36391],[27,36532],[27.2,36626],[27.2,36704],[27.2,36788],[27.2,36875],[27.2,36955],[27.2,37039],[28,37139],[30.8,37248],[30.8,37330],[30.8,37416],[30.8,37502],[30.8,37591],[30.8,37681],[30.8,37759],[30.8,37842],[30.8,37926],[30.8,38009],[30.8,38096],[30.8,38178],[30.8,38264],[30.8,38353],[30.8,38435],[30.8,38536],[30.8,38622],[30.8,38721],[30.8,38806],[30.8,38887],[30.8,38974],[30.8,39062],[30.8,39140],[30.8,39233],[30.8,39329],[30.8,39420],[30.8,39509],[30.8,39589],[30.8,39685],[30.8,39767],[30.8,39853],[30.8,39937],[30.8,40019],[30.8,40104],[30.8,40187],[30.8,40271],[30.8,40353],[30.8,40440],[30.8,40534],[30.8,40620],[30.8,40704],[30.8,40789],[30.8,40875],[30.8,40956],[30.8,41039],[30.8,41123],[30.8,41207],[30.8,41291],[30.8,41382],[30.8,41459],[30.8,41548],[30.8,41629],[30.8,41716],[30.8,41803],[30.8,41901],[30.8,41983],[30.8,42060],[30.8,42144],[30.8,42228],[30.8,42313],[30.8,42401],[30.8,42510],[30.8,42603],[41.1,42784],[49.7,42983],[51.6,43135],[51.6,43216],[51.8,43334],[51.6,43418],[51.3,43505],[51.2,43584],[51,43676],[50.9,43752],[50.9,43836],[50.9,43920],[50.9,44002],[50.9,44086],[50.9,44170],[50.9,44262],[50.9,44339],[50.9,44421],[50.9,44514],[50.9,44591],[50.9,44675],[50.9,44755],[50.9,44841],[50.9,44931],[50.9,45007],[50.9,45092],[50.9,45175],[50.9,45259],[50.9,45353],[50.9,45444],[50.9,45553],[50.9,45632],[50.9,45711],[50.9,45793],[50.9,45882],[50.9,45961],[50.9,46045],[50.9,46134],[50.9,46212],[50.9,46296],[50.9,46379],[50.9,46469],[50.9,46598],[50.9,46690],[50.9,46781],[50.9,46865],[50.9,46949],[50.9,47033],[50.9,47116],[50.9,47200],[50.9,47283],[50.9,47367],[50.9,47457],[50.9,47558],[50.9,47635],[50.9,47719],[50.9,47805],[50.9,47887],[50.9,47971],[50.9,48053],[50.9,48149],[50.9,48238],[50.9,48324],[50.9,48406],[50.9,48497],[50.9,48589],[50.9,48673],[50.9,48757],[50.9,48841],[50.9,48925],[50.9,49009],[50.9,49091],[50.9,49175],[50.9,49260],[50.9,49342],[50.9,49433],[50.9,49536],[50.9,49610],[50.9,49693],[50.9,49779],[50.9,49861],[50.9,49947],[50.9,50029],[50.9,50113],[50.9,50197],[50.9,50281],[50.9,50365],[50.9,50449],[50.9,50539],[50.9,50622],[50.9,50707],[50.9,50789],[50.9,50873],[50.9,50959],[50.9,51043],[50.9,51137],[50.9,51226],[50.9,51301],[50.9,51394],[50.9,51510],[50.9,51598],[50.9,51685],[50.9,51762],[50.9,51844],[50.9,51920],[50.9,52004],[50.9,52089],[50.9,52171],[50.9,52255],[50.9,52339],[50.9,52423],[50.9,52510],[50.9,52604],[50.9,52692],[50.9,52774],[50.9,52860],[50.9,52942],[50.9,53026],[50.9,53110],[50.9,53194],[50.9,53276],[50.9,53363],[50.9,53444],[50.9,53550],[50.9,53629],[50.9,53712],[50.9,53795],[50.9,53880],[50.9,53966],[50.9,54046],[50.9,54134],[50.9,54216],[50.9,54305],[50.9,54382],[50.9,54471],[50.9,54550],[50.9,54640],[50.9,54726],[50.9,54801],[50.9,54890],[50.9,54971],[50.9,55050],[50.9,55134],[50.9,55219],[50.9,55303],[50.9,55392],[50.9,55476],[50.9,55562],[50.9,55647],[50.9,55721],[50.9,55805],[50.9,55889]]",1,0,243.834,249.39,50.43923865,3.938,"[{""rating"":50.43923865300146,""responseTime"":3.938000000000045}]",space,5.025,,249.391,Definitely yes,100,249.446,,,[],,0,1,1,1,1,audio/Narrative7Situation1.wav,audio/Narrative8Situation1.wav,audio/Narrative5Situation1.wav,audio/Narrative6Situation1.wav,2,5,5,2,1.923,,,,,,,,,,,,,,,,,,,,,,,,,,,,,,,,,,,,,,
,,,,,,65d863e56337aa59292ccd66,2024-05-13_13h51.31.807,group3.1-3.2-social-tom,2023.2.2,Win32,60.0240096,65c5074098b851296ff0b7ed,66424ff6e276cfb3c503739f,,,,,,,,,,,,,,,,,,,,,,,,,,,,,249.449,1,audio/Narrative7Situation2.wav,252.465,,252.466,259.953,"[[999,2],[999,97],[999,181],[999,265],[999,355],[999,438],[999,572],[999,650],[999,747],[999,840],[999,924],[999,1009],[999,1086],[999,1169],[999,1254],[999,1366],[999,1484],[10.3,1609],[10.3,1688],[9.2,1782],[5.9,1878],[5.8,1961],[5.8,2039],[5.6,2123],[5.6,2207],[5.6,2290],[5.6,2375],[5.8,2464],[5.8,2548],[5.9,2648],[5.9,2726],[5.9,2809],[5.9,2893],[5.9,2980],[5.9,3061],[5.9,3144],[7,3238],[16,3419],[24.8,3561],[25,3641],[25,3714],[26.9,3813],[26.9,3887],[28.3,3987],[28.3,4065],[28.3,4149],[30.5,4240],[31,4324],[31,4400],[34.2,4497],[52,4605],[63.2,4716],[69.6,4875],[78.8,5017],[93.8,5132],[100,5254],[100,5338],[100,5424],[100,5507],[100,5589],[99.9,5687],[99.9,5764],[99.9,5839],[99.9,5923],[99.9,6007],[99.9,6091],[99.9,6174],[99.9,6259],[99.9,6348],[99.9,6427],[99.9,6509],[99.9,6594],[99.9,6691],[99.9,6767],[99.9,6850],[99.9,6967],[99.9,7051],[99.9,7135],[99.9,7236],[99.9,7312],[99.9,7396],[99.9,7484]]",1,0,259.955,263.483,99.4875549,1.982,"[{""rating"":99.48755490483163,""responseTime"":1.981999999999971}]",space,2.961,,263.484,Partially,50,263.516,,,[],,0,2,2,2,1,audio/Narrative7Situation2.wav,audio/Narrative8Situation2.wav,audio/Narrative5Situation2.wav,audio/Narrative6Situation2.wav,3,3,3,3,,,,,,,,,,,,,,,,,,,,,,,,,,,,,,,,,,,,,,,
,,,,,,65d863e56337aa59292ccd66,2024-05-13_13h51.31.807,group3.1-3.2-social-tom,2023.2.2,Win32,60.0240096,65c5074098b851296ff0b7ed,66424ff6e276cfb3c503739f,,,,,,,,,,,,,,,,,,,,,,,,,,,,,263.518,1,audio/Narrative7Situation3.wav,271.531,,271.531,280.773,"[[999,4],[999,105],[999,183],[999,267],[999,351],[999,448],[999,518],[999,601],[999,685],[999,769],[999,853],[999,937],[999,1020],[999,1104],[999,1188],[999,1271],[999,1355],[999,1438],[999,1522],[999,1605],[999,1690],[999,1774],[999,1866],[999,1941],[999,2025],[999,2109],[999,2192],[999,2276],[999,2359],[999,2443],[999,2527],[999,2610],[999,2694],[999,2778],[999,2866],[999,2945],[999,3029],[999,3113],[999,3199],[999,3280],[999,3364],[999,3450],[999,3531],[999,3614],[999,3698],[999,3812],[999,3955],[20.7,4093],[21,4191],[21,4283],[19.4,4378],[15.3,4483],[14.6,4587],[14.4,4675],[13.1,4780],[8,4921],[7.2,5004],[7.2,5089],[7.2,5173],[7.2,5256],[7.2,5339],[7.2,5423],[7.2,5512],[7.2,5616],[7.2,5691],[7.2,5775],[7.2,5869],[7.2,5959],[7.2,6055],[7.2,6134],[7.2,6225],[7.2,6306],[7.2,6393],[7.2,6490],[7.2,6575],[7.2,6662],[7.2,6746],[7.2,6829],[7.2,6923],[7.2,7007],[7.4,7097],[7.4,7180],[7.4,7264],[7.4,7348],[7.4,7431],[7.4,7515],[7.4,7604],[7.4,7689],[7.4,7766],[7.4,7853],[7.4,7933],[7.4,8024],[7.4,8101],[7.4,8185],[7.4,8269],[7.4,8352],[7.4,8436],[7.4,8519],[7.4,8604],[7.4,8687],[7.4,8770],[7.4,8859],[7.4,8938],[7.4,9022],[7.4,9106],[7.4,9191]]",1,0,280.774,285.693,19.10688141,3.557,"[{""rating"":9.44363103953148,""responseTime"":1.16700000000003},{""rating"":19.10688140556369,""responseTime"":3.5570000000000164}]",space,4.378,,285.693,Not at all,0,285.713,,,[],,0,3,3,3,1,audio/Narrative7Situation3.wav,audio/Narrative8Situation3.wav,audio/Narrative5Situation3.wav,audio/Narrative6Situation3.wav,8,4,3,5,,,,,,,,,,,,,,,,,,,,,,,,,,,,,,,,,,,,,,,
,,,,,,65d863e56337aa59292ccd66,2024-05-13_13h51.31.807,group3.1-3.2-social-tom,2023.2.2,Win32,60.0240096,65c5074098b851296ff0b7ed,66424ff6e276cfb3c503739f,,,,,,,,,,,,,,,,,,,,,,,,,,,,,285.716,1,audio/Narrative7Situation4.wav,288.726,,288.726,300.45,"[[19.1,925],[16.2,1048],[14,1164],[13.7,1251],[13.7,1370],[13.7,1460],[13.7,1545],[13.7,1651],[13.7,1737],[13.7,1822],[13.7,1904],[13.7,2004],[13.7,2089],[13.7,2175],[13.7,2257],[13.7,2341],[13.7,2424],[13.7,2512],[13.7,2593],[13.7,2728],[13.7,2822],[13.7,2944],[13.7,3060],[13.7,3158],[13.7,3269],[13.7,3346],[13.7,3428],[13.7,3512],[13.7,3596],[13.7,3680],[13.7,3764],[13.7,3847],[13.7,3930],[13.7,4014],[13.7,4097],[13.7,4181],[13.7,4264],[13.7,4348],[13.7,4432],[13.7,4519],[13.7,4599],[13.7,4685],[13.7,4766],[13.7,4851],[13.7,4937],[13.7,5019],[13.7,5103],[13.7,5188],[13.7,5269],[13.7,5353],[13.7,5436],[13.7,5520],[13.7,5608],[13.7,5695],[13.7,5779],[13.7,5871],[13.7,5950],[13.7,6038],[13.7,6130],[13.8,6228],[18.2,6370],[25.5,6505],[26.6,6603],[34.3,6784],[35.4,6882],[35.4,6959],[35.4,7044],[35.4,7127],[35.5,7217],[42.8,7319],[48.1,7435],[50.9,7552],[61.1,7694],[68,7800],[75.6,7901],[80.5,8007],[81.5,8091],[81.5,8166],[81.5,8248],[81.5,8334],[81.5,8416],[81.5,8509],[81.5,8610],[81.5,8757],[81.5,8842],[81.5,8942],[81.5,9025],[81.5,9110],[81.5,9204],[81.5,9286],[81.5,9371],[81.5,9456],[81.5,9538],[81.5,9622],[81.5,9718],[81.5,9796],[81.5,9889],[81.5,9973],[81.5,10056],[81.5,10146],[81.5,10224],[81.5,10307],[78.4,10415],[77.1,10509],[75.3,10615],[75.3,10700],[75.3,10777],[75.3,10860],[75.3,10944],[75.3,11027],[75.3,11111],[75.3,11195],[75.3,11281],[75.3,11368],[75.3,11447],[75.3,11531],[75.3,11615],[75.3,11719]]",1,0,300.453,308.61,49.26793558,6.285,"[{""rating"":75.62225475841873,""responseTime"":1.30600000000004},{""rating"":49.26793557833089,""responseTime"":6.285000000000025}]",space,7.622,,308.612,Not at all,0,308.631,,,[],,0,4,4,4,1,audio/Narrative7Situation4.wav,audio/Narrative8Situation4.wav,audio/Narrative5Situation4.wav,audio/Narrative6Situation4.wav,3,3,1,2,,,,,,,,,,,,,,,,,,,,,,,,,,,,,,,,,,,,,,,
,,,,,,65d863e56337aa59292ccd66,2024-05-13_13h51.31.807,group3.1-3.2-social-tom,2023.2.2,Win32,60.0240096,65c5074098b851296ff0b7ed,66424ff6e276cfb3c503739f,,,,,,,,,,,,,,,,,,,,,,,,,,,,,308.633,1,audio/Narrative7Situation5.wav,313.651,,313.651,322.137,"[[50,487],[18.4,1246],[18.2,1341],[18.2,1422],[18.2,1504],[18.2,1588],[18.2,1671],[18.2,1767],[18.2,1838],[18.2,1923],[18.2,2006],[18.2,2090],[18.2,2190],[18.2,2274],[18.2,2358],[18.2,2442],[18.2,2525],[18.2,2609],[18.2,2695],[18.2,2776],[18.2,2860],[18.2,2944],[18.2,3028],[18.2,3111],[18.2,3195],[18.2,3279],[18.2,3362],[18.2,3446],[18.2,3529],[18.2,3612],[18.2,3697],[19.8,3797],[21,3891],[22.6,3971],[23.2,4049],[23.2,4132],[23.2,4216],[23.2,4300],[23.2,4386],[23.2,4467],[23.2,4551],[23.2,4634],[23.2,4723],[23.2,4802],[23.2,4885],[23.6,4969],[23.9,5057],[24.2,5145],[24.7,5255],[24.7,5338],[24.7,5424],[26,5527],[26,5611],[26,5689],[26,5789],[26,5877],[26,5963],[26,6041],[27,6132],[27.9,6231],[28.8,6319],[29.4,6410],[29.4,6492],[29.4,6576],[29.4,6660],[29.4,6744],[29.4,6826],[29.4,6912],[29.4,6994],[29.4,7079],[29.4,7166],[29.4,7246],[29.4,7329],[29.4,7413],[29.4,7497],[29.4,7584],[29.4,7664],[29.4,7748],[29.4,7835],[29.4,7915],[29.4,7999],[29.4,8083],[29.4,8167],[29.4,8250],[29.4,8335],[29.4,8418]]",1,0,322.137,326.903,2.415812592,3.393,"[{""rating"":2.415812591508054,""responseTime"":3.393000000000029}]",space,4.229,,326.904,Definitely yes,100,326.957,,,[],,0,5,5,5,1,audio/Narrative7Situation5.wav,audio/Narrative8Situation5.wav,audio/Narrative5Situation5.wav,audio/Narrative6Situation5.wav,5,2,5,2,,,,,,,,,,,,,,,,,,,,,,,,,,,,,,,,,,,,,,,
,,,,,,65d863e56337aa59292ccd66,2024-05-13_13h51.31.807,group3.1-3.2-social-tom,2023.2.2,Win32,60.0240096,65c5074098b851296ff0b7ed,66424ff6e276cfb3c503739f,,,,,,,,,,,,,,,,,,,,,,,,,,,,,326.963,1,audio/Narrative7Situation6.wav,329.971,,329.971,339.967,"[[23.6,115],[23.6,199],[23.6,282],[23.6,366],[21.7,502],[19.4,621],[18.1,723],[17.9,804],[17.9,885],[17.9,969],[17.9,1052],[17.9,1137],[17.9,1221],[17.9,1307],[17.9,1390],[17.9,1479],[17.9,1562],[17.9,1656],[17.9,1740],[17.9,1823],[17.9,1909],[17.9,1997],[21.2,2111],[33.7,2255],[42.4,2397],[50,2517],[58.8,2641],[72,2752],[82.4,2881],[94.5,2987],[96.7,3066],[96.7,3150],[96.7,3229],[97.3,3318],[99.6,3425],[99.6,3504],[99.6,3581],[99.6,3664],[99.6,3748],[99.6,3832],[99.6,3928],[99.6,4015],[99.6,4100],[99.6,4186],[99.6,4267],[99.6,4350],[99.6,4450],[99.6,4548],[99.6,4645],[99.6,4733],[99.6,4819],[99.6,4902],[99.6,4998],[99.6,5088],[99.6,5171],[99.6,5264],[99.6,5346],[99.6,5430],[99.6,5519],[99.6,5614],[99.3,5710],[99.3,5790],[97.9,5884],[97.4,5964],[97.4,6042],[97.4,6125],[97.4,6211],[97.4,6292],[98.8,6390],[100,6486],[100,6568],[100,6654],[100,6735],[100,6819],[100,6902],[100,6988],[100,7072],[100,7153],[100,7236],[100,7319],[100,7404],[100,7500],[100,7590],[100,7682],[100,7765],[100,7849],[100,7933],[100,8016],[100,8100],[100,8185],[100,8274],[100,8351],[100,8443],[100,8526],[100,8609],[100,8700],[100,8787],[100,8870],[100,8954],[100,9038],[100,9122],[100,9209],[100,9290],[100,9373],[100,9466],[100,9548],[100,9642],[100,9728],[100,9815],[100,9899],[100,9992]]",1,0,339.968,344.856,99.92679356,1.581,"[{""rating"":99.9267935578331,""responseTime"":1.5809999999999604}]",space,4.359,,344.857,Definitely yes,100,344.878,,,[],,0,6,6,6,1,audio/Narrative7Situation6.wav,audio/Narrative8Situation6.wav,audio/Narrative5Situation6.wav,audio/Narrative6Situation6.wav,3,2,3,2,,,,,,,,,,,,,,,,,,,,,,,,,,,,,,,,,,,,,,,
,,,,,,65d863e56337aa59292ccd66,2024-05-13_13h51.31.807,group3.1-3.2-social-tom,2023.2.2,Win32,60.0240096,65c5074098b851296ff0b7ed,66424ff6e276cfb3c503739f,,,,,,,,,,,,,,,,,,,,,,,,,,,,,344.88,1,audio/Narrative7Situation7.wav,349.891,,349.891,367.06,"[[47.1,539],[46.2,664],[43,793],[33,917],[30.5,1012],[30.5,1095],[30.5,1170],[30.5,1256],[30.5,1338],[30.5,1422],[30.5,1513],[30.5,1588],[30.5,1673],[30.5,1757],[31.3,1846],[35.4,1970],[35.4,2051],[35.4,2126],[35.4,2210],[35.4,2293],[35.4,2402],[35.4,2503],[35.7,2615],[58.6,2783],[95.5,3000],[100,3192],[100,3263],[100,3352],[100,3431],[100,3532],[100,3615],[100,3701],[100,3783],[100,3869],[100,3950],[100,4033],[100,4126],[100,4218],[100,4302],[100,4386],[100,4482],[100,4591],[100,4675],[100,4754],[100,4843],[100,4943],[100,5045],[100,5122],[100,5213],[100,5307],[100,5390],[100,5473],[100,5567],[100,5646],[100,5738],[100,5816],[100,5926],[100,6009],[100,6093],[100,6177],[100,6264],[100,6343],[100,6430],[100,6555],[100,6636],[100,6715],[100,6802],[100,6879],[100,6963],[100,7047],[100,7134],[100,7215],[100,7298],[100,7384],[100,7466],[100,7556],[100,7639],[100,7717],[100,7807],[100,7891],[100,7970],[100,8051],[100,8134],[100,8218],[100,8302],[100,8386],[100,8471],[100,8561],[100,8701],[100,8795],[100,8879],[100,8970],[100,9056],[100,9148],[100,9223],[100,9307],[100,9390],[100,9477],[100,9564],[100,9680],[100,9781],[100,9864],[100,9961],[100,10044],[100,10132],[100,10225],[100,10311],[100,10395],[100,10502],[100,10624],[100,10713],[100,10797],[100,10879],[100,10965],[100,11055],[100,11134],[100,11215],[100,11300],[100,11383],[100,11473],[100,11573],[100,11650],[100,11734],[100,11819],[100,11907],[100,11985],[100,12069],[100,12153],[100,12237],[100,12319],[100,12403],[100,12496],[100,12584],[100,12675],[100,12754],[100,12843],[100,12923],[100,13019],[100,13113],[100,13196],[100,13276],[100,13359],[100,13444],[100,13526],[100,13615],[100,13693],[100,13776],[100,13867],[100,13949],[100,14033],[100,14119],[100,14203],[100,14287],[100,14372],[100,14446],[100,14538],[100,14622],[100,14711],[100,14798],[100,14894],[100,14980],[100,15062],[100,15146],[100,15234],[100,15324],[100,15411],[100,15516],[100,15616],[100,15694],[100,15781],[100,15879],[100,15953],[100,16040],[100,16120],[100,16204],[100,16293],[100,16372],[100,16459],[100,16545],[100,16629],[100,16721],[100,16802],[100,16884],[100,16966],[100,17048],[100,17131]]",1,0,367.062,374.154,99.63396779,3.217,"[{""rating"":99.63396778916544,""responseTime"":3.2170000000000414}]",space,6.553,,374.155,Definitely yes,100,374.184,,,[],,0,7,7,7,1,audio/Narrative7Situation7.wav,audio/Narrative8Situation7.wav,audio/Narrative5Situation7.wav,audio/Narrative6Situation7.wav,5,3,4,5,,,,,,,,,,,,,,,,,,,,,,,,,,,,,,,,,,,,,,,
,,,,,,65d863e56337aa59292ccd66,2024-05-13_13h51.31.807,group3.1-3.2-social-tom,2023.2.2,Win32,60.0240096,65c5074098b851296ff0b7ed,66424ff6e276cfb3c503739f,,,,,,,,,,,,,,,,,,,,,,,,,,,,,374.187,1,audio/Narrative7Situation8.wav,376.19,,376.192,386.217,"[[999,2],[999,115],[999,199],[999,283],[999,375],[999,485],[999,567],[999,651],[999,742],[999,822],[999,901],[999,989],[999,1069],[999,1153],[999,1242],[999,1321],[999,1403],[999,1487],[999,1576],[999,1655],[999,1740],[32.1,1826],[31.8,1913],[29.1,2026],[28.5,2107],[28.5,2191],[28.5,2274],[28.5,2360],[28.5,2442],[28.5,2526],[28.5,2608],[28.5,2694],[28.5,2793],[28.5,2886],[28.5,2971],[28.5,3045],[28.5,3129],[28.5,3213],[28.5,3295],[28.5,3379],[28.5,3463],[28.5,3574],[28.5,3655],[28.5,3730],[28.5,3817],[28.5,3899],[28.5,3982],[28.5,4067],[28.5,4151],[28.5,4244],[28.5,4324],[28.5,4408],[28.5,4495],[28.5,4588],[28.5,4668],[28.5,4754],[28.5,4836],[28.5,4920],[28.5,5004],[28.5,5086],[28.5,5170],[28.5,5271],[28.5,5355],[28.5,5439],[28.5,5521],[28.5,5629],[28.5,5715],[28.5,5795],[28.5,5882],[28.5,5965],[28.5,6047],[28.5,6131],[28.5,6216],[28.5,6310],[28.5,6394],[28.5,6477],[28.5,6560],[28.5,6644],[28.5,6732],[28.5,6812],[28.5,6894],[28.5,6978],[28.5,7062],[28.5,7156],[28.5,7264],[28.5,7353],[28.5,7430],[28.5,7514],[28.5,7603],[28.5,7680],[28.5,7768],[28.5,7848],[28.5,7932],[28.5,8016],[28.5,8100],[28.5,8191],[28.5,8266],[35.8,8382],[37.3,8468],[40.5,8562],[43.3,8650],[43.3,8720],[47.4,8814],[50.6,8911],[54.5,8995],[59.5,9095],[66.7,9204],[72.8,9305],[76.5,9406],[78.6,9485],[79.3,9567],[79.3,9641],[79.3,9723],[79.9,9812],[81.3,9891],[81.3,9975]]",1,0,386.218,390.675,99.92679356,2.209,"[{""rating"":81.62518301610542,""responseTime"":0.9449999999999932},{""rating"":92.89897510980967,""responseTime"":1.4639999999999986},{""rating"":97.2913616398243,""responseTime"":1.8129999999999882},{""rating"":99.9267935578331,""responseTime"":2.209000000000003}]",space,3.918,,390.676,Definitely yes,100,390.726,,,[],,0,8,8,8,1,audio/Narrative7Situation8.wav,audio/Narrative8Situation8.wav,audio/Narrative5Situation8.wav,audio/Narrative6Situation8.wav,2,3,3,5,,,,,,,,,,,,,,,,,,,,,,,,,,,,,,,,,,,,,,,
,,,,,,65d863e56337aa59292ccd66,2024-05-13_13h51.31.807,group3.1-3.2-social-tom,2023.2.2,Win32,60.0240096,65c5074098b851296ff0b7ed,66424ff6e276cfb3c503739f,,,,,,,,,,,,,,,,,,,,,,,,,,,,,390.729,1,audio/Narrative7Situation9.wav,392.746,,392.747,401.387,"[[999,11],[999,156],[999,262],[999,349],[999,437],[999,540],[999,617],[999,707],[999,784],[999,867],[999,957],[999,1044],[999,1177],[999,1277],[44.4,1361],[44.1,1441],[43.7,1525],[43.4,1604],[43.4,1689],[43.4,1773],[43.4,1855],[43.4,1942],[43.4,2030],[43.4,2114],[43.4,2205],[43.4,2293],[43.4,2381],[43.4,2459],[43.4,2542],[43.4,2626],[45.6,2764],[52.2,2900],[66.4,3010],[80.5,3124],[91.7,3274],[96.9,3384],[97.1,3469],[98.9,3558],[99,3634],[99,3720],[99.2,3805],[99.5,3887],[99.5,3965],[99.5,4049],[99.5,4133],[99.5,4216],[99.5,4300],[99.5,4383],[99.5,4484],[99.5,4568],[99.5,4655],[99.5,4735],[99.5,4819],[99.5,4905],[99.5,4986],[99.5,5070],[99.5,5153],[99.5,5256],[99.5,5340],[99.5,5424],[99.5,5504],[99.5,5590],[99.5,5674],[99.5,5756],[99.5,5840],[99.5,5924],[99.5,6021],[99.5,6100],[99.5,6175],[99.5,6259],[99.5,6342],[99.5,6426],[99.5,6509],[99.5,6594],[99.5,6688],[99.5,6768],[99.5,6853],[99.5,6934],[99.5,7022],[99.5,7113],[99.5,7200],[99.5,7286],[99.5,7365],[99.5,7450],[99.5,7535],[99.5,7614],[99.5,7698],[99.5,7782],[99.5,7865],[99.5,7949],[99.5,8033],[99.5,8117],[99.5,8201],[99.5,8285],[99.5,8367],[99.5,8455],[99.5,8540],[99.5,8619]]",1,0,401.389,407.445,99.63396779,1.167,"[{""rating"":99.63396778916544,""responseTime"":1.1669999999999732}]",space,5.509,,407.446,Partially,50,407.484,,,[],,0,9,9,9,1,audio/Narrative7Situation9.wav,audio/Narrative8Situation9.wav,audio/Narrative5Situation9.wav,audio/Narrative6Situation9.wav,2,3,3,4,,,,,,,,,,,,,,,,,,,,,,,,,,,,,,,,,,,,,,,
,,,,,,65d863e56337aa59292ccd66,2024-05-13_13h51.31.807,group3.1-3.2-social-tom,2023.2.2,Win32,60.0240096,65c5074098b851296ff0b7ed,66424ff6e276cfb3c503739f,,,,,,,,,,,,,,,,,,,,,,,,,,,,,407.486,1,audio/Narrative8Situation1.wav,412.506,,412.506,428.441,"[[43.7,990],[22.3,1105],[1.2,1478],[2.9,1564],[5.2,1658],[7.2,1737],[7.2,1816],[7.2,1925],[7.2,2040],[7.2,2117],[7.4,2225],[6.1,2357],[5.1,2471],[4.5,2559],[3.3,2637],[3,2721],[3,2804],[3,2888],[3,2971],[3,3055],[3,3139],[3,3223],[3,3305],[3,3389],[3,3478],[3,3564],[3,3646],[3,3745],[3,3831],[3,3930],[3,4016],[3,4100],[3,4182],[3,4266],[3,4353],[3,4442],[3,4525],[3,4605],[3,4685],[3,4769],[3,4853],[3,4948],[3,5031],[3,5114],[3,5198],[3,5281],[3,5365],[3,5461],[3,5562],[3,5651],[3,5745],[3,5835],[3,5932],[3,6018],[3,6105],[3,6192],[3,6269],[3,6355],[3,6437],[3,6519],[3,6603],[3,6689],[3,6771],[3,6855],[3,6946],[3,7030],[3,7113],[3,7197],[3,7283],[3,7364],[3,7454],[3,7531],[3,7620],[3,7706],[3,7805],[10,7971],[14.1,8086],[19.8,8192],[21.3,8283],[21.6,8360],[21.6,8446],[21.6,8528],[27,8650],[27.3,8721],[27.3,8798],[27.3,8881],[27.3,8963],[27.3,9048],[27.3,9131],[27.3,9215],[27.3,9300],[27.3,9389],[27.3,9466],[27.3,9550],[27.3,9634],[27.3,9725],[27.3,9802],[33,9971],[39.8,10101],[47.8,10242],[48,10386],[48,10463],[48,10547],[48,10622],[50,10730],[50.6,10812],[50.6,10889],[50.6,10973],[50.6,11057],[50.6,11141],[50.6,11223],[50.6,11311],[57.2,11436],[62.6,11538],[63.3,11632],[63.3,11756],[63.3,11840],[63.3,11936],[63.3,12019],[63.5,12113],[63.5,12209],[63.5,12295],[63.5,12379],[63.5,12475],[63.5,12547],[63.5,12632],[63.5,12713],[63.5,12800],[63.5,12888],[63.5,12965],[63.5,13049],[63.5,13132],[63.5,13216],[63.5,13299],[63.5,13384],[63.5,13473],[63.5,13567],[63.5,13641],[63.5,13725],[63.5,13810],[63.5,13932],[63.5,14016],[63.5,14103],[63.5,14187],[63.5,14271],[63.5,14355],[63.5,14439],[63.5,14523],[63.5,14605],[63.5,14689],[63.5,14775],[63.5,14857],[63.5,14956],[63.5,15040],[63.5,15127],[63.5,15208],[63.5,15292],[63.5,15376],[63.5,15465],[63.5,15552],[63.5,15627],[63.5,15711],[63.5,15795],[63.5,15877]]",1,0,428.442,432.085,68.15519766,2.157,"[{""rating"":67.27672035139092,""responseTime"":1.184000000000026},{""rating"":68.15519765739386,""responseTime"":2.1569999999999823}]",space,3.105,,432.085,Not at all,0,432.115,,,[],,0,10,10,10,1,audio/Narrative8Situation1.wav,audio/Narrative7Situation1.wav,audio/Narrative6Situation1.wav,audio/Narrative5Situation1.wav,5,2,2,5,,,,,,,,,,,,,,,,,,,,,,,,,,,,,,,,,,,,,,,
,,,,,,65d863e56337aa59292ccd66,2024-05-13_13h51.31.807,group3.1-3.2-social-tom,2023.2.2,Win32,60.0240096,65c5074098b851296ff0b7ed,66424ff6e276cfb3c503739f,,,,,,,,,,,,,,,,,,,,,,,,,,,,,432.117,1,audio/Narrative8Situation2.wav,435.135,,435.136,445.259,"[[999,2],[999,127],[999,211],[999,312],[999,405],[999,526],[999,622],[17.6,728],[21.3,860],[22.5,965],[22.5,1052],[22.5,1133],[22.5,1220],[22.5,1299],[22.5,1383],[22.5,1466],[22.5,1550],[23.2,1644],[25.5,1742],[39.5,1877],[45.2,1977],[46.5,2071],[49.9,2162],[50,2237],[50,2326],[50,2408],[50,2489],[50,2573],[50,2657],[50,2739],[50,2826],[50,2924],[50,3023],[50,3124],[50,3209],[50,3300],[50,3389],[50,3466],[50,3549],[50,3627],[50,3711],[50,3795],[50,3877],[50,3961],[50,4045],[50,4129],[50,4215],[50,4295],[50,4379],[50,4463],[50,4548],[50,4631],[50,4713],[50,4800],[50,4889],[50,4966],[50,5050],[50,5136],[50,5216],[50,5300],[50,5384],[50,5468],[50,5552],[50,5636],[50,5718],[50,5805],[50,5887],[50,5970],[50,6054],[50,6138],[50,6221],[50,6328],[50,6405],[50,6489],[47.7,6580],[44,6677],[44,6758],[44,6846],[38.9,6949],[33.2,7059],[28,7163],[26.6,7252],[20.6,7382],[18.2,7473],[16.8,7560],[16.6,7645],[11.3,7747],[9.7,7834],[9.7,7912],[9.7,7995],[9.7,8079],[9.7,8163],[9.7,8252],[9.7,8346],[9.7,8437],[9.7,8516],[9.7,8605],[9.7,8692],[9.7,8778],[9.7,8865],[9.7,8966],[9.7,9072],[9.7,9151],[9.7,9238],[9.7,9319],[9.7,9401],[9.7,9485],[9.7,9569],[9.7,9655],[9.7,9740],[9.7,9821],[9.7,9905],[9.7,9988],[9.7,10072]]",1,0,445.263,447.302,9.297218155,0.845,"[{""rating"":9.297218155197656,""responseTime"":0.8449999999999704}]",space,1.51,,447.303,Not at all,0,447.318,,,[],,0,11,11,11,1,audio/Narrative8Situation2.wav,audio/Narrative7Situation2.wav,audio/Narrative6Situation2.wav,audio/Narrative5Situation2.wav,3,3,3,3,,,,,,,,,,,,,,,,,,,,,,,,,,,,,,,,,,,,,,,
,,,,,,65d863e56337aa59292ccd66,2024-05-13_13h51.31.807,group3.1-3.2-social-tom,2023.2.2,Win32,60.0240096,65c5074098b851296ff0b7ed,66424ff6e276cfb3c503739f,,,,,,,,,,,,,,,,,,,,,,,,,,,,,447.322,1,audio/Narrative8Situation3.wav,451.335,,451.335,473.723,"[[9.6,367],[9.6,458],[9.6,536],[9.6,619],[9.6,701],[9.6,786],[9.6,870],[9.6,956],[9.6,1036],[9.6,1120],[9.6,1204],[9.6,1288],[9.6,1375],[9.6,1456],[9.7,1538],[9.7,1625],[9.7,1706],[9.7,1790],[9.7,1879],[9.7,1958],[9.7,2045],[9.7,2137],[9.7,2216],[9.7,2300],[9.7,2384],[9.7,2466],[9.7,2550],[9.7,2637],[9.7,2716],[9.7,2802],[9.7,2887],[9.7,2973],[9.7,3055],[9.7,3211],[9.7,3312],[9.7,3391],[9.7,3464],[9.7,3548],[9.7,3632],[9.7,3721],[9.7,3798],[9.7,3882],[9.7,3966],[9.7,4052],[9.7,4146],[9.7,4230],[9.7,4322],[9.7,4401],[9.7,4485],[9.7,4569],[9.7,4656],[9.7,4740],[9.7,4843],[9.7,4920],[9.7,5004],[9.7,5113],[9.7,5197],[9.7,5281],[9.7,5357],[9.7,5439],[9.7,5523],[9.7,5608],[9.7,5689],[9.7,5774],[9.7,5858],[9.7,5942],[9.7,6024],[9.7,6108],[9.7,6192],[9.7,6276],[9.7,6362],[9.7,6444],[9.7,6528],[9.7,6619],[9.7,6711],[9.7,6795],[9.7,6879],[9.7,6966],[9.7,7047],[9.7,7151],[9.7,7232],[9.7,7314],[9.7,7401],[9.7,7483],[9.7,7569],[9.7,7649],[9.7,7733],[9.7,7819],[9.7,7901],[9.7,7988],[9.7,8074],[9.7,8173],[9.7,8252],[9.7,8343],[9.7,8437],[9.7,8528],[9.7,8603],[9.7,8692],[9.7,8771],[9.7,8855],[9.7,8939],[9.7,9021],[9.7,9112],[9.7,9189],[9.7,9274],[9.7,9357],[9.7,9442],[9.7,9531],[9.7,9610],[9.7,9699],[9.7,9776],[9.7,9865],[9.7,9959],[9.7,10043],[9.7,10132],[14.7,10257],[20.3,10370],[26.7,10500],[26.7,10579],[26.7,10663],[26.7,10745],[26.7,10843],[27,10939],[33,11098],[33,11189],[33,11279],[33,11363],[33,11442],[33,11541],[33,11634],[33,11720],[33,11800],[33,11887],[33,11968],[33,12055],[33,12146],[33,12221],[33,12302],[33,12387],[33,12473],[33,12555],[33,12641],[33,12721],[33,12814],[33,12889],[33,12978],[33,13064],[33,13153],[33,13242],[33,13326],[33,13408],[33,13492],[33,13579],[33,13658],[33,13742],[33,13826],[33,13911],[33,13994],[33,14076],[33,14161],[33,14245],[33,14329],[33,14413],[40.9,14521],[44.9,14620],[45.3,14726],[49.7,14853],[49.7,14932],[49.9,15016],[49.9,15098],[49.9,15182],[49.9,15266],[49.9,15350],[49.9,15434],[49.9,15516],[49.9,15601],[49.9,15685],[49.9,15767],[49.9,15853],[49.9,15935],[49.9,16021],[49.9,16110],[49.9,16187],[49.9,16274],[49.9,16355],[49.9,16444],[49.9,16523],[49.9,16612],[49.9,16697],[49.9,16781],[49.9,16863],[49.9,16949],[49.9,17038],[49.9,17137],[49.9,17221],[49.9,17303],[49.9,17386],[49.9,17482],[49.9,17559],[49.9,17642],[49.9,17726],[49.9,17810],[49.9,17899],[49.9,17978],[49.9,18062],[49.9,18163],[49.9,18245],[49.9,18329],[49.9,18413],[49.9,18528],[49.9,18615],[49.9,18704],[49.9,18798],[49.9,18882],[49.9,18966],[49.9,19048],[49.9,19132],[49.9,19216],[49.9,19300],[49.9,19389],[49.9,19468],[49.9,19552],[49.9,19637],[49.9,19720],[49.9,19802],[49.9,19886],[49.9,19971],[49.9,20060],[49.9,20154],[50,20247],[50.9,20345],[50.9,20432],[54.7,20552],[55.6,20646],[55.6,20730],[61.4,20887],[61.4,20975],[61.4,21077],[61.4,21257],[61.4,21377],[61.4,21459],[61.4,21593],[61.4,21711],[61.4,21795],[61.4,21879],[61.4,21961],[61.4,22045],[61.4,22148],[61.4,22232],[61.4,22314]]",1,0,473.724,476.663,61.42020498,0.853,"[{""rating"":61.420204978038065,""responseTime"":0.8530000000000086}]",space,2.37,,476.666,Partially,50,476.7,,,[],,0,12,12,12,1,audio/Narrative8Situation3.wav,audio/Narrative7Situation3.wav,audio/Narrative6Situation3.wav,audio/Narrative5Situation3.wav,4,8,5,3,,,,,,,,,,,,,,,,,,,,,,,,,,,,,,,,,,,,,,,
,,,,,,65d863e56337aa59292ccd66,2024-05-13_13h51.31.807,group3.1-3.2-social-tom,2023.2.2,Win32,60.0240096,65c5074098b851296ff0b7ed,66424ff6e276cfb3c503739f,,,,,,,,,,,,,,,,,,,,,,,,,,,,,476.703,1,audio/Narrative8Situation4.wav,479.717,,479.717,493.896,"[[61.4,903],[61.4,978],[61.4,1062],[61.3,1149],[61.3,1232],[61.3,1313],[61.3,1398],[61.3,1481],[61.3,1567],[61.3,1649],[61.3,1732],[61.3,1817],[61.3,1899],[61.3,1984],[61.3,2067],[61.3,2163],[61.3,2249],[61.3,2365],[61.3,2458],[61.3,2537],[61,2626],[39.3,2813],[31.1,2934],[26,3037],[20.3,3147],[19.1,3244],[16.5,3336],[12.2,3432],[12.2,3508],[12.2,3590],[12.2,3677],[12.2,3758],[12.2,3842],[13.1,3932],[19.1,4051],[25.4,4153],[29.6,4256],[29.6,4326],[30.1,4410],[30.1,4495],[34,4614],[46.2,4859],[46.2,4946],[46.2,5034],[46.2,5115],[46.2,5203],[46.2,5284],[46.2,5370],[46.2,5448],[46.2,5535],[46.2,5615],[46.2,5698],[46.2,5783],[46.2,5866],[46.2,5951],[46.2,6034],[46.2,6118],[46.2,6202],[48.5,6311],[64.1,6461],[79.4,6576],[89.8,6804],[97.7,6971],[99.2,7081],[99.2,7157],[100,7250],[100,7331],[100,7407],[100,7490],[100,7577],[100,7658],[100,7741],[100,7828],[100,7914],[100,7994],[100,8076],[100,8160],[100,8245],[100,8327],[100,8418],[100,8528],[100,8621],[100,8726],[100,8804],[100,8894],[100,8975],[100,9061],[100,9149],[100,9232],[100,9314],[100,9399],[100,9484],[100,9567],[100,9650],[100,9739],[100,9817],[100,9903],[100,9985],[100,10068],[100,10153],[100,10248],[100,10326],[100,10407],[100,10486],[100,10571],[100,10657],[100,10744],[100,10822],[100,10905],[100,10990],[100,11073],[100,11158],[100,11240],[100,11325],[100,11408],[100,11491],[100,11578],[100,11668],[100,11783],[100,11876],[100,11961],[100,12043],[100,12129],[100,12216],[100,12296],[100,12379],[100,12470],[100,12552],[100,12629],[100,12737],[100,12814],[100,12903],[100,12981],[100,13064],[100,13149],[100,13232],[100,13317],[100,13400],[100,13484],[100,13567],[100,13652],[100,13735],[100,13836],[100,13918],[100,14003],[100,14086],[100,14177]]",1,0,493.897,496.921,99.4875549,1.017,"[{""rating"":99.48755490483163,""responseTime"":1.0170000000000528}]",space,2.483,,496.922,Definitely yes,100,496.954,,,[],,0,13,13,13,1,audio/Narrative8Situation4.wav,audio/Narrative7Situation4.wav,audio/Narrative6Situation4.wav,audio/Narrative5Situation4.wav,3,3,2,1,,,,,,,,,,,,,,,,,,,,,,,,,,,,,,,,,,,,,,,
,,,,,,65d863e56337aa59292ccd66,2024-05-13_13h51.31.807,group3.1-3.2-social-tom,2023.2.2,Win32,60.0240096,65c5074098b851296ff0b7ed,66424ff6e276cfb3c503739f,,,,,,,,,,,,,,,,,,,,,,,,,,,,,496.956,1,audio/Narrative8Situation5.wav,498.96,,498.961,507.214,"[[999,2],[999,98],[999,182],[999,266],[999,350],[999,499],[999,596],[999,684],[999,770],[999,851],[999,934],[999,1019],[999,1102],[999,1193],[999,1270],[999,1353],[999,1440],[999,1521],[999,1605],[999,1689],[999,1778],[999,1856],[999,1940],[999,2025],[999,2110],[999,2192],[999,2278],[999,2375],[999,2510],[999,2596],[81.5,2722],[89.5,2817],[94.4,2923],[100,3035],[100,3127],[100,3206],[100,3283],[100,3362],[100,3451],[100,3529],[100,3615],[100,3698],[100,3784],[100,3865],[100,3949],[100,4034],[100,4115],[100,4201],[100,4288],[100,4367],[100,4457],[100,4539],[100,4620],[100,4701],[100,4785],[100,4870],[100,4956],[100,5036],[100,5120],[100,5212],[100,5300],[100,5377],[100,5472],[100,5562],[100,5663],[100,5762],[100,5843],[100,5923],[100,6007],[100,6091],[100,6175],[100,6259],[100,6342],[100,6432],[100,6509],[100,6593],[100,6677],[100,6760],[100,6844],[100,6929],[100,7011],[100,7097],[100,7179],[100,7286],[100,7371],[100,7485],[100,7570],[100,7650],[100,7738],[100,7817],[100,7905],[100,7983],[100,8070],[100,8149],[100,8235]]",1,0,507.215,512.266,99.63396779,2.546,"[{""rating"":99.63396778916544,""responseTime"":2.5459999999999354}]",space,4.506,,512.266,Definitely yes,100,512.283,,,[],,0,14,14,14,1,audio/Narrative8Situation5.wav,audio/Narrative7Situation5.wav,audio/Narrative6Situation5.wav,audio/Narrative5Situation5.wav,2,5,2,5,,,,,,,,,,,,,,,,,,,,,,,,,,,,,,,,,,,,,,,
,,,,,,65d863e56337aa59292ccd66,2024-05-13_13h51.31.807,group3.1-3.2-social-tom,2023.2.2,Win32,60.0240096,65c5074098b851296ff0b7ed,66424ff6e276cfb3c503739f,,,,,,,,,,,,,,,,,,,,,,,,,,,,,512.285,1,audio/Narrative8Situation6.wav,514.294,,514.294,520.759,"[[999,4],[999,105],[999,192],[999,273],[999,350],[999,462],[999,539],[999,619],[999,702],[999,787],[999,870],[999,953],[999,1037],[999,1124],[999,1216],[999,1318],[999,1434],[999,1562],[999,1663],[999,1764],[999,1860],[999,1948],[999,2033],[100,2173],[100,2263],[99.9,2342],[99.9,2427],[99.9,2509],[99.9,2594],[99.9,2677],[99.9,2763],[99.9,2846],[99.9,2928],[99.9,3011],[99.9,3109],[99.6,3203],[99.6,3288],[99.6,3371],[99.6,3453],[99.6,3537],[99.6,3623],[99.6,3705],[96.6,3817],[96.6,3903],[96.6,3990],[96.6,4073],[96.6,4158],[97.3,4292],[97.3,4438],[97.3,4528],[99.6,4659],[99.6,4745],[99.6,4827],[99.6,4913],[99.6,4995],[99.6,5081],[99.6,5188],[99.6,5274],[99.6,5355],[99.6,5439],[99.6,5524],[99.6,5620],[99.6,5719],[99.6,5801],[99.6,5903],[99.6,5985],[99.6,6076],[99.6,6171],[99.6,6259],[99.6,6344],[99.6,6433]]",1,0,520.761,523.017,99.4875549,0.882,"[{""rating"":99.48755490483163,""responseTime"":0.8820000000000618}]",space,1.712,,523.018,Partially,50,523.05,,,[],,0,15,15,15,1,audio/Narrative8Situation6.wav,audio/Narrative7Situation6.wav,audio/Narrative6Situation6.wav,audio/Narrative5Situation6.wav,2,3,2,3,,,,,,,,,,,,,,,,,,,,,,,,,,,,,,,,,,,,,,,
,,,,,,65d863e56337aa59292ccd66,2024-05-13_13h51.31.807,group3.1-3.2-social-tom,2023.2.2,Win32,60.0240096,65c5074098b851296ff0b7ed,66424ff6e276cfb3c503739f,,,,,,,,,,,,,,,,,,,,,,,,,,,,,523.054,1,audio/Narrative8Situation7.wav,526.062,,526.062,538.156,"[[27.7,1728],[25.1,1826],[22.8,1929],[22.2,2010],[21.9,2096],[15.3,2204],[14.4,2283],[14.3,2370],[13.5,2475],[13.5,2548],[13.5,2629],[13.5,2711],[13.5,2794],[13.5,2879],[13.5,2961],[13.5,3046],[13.5,3135],[13.5,3213],[13.5,3313],[13.5,3414],[13.5,3499],[13.5,3584],[13.5,3664],[13.5,3755],[13.5,3838],[13.5,3923],[13.5,4006],[13.5,4091],[13.5,4175],[13.5,4260],[13.5,4344],[13.5,4438],[13.5,4521],[13.5,4610],[13.5,4688],[13.5,4775],[13.5,4855],[13.5,4937],[13.5,5028],[13.5,5111],[13.5,5197],[13.5,5280],[13.5,5380],[13.5,5456],[13.5,5543],[13.5,5624],[13.5,5708],[13.5,5791],[13.5,5875],[15.3,5968],[18.4,6081],[22.2,6189],[22.6,6270],[22.6,6360],[22.6,6478],[22.6,6593],[22.9,6693],[27.3,6860],[28.9,6961],[29.8,7094],[29.8,7177],[29.8,7247],[29.8,7333],[29.8,7414],[29.8,7499],[29.8,7581],[29.8,7665],[29.8,7750],[29.8,7833],[29.8,7916],[29.8,8000],[29.8,8084],[29.8,8173],[29.8,8254],[29.8,8341],[29.8,8437],[29.8,8519],[29.8,8603],[29.8,8690],[29.8,8770],[29.8,8866],[29.8,8949],[29.8,9043],[29.8,9122],[29.8,9211],[29.8,9289],[29.8,9372],[29.8,9462],[29.8,9540],[29.8,9625],[29.8,9709],[29.8,9793],[29.8,9876],[29.8,9961],[29.8,10043],[29.8,10126],[29.8,10213],[29.8,10294],[29.8,10385],[29.8,10477],[29.8,10572],[29.8,10665],[29.8,10752],[29.8,10837],[29.8,10919],[29.8,11014],[29.8,11098],[29.8,11182],[29.8,11265],[29.8,11355],[29.8,11448],[29.8,11533],[29.8,11617],[29.8,11701],[29.8,11785],[29.8,11867],[29.8,11951],[29.8,12035]]",1,0,538.157,543.642,27.15959004,3.821,"[{""rating"":27.159590043923863,""responseTime"":3.8209999999999127}]",space,4.949,,543.643,Definitely yes,100,543.668,,,[],,0,16,16,16,1,audio/Narrative8Situation7.wav,audio/Narrative7Situation7.wav,audio/Narrative6Situation7.wav,audio/Narrative5Situation7.wav,3,5,5,4,,,,,,,,,,,,,,,,,,,,,,,,,,,,,,,,,,,,,,,
,,,,,,65d863e56337aa59292ccd66,2024-05-13_13h51.31.807,group3.1-3.2-social-tom,2023.2.2,Win32,60.0240096,65c5074098b851296ff0b7ed,66424ff6e276cfb3c503739f,,,,,,,,,,,,,,,,,,,,,,,,,,,,,543.671,1,audio/Narrative8Situation8.wav,546.69,,546.69,559.584,"[[61.7,959],[61.3,1033],[61.3,1117],[61.3,1203],[58.2,1296],[45.9,1398],[32.9,1507],[29.4,1605],[26.6,1715],[25,1836],[25,1931],[25,2003],[25,2088],[25,2172],[25,2254],[25,2338],[23.8,2425],[23.8,2504],[23.8,2594],[23.8,2680],[23.8,2807],[23.8,2903],[23.8,3000],[23.8,3100],[23.8,3232],[23.8,3316],[23.8,3393],[23.8,3477],[23.8,3561],[23.8,3644],[23.8,3740],[23.8,3829],[24.4,3920],[24.4,4002],[24.4,4083],[24.4,4163],[24.4,4247],[24.4,4331],[24.4,4415],[24.4,4498],[24.4,4581],[24.4,4666],[24.4,4750],[24.4,4833],[24.4,4917],[24.4,5001],[24.4,5084],[24.4,5168],[24.4,5251],[24.4,5335],[24.4,5421],[24.4,5502],[24.4,5586],[24.4,5670],[24.4,5754],[24.4,5838],[24.4,5921],[24.4,6004],[24.4,6089],[24.4,6172],[24.4,6256],[24.4,6416],[24.4,6509],[24.4,6614],[24.4,6701],[24.4,6797],[24.4,6877],[24.4,6958],[24.4,7042],[24.4,7126],[24.4,7210],[24.4,7293],[24.4,7384],[24.4,7471],[24.4,7562],[24.4,7677],[24.4,7773],[24.4,7887],[24.4,7985],[24.4,8075],[24.4,8163],[24.4,8248],[24.4,8344],[24.4,8435],[24.4,8516],[24.4,8639],[24.4,8742],[24.4,8817],[24.4,8901],[24.4,8990],[24.4,9067],[24.4,9151],[24.4,9235],[24.4,9319],[24.4,9403],[24.4,9500],[24.4,9583],[24.4,9671],[24.4,9774],[24.4,9857],[24.4,9939],[24.4,10022],[24.4,10108],[24.4,10190],[24.4,10275],[24.5,10372],[43.7,10571],[43.7,10649],[44.9,10753],[44.9,10825],[44.9,10910],[44.9,10993],[44.9,11076],[44.9,11160],[46.3,11254],[48.1,11367],[49.1,11449],[51,11555],[51.9,11645],[51.9,11733],[51.9,11812],[51.9,11898],[51.9,11980],[51.9,12065],[57.6,12157],[65.2,12248],[65.2,12331],[65.2,12416],[65.2,12500],[65.2,12584],[65.2,12668],[65.2,12785],[65.2,12878]]",1,0,559.586,564.385,64.78770132,1.334,"[{""rating"":64.78770131771596,""responseTime"":1.33400000000006}]",space,4.251,,564.386,Partially,50,564.424,,,[],,0,17,17,17,1,audio/Narrative8Situation8.wav,audio/Narrative7Situation8.wav,audio/Narrative6Situation8.wav,audio/Narrative5Situation8.wav,3,2,5,3,,,,,,,,,,,,,,,,,,,,,,,,,,,,,,,,,,,,,,,
,,,,,,65d863e56337aa59292ccd66,2024-05-13_13h51.31.807,group3.1-3.2-social-tom,2023.2.2,Win32,60.0240096,65c5074098b851296ff0b7ed,66424ff6e276cfb3c503739f,,,,,,,,,,,,,,,,,,,,,,,,,,,,,564.427,1,audio/Narrative8Situation9.wav,567.436,,567.437,578.76,"[[48.2,834],[43.9,928],[43.9,1026],[43.9,1110],[43.9,1193],[42.7,1294],[39,1389],[38.6,1467],[38.6,1544],[38.6,1629],[38.6,1714],[38.6,1796],[38.6,1879],[38.7,1963],[39.6,2049],[42.4,2139],[51.2,2221],[52.8,2307],[53.1,2390],[53.2,2466],[53.4,2548],[53.4,2634],[53.4,2716],[53.4,2800],[53.4,2884],[53.4,2972],[53.4,3052],[53.4,3135],[53.4,3218],[53.4,3302],[53.4,3386],[52.8,3473],[52,3553],[51.6,3637],[51.5,3721],[51.5,3805],[51.5,3887],[51.5,3973],[51.5,4055],[51.5,4139],[51.5,4225],[51.5,4307],[51.5,4391],[51.5,4475],[51.5,4558],[51.5,4642],[51.5,4725],[51.5,4809],[51.5,4892],[51.5,4981],[51.5,5060],[51.5,5146],[51.5,5228],[51.5,5312],[51.5,5395],[51.5,5478],[51.5,5562],[51.5,5646],[51.5,5730],[51.5,5815],[51.5,5898],[51.5,5983],[51.5,6065],[51.5,6149],[51.5,6233],[51.5,6318],[51.5,6400],[51.5,6488],[51.5,6567],[51.5,6658],[51.5,6740],[51.5,6817],[51.5,6903],[51.5,7011],[51.5,7093],[51.5,7177],[51.5,7264],[51.5,7353],[51.5,7435],[51.5,7530],[51.5,7616],[51.5,7698],[51.5,7776],[51.5,7855],[51.5,7940],[51.5,8024],[51.5,8106],[51.5,8190],[51.5,8274],[51.3,8358],[51.3,8442],[51.3,8525],[51.3,8611],[51.3,8706],[51.3,8796],[51.3,8877],[51.3,8963],[51.3,9045],[51.3,9129],[51.3,9213],[51.3,9295],[51.3,9379],[51.3,9462],[51.3,9546],[51.3,9630],[51.3,9713],[51.3,9798],[51.3,9881],[51.3,9966],[51.3,10048],[51.3,10132],[51.3,10216],[51.3,10299],[51.3,10384],[51.3,10467],[51.3,10552],[51.3,10634],[51.3,10718],[51.3,10802],[51.3,10885],[33.2,11016],[29.4,11096],[28.3,11173],[28.3,11254]]",1,0,578.761,586.015,36.38360176,5.344,"[{""rating"":22.767203513909223,""responseTime"":1.1660000000000537},{""rating"":36.38360175695461,""responseTime"":5.344000000000051}]",space,6.708,,586.016,Not at all,0,595.032,0.073206442,5.195,"[{""rating"":0.07320644216691208,""responseTime"":5.19500000000005}]",space,0,18,18,18,1,audio/Narrative8Situation9.wav,audio/Narrative7Situation9.wav,audio/Narrative6Situation9.wav,audio/Narrative5Situation9.wav,3,2,4,3,,,8.473,,,,,,,,,,,,,,,,,,,,,,,,,,,,,,,,,,,,
,,,,,,65d863e56337aa59292ccd66,2024-05-13_13h51.31.807,group3.1-3.2-social-tom,2023.2.2,Win32,60.0240096,65c5074098b851296ff0b7ed,66424ff6e276cfb3c503739f,,,,,,,,,,,,,,,,,,,,,,,,,,,598.438,601.007,601.103,2,audio/Narrative13Situation2.wav,601.105,,601.105,630.858,"[[0.5,1947],[0.5,2026],[0.5,2110],[0.5,2197],[3,2307],[3.9,2405],[4.2,2486],[4.3,2562],[4.3,2646],[4.3,2730],[4.3,2813],[4.3,2897],[4.3,2980],[4.3,3064],[4.3,3149],[4.3,3231],[4.3,3325],[4.3,3413],[4.3,3509],[4.3,3591],[4.3,3674],[4.3,3759],[4.3,3842],[4.3,3928],[4.3,4016],[4.3,4101],[4.3,4193],[4.3,4270],[4.3,4367],[4.3,4437],[4.3,4521],[4.3,4605],[4.3,4688],[4.3,4772],[4.3,4858],[4.3,4949],[4.3,5024],[4.3,5107],[4.3,5190],[4.3,5278],[4.3,5372],[4.3,5473],[4.3,5576],[4.3,5658],[4.3,5742],[4.3,5843],[4.3,5926],[4.3,6010],[4.3,6101],[4.3,6178],[4.3,6261],[4.3,6357],[4.3,6447],[4.3,6530],[4.3,6612],[4.3,6698],[4.3,6786],[4.3,6865],[4.3,6950],[4.3,7033],[4.3,7117],[4.3,7200],[4.3,7290],[4.3,7379],[4.3,7461],[4.3,7540],[4.3,7623],[4.3,7700],[5.6,7846],[13.3,7972],[25.1,8075],[33.7,8177],[38.4,8288],[46.6,8396],[71.8,8509],[79,8610],[91.6,8711],[93,8791],[93,8872],[93,8956],[97,9068],[98.5,9171],[98.6,9260],[99.8,9384],[99.8,9468],[99.8,9559],[99.8,9651],[99.8,9745],[99.8,9827],[99.8,9911],[99.8,10000],[99.8,10079],[99.8,10161],[99.8,10245],[99.8,10343],[99.8,10420],[99.8,10502],[99.8,10581],[99.8,10666],[99.8,10748],[99.8,10838],[99.8,10921],[99.8,11005],[99.8,11091],[99.8,11166],[99.8,11250],[99.8,11341],[99.8,11429],[99.8,11517],[99.8,11601],[99.8,11685],[99.8,11808],[99.8,11897],[99.8,11986],[99.8,12070],[99.8,12156],[99.8,12237],[99.8,12331],[99.8,12413],[99.8,12498],[99.8,12579],[99.8,12663],[99.8,12740],[99.8,12824],[99.8,12908],[99.8,12991],[99.8,13075],[99.8,13161],[99.8,13242],[99.8,13333],[99.8,13418],[99.8,13510],[99.8,13593],[99.8,13677],[99.8,13762],[99.8,13857],[99.8,13956],[99.8,14050],[99.8,14130],[99.8,14219],[99.8,14300],[99.8,14387],[99.8,14481],[99.8,14565],[99.8,14649],[99.8,14740],[100,14848],[100,14937],[100,15016],[100,15101],[100,15184],[100,15296],[100,15396],[100,15477],[100,15567],[100,15646],[100,15727],[100,15825],[100,15908],[100,15988],[100,16078],[100,16179],[100,16265],[100,16346],[100,16432],[100,16512],[100,16593],[100,16674],[100,16757],[100,16841],[100,16925],[100,17009],[100,17097],[100,17176],[100,17285],[100,17366],[100,17452],[100,17534],[100,17618],[100,17711],[100,17819],[100,17904],[100,18003],[100,18086],[100,18171],[100,18253],[100,18339],[100,18490],[100,18587],[100,18666],[100,18750],[100,18836],[100,18918],[100,19000],[100,19084],[100,19168],[100,19252],[100,19336],[100,19419],[100,19502],[100,19586],[100,19670],[100,19753],[100,19838],[100,19921],[100,20006],[100,20091],[100,20173],[100,20256],[100,20351],[100,20500],[100,20591],[100,20692],[100,20776],[100,20867],[100,20949],[100,21033],[100,21125],[100,21211],[100,21299],[100,21391],[100,21482],[100,21569],[100,21712],[100,21808],[100,21903],[100,21997],[100,22081],[100,22182],[100,22280],[100,22380],[100,22463],[100,22541],[100,22649],[100,22750],[100,22841],[100,22918],[100,23005],[100,23086],[100,23175],[100,23261],[100,23352],[100,23438],[100,23528],[100,23621],[100,23721],[100,23817],[100,23904],[100,23998],[100,24081],[100,24184],[100,24262],[100,24355],[100,24424],[100,24509],[100,24592],[100,24675],[100,24759],[100,24842],[100,24926],[100,25010],[100,25099],[100,25178],[100,25266],[100,25357],[100,25447],[100,25539],[100,25628],[100,25707],[100,25795],[100,25879],[100,25954],[100,26038],[100,26122],[100,26198],[100,26307],[100,26404],[100,26485],[100,26572],[100,26650],[100,26735],[100,26817],[100,26902],[100,26993],[100,27070],[100,27159],[100,27241],[100,27336],[100,27424],[100,27514],[100,27596],[100,27692],[100,27774],[100,27858],[100,27947],[100,28048],[100,28134],[100,28211],[100,28293],[100,28381],[100,28461],[100,28543],[100,28626],[100,28711],[100,28796],[100,28877],[100,28961],[100,29045],[100,29128],[100,29212],[100,29301],[100,29386],[100,29487],[100,29563],[100,29647],[100,29731]]",1,0,630.86,630.918,,,[],,,,630.919,Definitely yes,100,630.959,,,[],,0,0,0,0,1,audio/Narrative13Situation2.wav,audio/Narrative13Situation2.wav,audio/Narrative13Situation2.wav,audio/Narrative13Situation2.wav,2,2,2,2,,,,,595.035,598.437,space,2.871,,,,,,,,,,,,,,,,,,,,,,,,,,,,,,,
,,,,,,65d863e56337aa59292ccd66,2024-05-13_13h51.31.807,group3.1-3.2-social-tom,2023.2.2,Win32,60.0240096,65c5074098b851296ff0b7ed,66424ff6e276cfb3c503739f,,,,,,,,,,,,,,,,,,,,,,,,,,,,,630.961,2,audio/Narrative5Situation1.wav,635.965,,635.966,649.26,"[[64.3,940],[46.9,1072],[37.8,1189],[17.9,1303],[10.5,1405],[0.5,1526],[0.5,1860],[2.1,1940],[2.3,2017],[2.3,2101],[2.3,2185],[2.3,2269],[2.3,2352],[2.3,2437],[2.3,2520],[2.3,2605],[2.3,2688],[2.3,2771],[2.3,2855],[4.6,2971],[5.1,3062],[5.1,3148],[5.1,3230],[5.1,3313],[5.1,3403],[5.1,3497],[5.1,3576],[5.1,3658],[5.1,3749],[5.2,3828],[5.2,3915],[5.2,3994],[5.2,4081],[5.2,4160],[5.2,4245],[5.2,4327],[5.2,4413],[5.2,4495],[5.2,4579],[5.2,4663],[5.2,4745],[5.2,4831],[5.2,4914],[5.2,4999],[5.2,5082],[5.2,5172],[5.2,5252],[5.2,5355],[5.2,5439],[5.2,5529],[5.2,5620],[5.2,5701],[5.2,5784],[5.2,5867],[5.2,5952],[5.2,6035],[5.2,6120],[5.2,6206],[5.2,6286],[5.2,6371],[5.2,6471],[5.2,6554],[5.2,6649],[5.2,6730],[5.2,6818],[5.2,6924],[5.2,7006],[5.2,7091],[5.2,7174],[5.2,7257],[5.2,7341],[5.2,7427],[5.2,7509],[5.2,7595],[5.2,7675],[5.2,7759],[5.2,7843],[5.2,7927],[5.2,8010],[5.2,8095],[5.2,8178],[5.2,8262],[5.2,8346],[5.2,8437],[5.2,8514],[5.2,8600],[5.2,8680],[5.2,8769],[5.2,8860],[5.2,8946],[5.2,9028],[5.2,9115],[5.2,9199],[5.2,9288],[5.2,9367],[5.2,9456],[5.2,9538],[5.2,9617],[5.2,9707],[5.2,9786],[5.2,9869],[5.2,9952],[5.2,10035],[5.2,10124],[5.2,10203],[5.2,10288],[5.2,10370],[5.2,10461],[5.2,10545],[5.2,10635],[5.2,10723],[5.2,10813],[5.2,10906],[5.2,10994],[5.2,11074],[5.2,11165],[5.2,11250],[5.2,11332],[10.9,11451],[20.4,11617],[24.1,11738],[27,11833],[27,11911],[27,11995],[27,12078],[27,12163],[27,12245],[27,12329],[27,12415],[27,12514],[27,12597],[27,12680],[27,12767],[27,12848],[27,12935],[27,13029],[27,13116],[27,13199],[27,13291]]",1,0,649.261,654.683,32.284041,1.348,"[{""rating"":32.28404099560761,""responseTime"":1.34800000000007}]",space,4.883,,654.684,Not at all,0,654.762,,,[],,0,1,1,1,1,audio/Narrative7Situation1.wav,audio/Narrative8Situation1.wav,audio/Narrative5Situation1.wav,audio/Narrative6Situation1.wav,2,5,5,2,,,,,,,,,,,,,,,,,,,,,,,,,,,,,,,,,,,,,,,
,,,,,,65d863e56337aa59292ccd66,2024-05-13_13h51.31.807,group3.1-3.2-social-tom,2023.2.2,Win32,60.0240096,65c5074098b851296ff0b7ed,66424ff6e276cfb3c503739f,,,,,,,,,,,,,,,,,,,,,,,,,,,,,654.766,2,audio/Narrative5Situation2.wav,657.774,,657.774,687.237,"[[999,6],[999,136],[999,221],[999,303],[999,391],[999,524],[999,606],[999,706],[999,837],[999,942],[13.3,1039],[12.5,1144],[12.5,1235],[12.5,1319],[12.5,1403],[12.5,1486],[12.5,1571],[12.5,1660],[12.5,1737],[12.5,1822],[12.5,1905],[12.5,1989],[12.5,2072],[12.5,2163],[12.5,2240],[12.5,2323],[12.5,2408],[12.5,2490],[12.5,2579],[12.5,2678],[12.5,2764],[12.5,2843],[12.5,2942],[12.5,3030],[12.5,3124],[12.5,3206],[12.5,3293],[12.5,3379],[12.5,3461],[12.5,3547],[12.5,3638],[12.5,3730],[12.5,3813],[12.5,3899],[12.5,3980],[12.5,4064],[12.5,4149],[12.5,4251],[12.5,4336],[12.5,4422],[12.5,4500],[12.5,4591],[12.5,4697],[12.5,4781],[12.5,4871],[12.5,4951],[12.5,5037],[12.5,5119],[12.5,5203],[12.5,5293],[12.5,5370],[12.5,5454],[12.5,5538],[12.5,5629],[12.5,5706],[12.5,5788],[12.5,5871],[12.5,5956],[12.5,6039],[12.5,6124],[12.5,6215],[12.5,6319],[12.5,6399],[12.5,6483],[12.5,6564],[12.5,6667],[12.5,6752],[12.5,6834],[12.5,6917],[12.5,6997],[12.5,7096],[12.5,7178],[12.5,7283],[12.5,7366],[12.5,7485],[12.5,7568],[12.5,7672],[12.5,7768],[12.5,7860],[12.5,7958],[12.5,8057],[12.5,8139],[12.5,8231],[12.5,8317],[12.5,8399],[12.5,8485],[12.5,8569],[12.5,8653],[12.5,8735],[12.5,8821],[12.5,8903],[12.5,8985],[12.5,9068],[12.5,9163],[12.5,9264],[12.5,9375],[12.5,9454],[12.5,9538],[12.5,9627],[12.5,9722],[12.5,9807],[12.5,9896],[12.5,9973],[12.5,10057],[12.5,10140],[12.5,10225],[12.5,10311],[12.5,10398],[12.5,10478],[12.5,10559],[12.5,10651],[12.5,10740],[12.5,10834],[12.5,10912],[12.5,10996],[12.5,11084],[12.5,11163],[12.5,11246],[12.5,11332],[12.5,11413],[12.5,11497],[12.5,11581],[12.5,11668],[12.5,11747],[12.5,11831],[12.5,11915],[12.5,12000],[12.5,12083],[12.5,12174],[12.5,12275],[12.5,12355],[12.5,12442],[12.5,12531],[12.5,12627],[12.5,12718],[12.5,12802],[12.5,12888],[12.5,12970],[12.5,13053],[12.5,13144],[12.5,13222],[12.5,13304],[12.5,13389],[12.5,13478],[12.5,13557],[12.5,13646],[12.5,13723],[12.5,13809],[12.5,13890],[12.5,13975],[12.5,14059],[12.5,14141],[12.5,14226],[12.5,14309],[12.5,14399],[12.5,14476],[12.5,14561],[12.5,14649],[12.5,14727],[12.5,14811],[12.5,14894],[12.5,14978],[12.5,15071],[12.5,15175],[12.5,15259],[12.5,15347],[12.5,15430],[12.5,15524],[12.5,15605],[12.5,15694],[12.5,15769],[12.5,15850],[12.5,15932],[12.5,16016],[12.5,16101],[12.5,16184],[12.5,16274],[12.5,16351],[12.5,16436],[12.5,16519],[12.5,16603],[12.5,16702],[12.5,16783],[12.5,16864],[12.5,16944],[12.5,17028],[12.5,17119],[12.5,17199],[12.5,17283],[12.5,17366],[12.5,17446],[12.5,17525],[12.5,17607],[12.5,17693],[12.5,17774],[12.5,17858],[12.5,17942],[12.5,18025],[12.5,18110],[12.5,18192],[12.5,18278],[12.5,18361],[12.5,18443],[12.5,18528],[12.5,18612],[12.5,18697],[12.5,18779],[12.5,18862],[12.5,18952],[12.5,19033],[12.5,19120],[12.5,19198],[12.5,19280],[12.5,19370],[12.5,19456],[12.5,19548],[12.5,19639],[12.5,19725],[12.5,19807],[12.5,19891],[12.5,19975],[12.5,20057],[12.5,20151],[12.5,20235],[12.5,20322],[12.5,20412],[12.5,20495],[12.5,20587],[12.5,20677],[12.5,20765],[12.5,20852],[12.5,20934],[12.5,21038],[12.5,21119],[12.5,21202],[12.5,21283],[12.5,21371],[12.5,21457],[12.5,21542],[12.5,21629],[12.5,21715],[12.5,21799],[12.5,21882],[12.5,21959],[12.5,22043],[12.5,22126],[12.5,22211],[12.5,22294],[12.5,22377],[12.5,22462],[12.5,22550],[12.5,22636],[12.5,22720],[15.3,22842],[17.2,22953],[17.5,23034],[19.5,23163],[24.8,23294],[27.3,23390],[28.3,23476],[29.5,23574],[29.5,23653],[29.5,23733],[33.2,23841],[35.1,23927],[35.1,24001],[35.1,24086],[35.1,24169],[35.1,24252],[35.1,24340],[35.1,24419],[35.1,24504],[35.1,24591],[35.1,24693],[35.1,24773],[35.1,24855],[35.1,24938],[35.1,25024],[35.1,25112],[35.1,25197],[35.1,25281],[34.6,25374],[34.6,25453],[34.6,25533],[34.6,25635],[34.6,25726],[34.6,25809],[34.6,25894],[34.6,25982],[34.6,26062],[34.6,26144],[34.6,26227],[34.6,26312],[34.6,26396],[34.6,26480],[34.6,26567],[34.6,26687],[34.6,26778],[34.6,26874],[34.6,26972],[34.6,27063],[34.6,27149],[34.6,27249],[34.6,27329],[34.6,27425],[34.6,27501],[34.6,27583],[34.6,27687],[34.6,27769],[34.6,27851],[34.6,27936],[34.6,28019],[34.6,28103],[34.6,28187],[34.6,28276],[34.6,28355],[34.6,28442],[34.6,28521],[34.6,28606],[34.6,28707],[34.6,28789],[34.6,28877],[34.6,28957],[34.6,29040],[34.6,29130],[34.6,29216],[34.6,29293],[34.6,29375],[34.6,29461]]",1,0,687.238,698.07,49.70717423,9.462,"[{""rating"":34.626647144948755,""responseTime"":0.7939999999999827},{""rating"":49.70717423133236,""responseTime"":9.461999999999989}]",space,10.281,,698.071,Not at all,0,698.101,,,[],,0,2,2,2,1,audio/Narrative7Situation2.wav,audio/Narrative8Situation2.wav,audio/Narrative5Situation2.wav,audio/Narrative6Situation2.wav,3,3,3,3,,,,,,,,,,,,,,,,,,,,,,,,,,,,,,,,,,,,,,,
,,,,,,65d863e56337aa59292ccd66,2024-05-13_13h51.31.807,group3.1-3.2-social-tom,2023.2.2,Win32,60.0240096,65c5074098b851296ff0b7ed,66424ff6e276cfb3c503739f,,,,,,,,,,,,,,,,,,,,,,,,,,,,,698.105,2,audio/Narrative5Situation3.wav,701.112,,701.112,715.029,"[[48.2,912],[40.5,1027],[34.2,1144],[30.2,1245],[24.2,1374],[24.1,1455],[29.8,1560],[35.9,1649],[39.6,1745],[41.1,1830],[45.9,1921],[46.2,1995],[48.5,2094],[50.9,2180],[50.9,2260],[50.9,2341],[50.9,2426],[50.9,2509],[41.5,2615],[31.1,2717],[26.6,2825],[26.4,2899],[26.4,2978],[25.4,3062],[25.3,3151],[25.3,3230],[25.3,3317],[25.3,3397],[25.3,3480],[25.3,3565],[25.3,3648],[25.3,3734],[25.3,3816],[25.3,3904],[25.3,3983],[25.3,4066],[25.3,4149],[28.5,4243],[33.5,4380],[35.9,4466],[38,4560],[38.7,4642],[38.7,4720],[38.7,4802],[38.7,4887],[42.7,4986],[43.1,5071],[44.3,5180],[46.8,5293],[61.9,5464],[78.8,5582],[92.2,5687],[94.7,5774],[100,5884],[100,5962],[100,6042],[100,6125],[100,6209],[100,6298],[100,6377],[100,6461],[100,6543],[100,6628],[100,6711],[100,6796],[100,6879],[100,6961],[100,7056],[100,7135],[100,7214],[100,7300],[100,7387],[100,7471],[100,7565],[100,7649],[100,7733],[100,7825],[100,7917],[100,8000],[100,8086],[100,8167],[100,8250],[100,8341],[100,8426],[100,8509],[100,8600],[100,8678],[100,8762],[100,8839],[100,8927],[100,9005],[100,9095],[100,9182],[100,9264],[100,9365],[100,9455],[100,9552],[100,9640],[100,9725],[100,9824],[100,9899],[100,9981],[100,10058],[100,10143],[100,10226],[100,10349],[100,10430],[100,10529],[100,10629],[100,10711],[100,10800],[100,10895],[100,10983],[100,11062],[100,11151],[100,11231],[100,11326],[100,11407],[100,11489],[100,11574],[100,11657],[100,11740],[100,11825],[100,11917],[100,11995],[100,12068],[100,12158],[100,12243],[100,12326],[100,12408],[100,12486],[100,12570],[100,12656],[100,12740],[100,12821],[100,12906],[100,12989],[100,13072],[100,13156],[100,13243],[100,13341],[100,13423],[100,13508],[100,13599],[100,13685],[100,13798],[100,13914]]",1,0,715.031,723.938,100,7.054,"[{""rating"":98.75549048316252,""responseTime"":5.54099999999994},{""rating"":100,""responseTime"":7.053999999999974}]",space,8.362,,723.939,Not at all,0,723.979,,,[],,0,3,3,3,1,audio/Narrative7Situation3.wav,audio/Narrative8Situation3.wav,audio/Narrative5Situation3.wav,audio/Narrative6Situation3.wav,8,4,3,5,,,,,,,,,,,,,,,,,,,,,,,,,,,,,,,,,,,,,,,
,,,,,,65d863e56337aa59292ccd66,2024-05-13_13h51.31.807,group3.1-3.2-social-tom,2023.2.2,Win32,60.0240096,65c5074098b851296ff0b7ed,66424ff6e276cfb3c503739f,,,,,,,,,,,,,,,,,,,,,,,,,,,,,723.983,2,audio/Narrative5Situation4.wav,725.006,,725.006,745.419,"[[999,4],[999,167],[999,244],[999,330],[999,451],[999,551],[999,630],[999,725],[999,841],[999,924],[999,996],[15,1085],[17.9,1182],[18.2,1269],[18.2,1349],[20.7,1448],[24.2,1538],[24.2,1616],[24.2,1700],[24.2,1783],[24.2,1866],[24.2,1951],[24.2,2034],[24.2,2124],[24.2,2201],[24.2,2284],[24.2,2375],[24.2,2464],[24.2,2549],[24.2,2629],[24.2,2711],[24.2,2805],[24.2,2889],[24.2,2972],[24.2,3062],[24.2,3149],[24.2,3231],[24.2,3312],[24.2,3414],[24.2,3509],[24.2,3597],[24.2,3676],[24.2,3765],[24.2,3855],[24.2,3938],[24.2,4027],[24.2,4135],[24.8,4238],[24.8,4325],[24.8,4437],[24.8,4528],[24.8,4620],[24.8,4711],[24.8,4802],[26,4895],[26.4,4980],[26.4,5065],[26.4,5148],[26.4,5231],[26.4,5322],[26.4,5408],[26.4,5494],[26.4,5587],[26.4,5667],[26.4,5750],[26.4,5836],[26.4,5918],[26.4,6001],[26.4,6113],[26.4,6192],[26.4,6277],[26.4,6366],[26.4,6460],[26.4,6537],[26.4,6621],[26.4,6705],[26.4,6788],[26.4,6875],[26.4,6956],[26.4,7046],[26.4,7124],[26.4,7207],[26.4,7292],[26.4,7375],[26.4,7475],[26.4,7558],[26.4,7643],[26.4,7726],[26.4,7811],[26.4,7894],[26.4,7976],[26.4,8065],[26.4,8144],[26.4,8230],[26.4,8312],[26.4,8418],[26.4,8496],[26.4,8590],[26.4,8666],[26.4,8754],[26.4,8831],[26.4,8917],[26.4,9003],[26.4,9096],[26.4,9182],[26.4,9269],[26.4,9359],[26.4,9464],[26.4,9546],[26.4,9626],[36.8,9740],[48.2,9859],[48.2,9937],[48.2,10024],[48.2,10125],[48.2,10230],[48.2,10315],[48.5,10435],[49.4,10517],[49.4,10589],[49.4,10673],[49.4,10755],[49.4,10840],[49.4,10923],[49.4,11009],[49.4,11091],[49.4,11181],[49.4,11259],[49.4,11341],[49.4,11427],[49.4,11509],[49.4,11592],[49.4,11677],[49.4,11759],[49.4,11845],[49.4,11931],[49.4,12015],[49.4,12097],[49.4,12178],[49.4,12269],[49.4,12352],[49.4,12445],[49.4,12531],[49.4,12615],[49.4,12697],[49.4,12782],[49.4,12865],[49.4,12951],[49.4,13033],[49.4,13116],[49.4,13204],[49.4,13288],[49.4,13366],[49.4,13465],[49.4,13542],[49.4,13626],[49.4,13711],[49.4,13793],[49.4,13885],[49.4,13971],[49.4,14061],[49.4,14147],[49.4,14231],[49.4,14316],[49.4,14413],[49.4,14489],[49.4,14575],[49.4,14658],[49.4,14740],[49.4,14827],[49.4,14908],[49.4,14991],[49.4,15075],[49.4,15158],[49.4,15243],[49.4,15326],[49.4,15419],[49.4,15524],[49.4,15608],[49.4,15697],[49.4,15778],[49.4,15861],[49.4,15947],[49.4,16036],[49.4,16126],[49.4,16212],[49.4,16298],[49.4,16400],[58.6,16562],[77.8,16688],[85.3,16802],[85.4,16883],[85.4,16966],[85.4,17051],[85.4,17134],[85.4,17216],[85.4,17302],[85.4,17402],[92.3,17529],[99.5,17680],[99.5,17754],[99.5,17839],[99.5,17921],[99.5,18004],[99.5,18087],[99.5,18172],[99.5,18255],[99.5,18340],[99.5,18427],[99.5,18505],[99.5,18591],[99.5,18674],[99.5,18759],[99.5,18841],[99.5,18924],[99.5,19009],[99.5,19092],[99.5,19181],[99.5,19259],[99.5,19344],[99.5,19435],[99.5,19518],[99.5,19596],[99.5,19678],[99.5,19762],[99.5,19847],[99.5,19930],[99.5,20018],[99.5,20102],[99.5,20181],[99.5,20264],[99.5,20350]]",1,0,745.428,749.876,99.63396779,1.483,"[{""rating"":99.63396778916544,""responseTime"":1.4829999999999472}]",space,3.915,,749.876,Not at all,0,749.892,,,[],,0,4,4,4,1,audio/Narrative7Situation4.wav,audio/Narrative8Situation4.wav,audio/Narrative5Situation4.wav,audio/Narrative6Situation4.wav,3,3,1,2,,,,,,,,,,,,,,,,,,,,,,,,,,,,,,,,,,,,,,,
,,,,,,65d863e56337aa59292ccd66,2024-05-13_13h51.31.807,group3.1-3.2-social-tom,2023.2.2,Win32,60.0240096,65c5074098b851296ff0b7ed,66424ff6e276cfb3c503739f,,,,,,,,,,,,,,,,,,,,,,,,,,,,,749.895,2,audio/Narrative5Situation5.wav,754.907,,754.907,770.333,"[[98.9,1576],[92.2,1693],[76.6,1794],[58.9,1896],[52.3,1988],[52.3,2064],[52.3,2148],[52.3,2234],[52.3,2319],[46.5,2432],[40,2556],[40,2641],[39.6,2746],[33.3,2860],[33,2948],[31.1,3067],[26.9,3179],[26.7,3266],[26.4,3362],[25.7,3462],[24.8,3585],[24.8,3672],[24.8,3757],[24.8,3839],[24.8,3925],[24.8,4006],[24.8,4094],[24.8,4174],[24.8,4258],[24.8,4342],[24.8,4431],[24.8,4517],[24.8,4600],[24.8,4677],[24.8,4760],[24.8,4850],[24.8,4938],[24.8,5035],[24.8,5132],[24.8,5212],[24.8,5295],[24.8,5379],[24.8,5466],[24.8,5553],[24.8,5630],[24.8,5714],[24.8,5800],[30.2,5942],[38.3,6061],[44,6161],[45.3,6249],[45.3,6320],[45.3,6400],[45.3,6487],[45.6,6573],[49.6,6667],[51.5,6773],[57,6878],[59.7,6969],[59.7,7053],[60,7138],[61.4,7221],[61.4,7304],[61.4,7388],[61.4,7472],[61.4,7555],[61.4,7640],[61.4,7723],[61.4,7807],[61.4,7890],[61.4,7975],[61.7,8060],[61.7,8142],[61.7,8225],[61.7,8309],[61.7,8392],[61.7,8476],[61.7,8583],[61.7,8667],[61.7,8751],[61.7,8834],[61.7,8919],[61.7,9006],[61.7,9087],[61.7,9170],[61.7,9253],[61.7,9337],[61.7,9421],[61.7,9509],[61.7,9604],[61.7,9683],[61.7,9765],[61.7,9850],[61.7,9933],[61.7,10019],[61.7,10106],[61.7,10184],[61.7,10274],[61.7,10358],[61.7,10442],[61.7,10549],[61.7,10632],[61.7,10723],[61.7,10803],[61.7,10889],[61.7,10970],[61.7,11054],[61.7,11138],[61.7,11221],[61.7,11305],[61.7,11390],[61.7,11475],[61.7,11563],[61.7,11651],[61.7,11733],[61.7,11821],[61.7,11912],[61.7,11991],[61.7,12076],[61.7,12167],[61.7,12249],[61.7,12333],[61.7,12418],[61.7,12507],[61.7,12691],[61.7,12786],[61.7,12879],[61.7,12979],[61.7,13080],[61.7,13201],[61.7,13280],[61.7,13368],[61.7,13448],[61.7,13533],[61.7,13616],[61.7,13699],[61.7,13783],[61.7,13868],[61.7,13950],[61.7,14035],[61.7,14120],[61.7,14201],[61.7,14291],[61.7,14370],[61.7,14461],[61.7,14559],[61.7,14637],[61.7,14720],[61.7,14806],[61.7,14890],[61.7,14988],[61.7,15072],[61.7,15160],[61.7,15239],[61.7,15325],[61.7,15408]]",1,0,770.335,774.618,61.71303075,2.665,"[{""rating"":61.71303074670571,""responseTime"":2.6649999999999636}]",space,3.739,,774.619,Not at all,0,774.638,,,[],,0,5,5,5,1,audio/Narrative7Situation5.wav,audio/Narrative8Situation5.wav,audio/Narrative5Situation5.wav,audio/Narrative6Situation5.wav,5,2,5,2,,,,,,,,,,,,,,,,,,,,,,,,,,,,,,,,,,,,,,,
,,,,,,65d863e56337aa59292ccd66,2024-05-13_13h51.31.807,group3.1-3.2-social-tom,2023.2.2,Win32,60.0240096,65c5074098b851296ff0b7ed,66424ff6e276cfb3c503739f,,,,,,,,,,,,,,,,,,,,,,,,,,,,,774.64,2,audio/Narrative5Situation6.wav,777.646,,777.646,783.338,"[[27,3339],[26.9,3413],[26.9,3499],[26.9,3587],[26.9,3665],[26.9,3750],[26.9,3832],[26.9,3917],[26.9,4000],[26.9,4084],[26.9,4185],[26.9,4268],[26.9,4351],[26.9,4436],[41.1,4538],[66.7,4644],[80.3,4767],[80.3,4841],[80.3,4922],[77.2,5012],[67.6,5110],[67.6,5189],[67.4,5272],[67.3,5355],[67.3,5442],[67.1,5526],[67.1,5611]]",1,0,783.338,786.035,68.30161054,1.335,"[{""rating"":68.30161054172767,""responseTime"":1.3349999999999227}]",space,2.164,,786.036,Definitely yes,100,786.058,,,[],,0,6,6,6,1,audio/Narrative7Situation6.wav,audio/Narrative8Situation6.wav,audio/Narrative5Situation6.wav,audio/Narrative6Situation6.wav,3,2,3,2,,,,,,,,,,,,,,,,,,,,,,,,,,,,,,,,,,,,,,,
,,,,,,65d863e56337aa59292ccd66,2024-05-13_13h51.31.807,group3.1-3.2-social-tom,2023.2.2,Win32,60.0240096,65c5074098b851296ff0b7ed,66424ff6e276cfb3c503739f,,,,,,,,,,,,,,,,,,,,,,,,,,,,,786.059,2,audio/Narrative5Situation7.wav,790.076,,790.076,811.118,"[[60.2,786],[34.9,916],[32.4,1011],[32.4,1094],[32.4,1179],[49.7,1371],[50.7,1488],[50.7,1580],[50.7,1663],[50.7,1750],[50.7,1837],[50.7,1915],[50.7,1998],[50.7,2082],[50.7,2170],[50.7,2250],[50.7,2348],[50.7,2458],[50.7,2535],[50.7,2618],[50.7,2702],[50.7,2785],[50.7,2870],[50.7,2954],[50.7,3038],[50.7,3120],[50.7,3209],[50.7,3294],[50.7,3381],[50.7,3458],[50.7,3539],[50.7,3622],[50.7,3705],[50.7,3790],[50.7,3876],[50.7,3957],[40.9,4067],[39.2,4173],[38.6,4261],[38.4,4344],[38.4,4425],[38.4,4510],[38.4,4596],[38.4,4684],[38.4,4769],[38.4,4852],[38.4,4935],[38.4,5022],[38.4,5106],[40.8,5226],[44.6,5390],[44.6,5463],[44.6,5548],[46.6,5642],[47.8,5740],[47.8,5815],[48,5900],[48.4,5985],[48.4,6067],[48.5,6152],[49,6238],[49,6320],[49.1,6404],[49.3,6487],[49.4,6568],[49.4,6652],[49.4,6736],[49.4,6819],[49.4,6903],[49.4,6990],[49.4,7072],[49.4,7155],[49.4,7255],[49.4,7341],[49.4,7423],[49.4,7533],[49.4,7615],[49.4,7694],[49.4,7774],[49.4,7860],[49.4,7942],[49.4,8024],[49.4,8110],[49.4,8193],[49.4,8276],[49.4,8373],[49.4,8461],[49.4,8544],[49.4,8627],[49.4,8711],[49.4,8796],[49.4,8882],[49.4,8962],[49.4,9046],[49.4,9130],[49.4,9218],[49.4,9304],[49.4,9402],[49.4,9481],[49.4,9565],[49.4,9649],[49.4,9738],[49.4,9817],[49.4,9900],[49.6,9987],[49.7,10067],[49.7,10151],[49.7,10235],[49.7,10338],[49.7,10418],[49.7,10504],[49.7,10589],[49.7,10669],[49.7,10754],[49.9,10837],[49.9,10921],[49.9,11005],[49.9,11088],[49.9,11173],[49.9,11264],[49.9,11365],[49.9,11449],[49.9,11524],[49.9,11607],[49.9,11690],[49.9,11777],[49.9,11858],[49.9,11943],[49.9,12026],[49.9,12110],[49.9,12193],[49.9,12278],[49.9,12378],[49.9,12461],[49.9,12545],[49.9,12628],[49.9,12712],[49.9,12796],[49.9,12879],[49.9,12980],[49.9,13065],[49.9,13153],[49.9,13241],[49.9,13344],[49.9,13421],[49.9,13501],[49.9,13583],[49.9,13666],[49.9,13750],[49.9,13834],[49.9,13918],[50.1,14003],[50.3,14097],[50.3,14183],[50.3,14261],[50.3,14349],[50.3,14420],[50.3,14504],[50.3,14587],[50.3,14676],[50.3,14760],[50.3,14838],[50.3,14928],[50.3,15005],[50.3,15089],[50.3,15173],[50.3,15262],[50.3,15352],[50.3,15437],[50.3,15514],[50.3,15597],[50.3,15677],[50.3,15759],[50.3,15843],[50.3,15929],[50.3,16010],[50.3,16096],[50.3,16177],[50.3,16261],[50.3,16348],[50.3,16429],[50.3,16522],[50.3,16616],[50.3,16698],[50.3,16780],[50.3,16871],[50.3,16948],[50.3,17031],[50.3,17115],[50.3,17199],[50.3,17285],[50.3,17400],[50.3,17485],[50.3,17572],[50.3,17650],[50.3,17737],[50.3,17817],[50.3,17901],[50.3,17985],[50.3,18069],[50.3,18152],[50.3,18237],[50.3,18330],[50.3,18416],[50.3,18505],[50.3,18588],[50.3,18676],[50.3,18756],[50.3,18838],[50.3,18923],[50.3,19006],[50.3,19098],[50.3,19195],[50.3,19283],[50.3,19391],[50.3,19476],[50.3,19559],[50.3,19646],[50.3,19726],[50.3,19810],[50.3,19894],[50.3,19977],[50.3,20062],[50.3,20144],[50.3,20229],[50.3,20315],[50.3,20406],[50.3,20486],[50.3,20586],[50.3,20677],[50.3,20760],[50.3,20860],[50.3,20938],[50.3,21022]]",1,0,811.121,816.583,29.50219619,3.801,"[{""rating"":31.844802342606148,""responseTime"":2.836999999999989},{""rating"":29.502196193265007,""responseTime"":3.8010000000000446}]",space,4.922,,816.585,Not at all,0,816.625,,,[],,0,7,7,7,1,audio/Narrative7Situation7.wav,audio/Narrative8Situation7.wav,audio/Narrative5Situation7.wav,audio/Narrative6Situation7.wav,5,3,4,5,,,,,,,,,,,,,,,,,,,,,,,,,,,,,,,,,,,,,,,
,,,,,,65d863e56337aa59292ccd66,2024-05-13_13h51.31.807,group3.1-3.2-social-tom,2023.2.2,Win32,60.0240096,65c5074098b851296ff0b7ed,66424ff6e276cfb3c503739f,,,,,,,,,,,,,,,,,,,,,,,,,,,,,816.628,2,audio/Narrative5Situation8.wav,819.634,,819.634,828.466,"[[31.7,121],[31.7,202],[31.7,281],[31.7,362],[31.4,452],[31.4,536],[31.4,613],[28.9,711],[28.3,798],[28.3,881],[28.3,966],[28.3,1049],[28.3,1132],[28.3,1222],[28.3,1304],[28.3,1385],[28.3,1474],[28.2,1578],[28.2,1723],[28.2,1852],[28.2,1937],[28.2,2024],[28.2,2105],[28.2,2187],[28.2,2271],[28.2,2355],[28.2,2447],[28.2,2522],[28.2,2605],[28.2,2693],[28.2,2779],[28.2,2858],[28.2,2942],[28.2,3024],[28.2,3108],[28.2,3193],[28.2,3278],[28.2,3424],[28.2,3511],[28.2,3605],[28.2,3690],[28.2,3788],[28.2,3892],[28.2,3981],[28.2,4076],[28.2,4163],[28.2,4254],[28.2,4370],[28.2,4454],[28.2,4538],[28.2,4623],[28.2,4706],[28.2,4805],[28.2,4897],[28.2,4982],[28.2,5067],[28.2,5150],[28.2,5242],[28.2,5326],[28.2,5409],[28.2,5495],[28.2,5586],[28.2,5669],[28.2,5767],[28.2,5865],[28.2,5951],[28.2,6040],[28.2,6121],[28.2,6206],[28.2,6289],[28.2,6372],[28.2,6457],[28.2,6539],[28.2,6625],[28.2,6707],[28.2,6798],[28.2,6875],[28.2,6966],[28.2,7043],[28.2,7126],[28.2,7211],[28.2,7294],[28.2,7377],[28.2,7461],[28.2,7545],[28.2,7629],[28.2,7712],[28.2,7819],[28.2,7903],[28.2,7982],[28.2,8070],[28.2,8149],[28.2,8231],[28.2,8315],[28.2,8399],[28.2,8483],[28.2,8567],[28.2,8651],[28.2,8742],[28.2,8826]]",1,0,828.467,837.981,15.88579795,8.445,"[{""rating"":29.355783308931183,""responseTime"":2.2460000000000946},{""rating"":15.88579795021962,""responseTime"":8.44500000000005}]",space,8.962,,837.982,Not at all,0,838.022,,,[],,0,8,8,8,1,audio/Narrative7Situation8.wav,audio/Narrative8Situation8.wav,audio/Narrative5Situation8.wav,audio/Narrative6Situation8.wav,2,3,3,5,,,,,,,,,,,,,,,,,,,,,,,,,,,,,,,,,,,,,,,
,,,,,,65d863e56337aa59292ccd66,2024-05-13_13h51.31.807,group3.1-3.2-social-tom,2023.2.2,Win32,60.0240096,65c5074098b851296ff0b7ed,66424ff6e276cfb3c503739f,,,,,,,,,,,,,,,,,,,,,,,,,,,,,838.025,2,audio/Narrative5Situation9.wav,841.041,,841.042,880.599,"[[999,3],[999,131],[999,214],[999,299],[999,409],[999,510],[999,602],[999,684],[999,770],[999,850],[999,935],[999,1019],[999,1114],[999,1232],[999,1341],[999,1440],[999,1560],[21.7,1682],[20.9,1795],[20.9,1879],[20.7,1958],[20.6,2040],[20.6,2123],[18.5,2221],[18.5,2290],[18.5,2373],[18.5,2457],[12.8,2568],[12.7,2642],[12.7,2726],[12.7,2809],[12.7,2894],[12.7,2977],[12.7,3060],[12.7,3146],[12.7,3233],[12.7,3311],[12.7,3404],[12.7,3485],[12.7,3563],[12.7,3645],[12.7,3733],[12.7,3838],[12.7,3914],[12.7,3998],[12.7,4081],[12.7,4165],[12.7,4254],[12.7,4353],[12.7,4438],[12.7,4516],[12.7,4600],[12.7,4684],[12.7,4769],[12.7,4855],[12.7,4935],[12.7,5019],[12.7,5103],[12.7,5186],[12.7,5270],[12.7,5361],[12.7,5454],[12.7,5538],[12.7,5621],[12.7,5708],[12.7,5789],[12.7,5872],[12.7,5959],[12.7,6040],[12.7,6123],[12.7,6218],[12.7,6298],[12.7,6403],[12.7,6482],[12.7,6559],[12.7,6642],[12.7,6729],[12.7,6810],[12.7,6894],[12.7,6977],[12.7,7068],[12.7,7152],[12.7,7237],[12.7,7331],[12.7,7427],[12.7,7513],[12.7,7597],[12.7,7681],[12.7,7769],[12.7,7848],[12.7,7931],[12.7,8015],[12.7,8098],[12.7,8182],[12.7,8266],[12.7,8353],[12.7,8434],[12.7,8528],[12.7,8612],[12.7,8691],[12.7,8772],[12.7,8852],[12.7,8943],[12.7,9024],[12.7,9104],[12.7,9188],[12.7,9271],[12.7,9359],[12.7,9438],[12.7,9521],[12.7,9606],[12.7,9689],[12.7,9774],[12.7,9858],[12.7,9940],[12.7,10032],[12.7,10111],[12.7,10195],[12.7,10281],[12.7,10359],[12.7,10466],[12.7,10543],[12.7,10627],[12.7,10710],[12.7,10794],[12.7,10879],[12.7,10961],[12.7,11045],[12.7,11129],[12.7,11213],[12.7,11296],[12.7,11399],[12.7,11480],[12.7,11564],[12.7,11655],[12.7,11731],[12.7,11815],[12.7,11899],[12.7,11982],[12.7,12066],[12.7,12150],[12.7,12233],[12.7,12317],[12.7,12413],[12.7,12509],[12.7,12620],[12.7,12754],[12.7,12853],[12.7,12940],[12.7,13028],[12.7,13112],[12.7,13195],[12.7,13278],[12.7,13368],[12.7,13464],[12.7,13553],[12.7,13649],[12.7,13741],[12.7,13832],[12.7,13951],[12.7,14068],[12.7,14168],[12.7,14261],[12.7,14366],[12.7,14460],[12.7,14545],[12.7,14630],[12.7,14724],[12.7,14804],[12.7,14887],[12.7,14962],[12.7,15046],[12.7,15130],[12.7,15213],[12.7,15298],[12.7,15388],[12.7,15471],[12.5,15573],[12.7,15689],[12.7,15775],[12.7,15856],[12.7,15940],[17.8,16066],[25.4,16195],[30.8,16298],[40.3,16447],[44.3,16568],[44.4,16646],[44.4,16721],[44.9,16809],[53.2,16918],[54.8,17011],[54.8,17088],[54.8,17171],[54.8,17256],[54.8,17341],[54.8,17424],[54.8,17513],[54.8,17597],[54.8,17680],[54.8,17765],[55,17851],[61.7,17982],[66.4,18097],[66.5,18177],[66.5,18260],[66.5,18349],[70.6,18463],[70.8,18548],[71.8,18714],[71.8,18798],[71.8,18894],[74.5,19054],[74.5,19136],[74.5,19214],[74.5,19298],[74.5,19383],[74.5,19465],[74.5,19548],[74.5,19633],[74.5,19716],[74.5,19800],[74.5,19883],[74.5,19973],[74.5,20051],[74.5,20134],[74.5,20218],[74.5,20302],[74.5,20385],[74.5,20471],[74.5,20553],[74.5,20637],[74.5,20721],[74.5,20804],[74.5,20888],[74.5,20972],[74.5,21056],[74.5,21139],[74.5,21223],[74.5,21307],[74.5,21390],[74.5,21474],[74.5,21558],[74.5,21642],[74.5,21728],[74.5,21811],[74.5,21892],[74.5,22000],[74.5,22079],[74.5,22163],[74.5,22245],[74.5,22346],[74.5,22427],[74.5,22512],[74.5,22598],[74.5,22680],[74.5,22762],[74.5,22849],[74.5,22930],[74.5,23016],[74.5,23098],[74.5,23181],[74.5,23265],[74.5,23352],[74.5,23455],[74.5,23552],[74.5,23639],[74.5,23721],[74.5,23801],[74.5,23884],[74.5,23968],[74.5,24062],[74.6,24138],[74.6,24219],[74.6,24303],[74.9,24396],[74.9,24476],[75.2,24577],[75.5,24655],[75.5,24739],[75.6,24822],[75.6,24905],[75.6,24990],[75.6,25073],[75.6,25156],[75.6,25240],[75.6,25324],[75.6,25413],[75.6,25492],[75.6,25575],[75.6,25659],[75.6,25743],[75.6,25827],[75.6,25910],[75.6,25993],[75.6,26078],[75.6,26162],[75.6,26251],[75.6,26328],[75.6,26412],[75.6,26497],[75.6,26579],[75.6,26663],[75.6,26753],[75.6,26831],[75.6,26914],[75.6,26998],[75.6,27082],[75.6,27165],[75.6,27250],[75.6,27338],[75.8,27423],[75.8,27501],[75.8,27585],[75.8,27668],[75.8,27756],[75.8,27835],[75.8,27919],[75.8,28003],[75.6,28086],[75.6,28170],[75.6,28254],[75.6,28342],[75.6,28421],[75.6,28515],[75.6,28603],[75.6,28687],[75.6,28764],[75.6,28839],[75.6,28923],[75.6,29008],[75.6,29091],[75.6,29175],[75.6,29259],[75.6,29342],[75.6,29432],[75.6,29516],[75.6,29593],[75.6,29676],[75.6,29760],[75.6,29844],[75.6,29928],[75.6,30012],[75.6,30098],[75.6,30179],[75.6,30263],[75.6,30351],[75.6,30468],[75.6,30549],[75.6,30647],[75.6,30754],[75.6,30835],[75.6,30916],[75.6,31021],[75.6,31123],[75.6,31200],[75.6,31283],[75.6,31368],[75.6,31452],[75.6,31535],[75.6,31620],[75.6,31740],[75.6,31840],[75.6,31927],[75.6,32043],[75.6,32122],[75.6,32215],[75.6,32294],[75.6,32394],[75.6,32484],[75.6,32560],[75.6,32640],[75.6,32724],[75.6,32812],[75.6,32890],[75.6,32974],[75.6,33058],[75.6,33149],[75.6,33235],[75.6,33316],[75.6,33399],[75.6,33486],[75.6,33561],[75.6,33647],[75.6,33728],[75.6,33811],[75.6,33895],[75.6,33979],[75.6,34062],[75.6,34147],[75.6,34230],[75.6,34313],[75.6,34405],[75.6,34511],[75.6,34608],[75.6,34708],[75.6,34782],[75.6,34872],[75.6,34950],[75.6,35033],[75.6,35120],[75.6,35202],[75.6,35284],[75.6,35391],[75.6,35469],[75.6,35553],[75.6,35636],[75.6,35721],[75.6,35804],[75.6,35894],[75.6,35971],[75.6,36054],[75.6,36138],[75.6,36222],[75.6,36310],[75.6,36409],[75.6,36491],[75.6,36573],[75.6,36661],[75.6,36741],[75.6,36824],[75.6,36908],[75.6,36992],[75.6,37075],[75.6,37159],[75.6,37243],[75.6,37332],[75.6,37410],[75.6,37495],[75.6,37578],[75.6,37661],[75.6,37745],[75.6,37829],[75.6,37912],[75.6,37996],[75.6,38080],[75.6,38163],[75.6,38248],[75.6,38331],[75.6,38438],[75.6,38533],[75.6,38616],[75.6,38699],[75.6,38783],[75.6,38867],[75.6,38956],[75.6,39034],[75.6,39118],[75.6,39202],[75.6,39286],[75.6,39375],[75.6,39453],[75.6,39537]]",1,0,880.601,886.087,98.46266471,1.676,"[{""rating"":98.46266471449488,""responseTime"":1.6760000000000446}]",space,4.954,,886.091,Not at all,0,886.118,,,[],,0,9,9,9,1,audio/Narrative7Situation9.wav,audio/Narrative8Situation9.wav,audio/Narrative5Situation9.wav,audio/Narrative6Situation9.wav,2,3,3,4,,,,,,,,,,,,,,,,,,,,,,,,,,,,,,,,,,,,,,,
,,,,,,65d863e56337aa59292ccd66,2024-05-13_13h51.31.807,group3.1-3.2-social-tom,2023.2.2,Win32,60.0240096,65c5074098b851296ff0b7ed,66424ff6e276cfb3c503739f,,,,,,,,,,,,,,,,,,,,,,,,,,,,,886.121,2,audio/Narrative6Situation1.wav,888.13,,888.13,914.7,"[[28.2,2157],[23.4,2307],[20,2413],[17.3,2596],[12.8,2721],[12.8,2811],[12.5,2899],[10.9,2995],[10.9,3078],[10.9,3163],[10.9,3259],[10.9,3336],[10.9,3413],[10.9,3500],[10.9,3586],[10.9,3664],[10.9,3756],[10.9,3862],[10.9,3942],[10.9,4039],[10.9,4130],[10.9,4217],[10.9,4312],[10.9,4393],[10.9,4478],[10.9,4552],[10.9,4635],[10.9,4721],[10.9,4802],[10.9,4886],[10.9,4975],[10.9,5054],[43.6,5227],[53.5,5372],[54.7,5466],[82.8,5596],[84.6,5687],[90,5822],[92.5,5908],[92.5,5990],[95.8,6105],[96.9,6194],[98.2,6290],[98.8,6375],[98.8,6447],[98.9,6532],[98.9,6615],[98.9,6697],[99.2,6784],[99.3,6889],[99.5,6968],[99.6,7047],[99.6,7130],[99.6,7212],[99.6,7300],[99.6,7380],[99.6,7465],[99.6,7548],[99.6,7631],[99.9,7716],[99.9,7802],[100,7884],[100,7967],[100,8052],[100,8134],[100,8217],[100,8302],[100,8403],[100,8495],[100,8577],[100,8660],[100,8745],[100,8827],[100,8912],[100,8997],[100,9080],[100,9182],[100,9258],[100,9365],[100,9447],[100,9554],[100,9641],[100,9725],[100,9808],[100,9903],[100,9991],[100,10076],[100,10165],[100,10244],[100,10341],[100,10422],[100,10504],[100,10586],[100,10663],[100,10745],[100,10846],[100,10931],[100,11013],[100,11097],[100,11181],[100,11269],[100,11348],[100,11432],[100,11515],[100,11600],[100,11683],[100,11766],[100,11851],[100,11933],[100,12018],[100,12101],[100,12191],[100,12269],[100,12352],[100,12437],[100,12520],[100,12603],[100,12687],[100,12771],[100,12855],[100,12947],[100,13032],[100,13107],[100,13191],[100,13278],[100,13369],[100,13447],[100,13542],[100,13633],[100,13717],[100,13803],[100,13884],[100,13968],[100,14050],[100,14134],[100,14217],[100,14318],[100,14403],[100,14490],[100,14576],[100,14659],[100,14742],[100,14831],[100,14915],[100,14997],[100,15081],[100,15164],[100,15263],[100,15355],[100,15432],[100,15524],[100,15601],[100,15684],[100,15768],[100,15851],[100,15936],[100,16019],[100,16103],[100,16186],[100,16269],[100,16353],[100,16437],[100,16520],[100,16605],[100,16698],[100,16788],[100,16879],[100,16956],[100,17042],[100,17124],[100,17206],[100,17300],[100,17381],[100,17467],[100,17548],[100,17625],[100,17712],[100,17793],[100,17876],[100,17961],[100,18044],[100,18127],[100,18211],[100,18307],[100,18388],[100,18470],[100,18548],[100,18630],[100,18713],[100,18800],[100,18888],[100,18965],[100,19048],[100,19153],[100,19240],[100,19324],[100,19400],[100,19485],[100,19567],[100,19650],[100,19735],[100,19828],[100,19909],[100,19995],[100,20083],[100,20170],[100,20269],[100,20384],[100,20466],[100,20547],[100,20622],[100,20706],[100,20789],[100,20879],[100,20956],[100,21040],[100,21124],[100,21208],[100,21298],[100,21375],[100,21462],[100,21552],[100,21644],[100,21726],[100,21811],[100,21894],[100,21977],[100,22062],[100,22145],[100,22231],[100,22313],[100,22396],[100,22480],[100,22563],[100,22648],[100,22731],[100,22819],[100,22901],[100,22996],[100,23093],[100,23182],[100,23273],[100,23355],[100,23434],[100,23521],[100,23601],[100,23686],[100,23770],[100,23853],[100,23937],[100,24021],[100,24105],[100,24187],[100,24298],[100,24398],[100,24480],[100,24566],[100,24646],[100,24731],[100,24817],[100,24898],[100,24989],[100,25072],[100,25155],[100,25242],[100,25346],[100,25425],[100,25510],[100,25595],[100,25687],[100,25769],[100,25851],[100,25929],[100,26011],[100,26096],[100,26181],[100,26271],[100,26348],[100,26431],[100,26514]]",1,0,914.702,922.648,99.19472914,4.865,"[{""rating"":99.19472913616399,""responseTime"":4.864999999999895}]",space,7.404,,922.65,Not at all,0,922.676,,,[],,0,10,10,10,1,audio/Narrative8Situation1.wav,audio/Narrative7Situation1.wav,audio/Narrative6Situation1.wav,audio/Narrative5Situation1.wav,5,2,2,5,,,,,,,,,,,,,,,,,,,,,,,,,,,,,,,,,,,,,,,
,,,,,,65d863e56337aa59292ccd66,2024-05-13_13h51.31.807,group3.1-3.2-social-tom,2023.2.2,Win32,60.0240096,65c5074098b851296ff0b7ed,66424ff6e276cfb3c503739f,,,,,,,,,,,,,,,,,,,,,,,,,,,,,922.679,2,audio/Narrative6Situation2.wav,925.699,,925.7,954.208,"[[999,14],[15.7,306],[17.3,437],[17.5,548],[17.5,629],[17.5,724],[17.5,806],[17.5,884],[17.5,964],[17.5,1049],[17.5,1133],[17.5,1215],[17.5,1300],[17.5,1382],[17.5,1467],[17.5,1550],[17.5,1634],[17.5,1725],[17.5,1801],[17.5,1885],[17.5,1968],[17.5,2052],[17.5,2136],[17.5,2220],[17.5,2302],[17.5,2387],[17.5,2471],[17.5,2555],[17.5,2641],[17.5,2738],[17.5,2829],[17.5,2913],[17.5,2998],[17.5,3081],[17.5,3177],[17.5,3258],[17.5,3342],[17.5,3426],[17.5,3509],[17.5,3593],[17.5,3677],[17.5,3768],[17.5,3850],[17.5,3932],[17.5,4020],[17.5,4113],[17.5,4196],[17.5,4286],[17.5,4369],[17.5,4446],[17.5,4533],[17.5,4616],[17.5,4711],[17.5,4802],[17.5,4887],[17.5,4979],[17.5,5065],[17.5,5150],[17.5,5232],[17.5,5326],[17.5,5408],[17.5,5495],[17.5,5586],[17.5,5673],[17.5,5765],[17.5,5853],[17.5,5936],[17.5,6019],[17.5,6104],[17.5,6187],[17.5,6271],[17.5,6355],[17.5,6439],[17.5,6528],[17.5,6605],[28,6820],[29.6,6964],[29.6,7074],[29.6,7177],[29.6,7265],[29.6,7347],[29.6,7427],[29.6,7543],[29.6,7627],[29.6,7716],[29.6,7794],[29.6,7878],[29.6,7965],[29.6,8045],[29.6,8129],[29.6,8212],[29.6,8298],[29.6,8379],[29.6,8464],[29.6,8549],[29.6,8632],[29.6,8715],[29.6,8798],[29.6,8882],[29.6,8967],[29.6,9050],[29.6,9136],[29.6,9224],[29.6,9305],[29.6,9392],[29.6,9474],[29.6,9559],[29.6,9648],[29.6,9752],[29.6,9837],[29.6,9920],[29.6,10020],[29.6,10111],[29.6,10188],[29.6,10277],[29.6,10355],[29.6,10440],[29.6,10523],[29.6,10605],[29.6,10694],[29.6,10780],[29.6,10866],[29.6,10948],[29.6,11033],[29.6,11116],[29.6,11198],[29.6,11282],[29.6,11367],[29.6,11449],[29.6,11527],[29.6,11611],[29.6,11714],[29.6,11795],[29.6,11885],[29.6,11971],[29.6,12066],[29.6,12148],[29.6,12230],[29.6,12314],[29.6,12398],[29.8,12484],[29.8,12565],[29.8,12648],[29.8,12741],[29.8,12828],[29.8,12915],[29.8,12998],[29.8,13076],[29.8,13166],[29.8,13247],[29.8,13326],[29.8,13408],[29.8,13486],[29.8,13571],[29.8,13655],[29.8,13747],[29.8,13829],[29.8,13916],[29.8,13996],[29.8,14088],[29.8,14177],[29.8,14256],[29.8,14342],[29.8,14430],[29.8,14507],[29.8,14591],[29.8,14682],[29.8,14791],[29.8,14881],[29.8,14964],[29.8,15043],[29.8,15126],[29.8,15213],[29.8,15293],[29.8,15378],[29.8,15461],[29.8,15545],[29.8,15628],[29.8,15721],[29.8,15807],[29.8,15900],[29.8,16015],[29.8,16128],[29.8,16215],[29.8,16299],[29.8,16382],[29.8,16467],[29.8,16550],[29.8,16632],[29.8,16730],[29.8,16817],[29.8,16901],[29.8,16985],[29.8,17068],[29.8,17151],[29.8,17236],[29.8,17320],[29.8,17403],[29.8,17487],[29.8,17571],[29.8,17653],[29.8,17751],[29.8,17829],[29.8,17906],[29.8,17989],[29.8,18099],[29.8,18210],[29.8,18291],[29.8,18374],[31.1,18477],[31.3,18557],[31.3,18641],[31.3,18729],[31.3,18810],[31.3,18892],[31.3,18976],[31.3,19062],[31.3,19144],[31.3,19227],[31.3,19311],[31.3,19395],[31.3,19479],[31.3,19562],[31.3,19646],[31.3,19741],[31.3,19819],[31.3,19911],[31.3,19988],[32,20108],[32,20189],[32,20272],[32,20359],[32.6,20458],[33,20541],[33.9,20644],[33.9,20741],[34,20833],[60.4,20976],[94.8,21123],[98.5,21223],[98.5,21304],[98.5,21387],[98.5,21474],[98.5,21554],[98.5,21638],[98.5,21727],[98.5,21806],[98.5,21891],[98.5,21973],[98.5,22057],[98.5,22143],[98.5,22227],[98.5,22307],[98.5,22391],[98.5,22475],[98.5,22559],[98.5,22644],[98.5,22743],[98.5,22833],[98.5,22921],[98.5,23024],[98.5,23101],[98.5,23186],[98.5,23269],[98.5,23352],[98.5,23437],[98.5,23519],[98.5,23603],[98.5,23687],[98.5,23786],[98.5,23864],[98.5,23952],[98.5,24033],[98.5,24125],[98.5,24211],[98.5,24289],[98.5,24374],[98.5,24452],[98.5,24533],[98.6,24623],[98.6,24708],[98.6,24792],[98.6,24872],[98.6,24952],[98.6,25041],[98.6,25121],[98.6,25215],[98.8,25312],[100,25427],[100,25511],[100,25591],[100,25676],[100,25775],[100,25872],[100,25949],[100,26024],[100,26115],[100,26192],[100,26275],[100,26362],[100,26444],[100,26527],[100,26610],[100,26694],[100,26790],[100,26869],[100,26961],[100,27039],[100,27119],[100,27203],[100,27287],[100,27370],[100,27467],[100,27547],[100,27634],[100,27721],[100,27806],[100,27903],[100,27989],[100,28067],[100,28158],[100,28246],[100,28330],[100,28419]]",1,0,954.211,960.258,99.63396779,3.895,"[{""rating"":99.63396778916544,""responseTime"":3.894999999999982}]",space,5.507,,960.258,Not at all,0,960.306,,,[],,0,11,11,11,1,audio/Narrative8Situation2.wav,audio/Narrative7Situation2.wav,audio/Narrative6Situation2.wav,audio/Narrative5Situation2.wav,3,3,3,3,,,,,,,,,,,,,,,,,,,,,,,,,,,,,,,,,,,,,,,
,,,,,,65d863e56337aa59292ccd66,2024-05-13_13h51.31.807,group3.1-3.2-social-tom,2023.2.2,Win32,60.0240096,65c5074098b851296ff0b7ed,66424ff6e276cfb3c503739f,,,,,,,,,,,,,,,,,,,,,,,,,,,,,960.308,2,audio/Narrative6Situation3.wav,965.317,,965.318,977.941,"[[14.3,707],[13.8,793],[13.8,869],[13.8,953],[13.7,1037],[13.7,1126],[13.7,1203],[13.7,1288],[13.7,1371],[13.7,1460],[13.7,1538],[13.7,1623],[13.7,1706],[13.7,1797],[13.7,1875],[13.7,1963],[13.7,2040],[13.7,2135],[13.7,2217],[13.7,2304],[13.7,2386],[13.7,2475],[13.7,2559],[13.7,2644],[13.7,2730],[13.7,2814],[13.7,2895],[13.7,2990],[13.7,3091],[13.7,3174],[13.7,3258],[13.7,3364],[13.5,3450],[13.5,3547],[13.5,3634],[13.5,3715],[13.5,3798],[13.5,3883],[13.5,3966],[13.5,4049],[13.5,4134],[13.5,4216],[13.5,4317],[13.5,4402],[13.5,4485],[13.5,4573],[13.5,4658],[13.5,4743],[13.5,4822],[13.5,4903],[13.5,4989],[13.5,5076],[13.5,5164],[13.5,5246],[13.5,5330],[13.5,5413],[13.5,5496],[13.5,5581],[13.5,5663],[13.5,5748],[13.5,5823],[13.5,5908],[13.5,5991],[13.5,6092],[13.5,6176],[13.5,6259],[13.5,6344],[13.5,6427],[13.5,6514],[13.5,6596],[13.5,6677],[13.5,6761],[13.5,6845],[13.5,6928],[13.5,7013],[13.5,7106],[13.5,7187],[13.5,7269],[13.5,7354],[13.5,7447],[13.5,7532],[13.5,7615],[13.5,7702],[13.5,7783],[13.5,7865],[13.5,7951],[13.5,8034],[70.9,8635],[70.9,8730],[70.9,8814],[70.9,8909],[70.9,8987],[70.9,9076],[70.9,9155],[70.9,9239],[70.9,9322],[70.9,9407],[71.5,9493],[73,9591],[73,9674],[73,9761],[73,9845],[73,9926],[73,10011],[73,10101],[74.9,10187],[75.9,10278],[75.9,10360],[75.9,10445],[75.9,10528],[75.9,10619],[75.9,10695],[75.9,10778],[75.9,10862],[75.9,10946],[75.9,11029],[76.1,11129],[80.6,11241],[83.2,11347],[87.2,11455],[94.7,11575],[96.6,11667],[96.6,11750],[96.7,11836],[100,11924],[100,12000],[100,12086],[100,12168],[100,12253],[100,12336],[100,12418],[100,12504],[100,12587]]",1,0,977.943,986.281,100,3.524,"[{""rating"":86.16398243045388,""responseTime"":2.1019999999999754},{""rating"":100,""responseTime"":3.524000000000001}]",space,7.785,,986.281,Not at all,0,986.308,,,[],,0,12,12,12,1,audio/Narrative8Situation3.wav,audio/Narrative7Situation3.wav,audio/Narrative6Situation3.wav,audio/Narrative5Situation3.wav,4,8,5,3,,,,,,,,,,,,,,,,,,,,,,,,,,,,,,,,,,,,,,,
,,,,,,65d863e56337aa59292ccd66,2024-05-13_13h51.31.807,group3.1-3.2-social-tom,2023.2.2,Win32,60.0240096,65c5074098b851296ff0b7ed,66424ff6e276cfb3c503739f,,,,,,,,,,,,,,,,,,,,,,,,,,,,,986.315,2,audio/Narrative6Situation4.wav,988.318,,988.318,1000.927,"[[999,6],[999,111],[999,182],[999,267],[999,359],[21.9,479],[21.3,594],[21.3,672],[21.3,753],[21.3,836],[21.3,947],[21.3,1025],[21.3,1131],[21.3,1260],[21.3,1354],[21.3,1447],[21.3,1523],[21.3,1606],[21.3,1689],[21.3,1773],[21.3,1861],[21.3,1942],[21.3,2024],[21.3,2112],[21.3,2206],[21.3,2293],[21.3,2375],[21.3,2460],[21.3,2559],[21.3,2644],[21.3,2727],[21.3,2820],[21.3,2902],[21.3,2985],[21.3,3070],[21.3,3163],[21.3,3248],[21.3,3331],[21.3,3413],[21.3,3504],[21.3,3588],[21.3,3672],[21.3,3755],[21.3,3832],[21.3,3917],[21.3,4000],[21.3,4092],[21.3,4173],[21.3,4259],[21.3,4335],[21.3,4418],[21.3,4501],[21.3,4586],[21.3,4670],[21.3,4753],[21.3,4836],[21.3,4921],[21.3,5005],[21.3,5095],[21.3,5182],[21.3,5262],[21.3,5340],[21.3,5423],[21.3,5508],[21.3,5618],[21.3,5731],[21.3,5817],[21.3,5892],[21.3,5975],[21.3,6059],[21.3,6143],[21.3,6227],[21.3,6309],[21.3,6394],[21.3,6478],[21.3,6565],[21.3,6656],[21.3,6802],[21.3,6892],[21.3,6980],[21.3,7069],[21.3,7161],[21.3,7248],[21.3,7330],[21.3,7420],[21.3,7499],[21.3,7584],[21.3,7676],[21.3,7773],[21.3,7864],[21.3,7971],[21.3,8066],[21.3,8173],[21.3,8275],[21.3,8365],[21.3,8459],[21.3,8555],[21.3,8640],[21.3,8721],[21.3,8817],[21.3,8912],[21.3,8989],[21.3,9074],[21.3,9169],[21.3,9250],[21.3,9339],[21.3,9423],[21.3,9507],[21.3,9595],[21.3,9675],[21.3,9775],[21.3,9858],[21.3,9943],[21.3,10027],[21.3,10115],[21.3,10200],[21.3,10281],[21.3,10361],[21.3,10445],[21.3,10528],[21.3,10613],[21.3,10695],[21.3,10780],[21.3,10865],[21.3,10946],[21.3,11036],[21.3,11125],[21.3,11211],[21.3,11305],[21.3,11383],[21.3,11466],[21.3,11552],[21.3,11637],[21.3,11718],[21.3,11801],[21.3,11885],[21.3,11969],[21.3,12052],[21.3,12136],[21.3,12220],[21.3,12302],[21.3,12386],[21.3,12471],[21.3,12554]]",1,0,1000.929,1005.939,32.284041,3.806,"[{""rating"":26.13469985358712,""responseTime"":1.9760000000001128},{""rating"":32.28404099560761,""responseTime"":3.80600000000004}]",space,4.462,,1005.94,Partially,50,1005.98,,,[],,0,13,13,13,1,audio/Narrative8Situation4.wav,audio/Narrative7Situation4.wav,audio/Narrative6Situation4.wav,audio/Narrative5Situation4.wav,3,3,2,1,,,,,,,,,,,,,,,,,,,,,,,,,,,,,,,,,,,,,,,
,,,,,,65d863e56337aa59292ccd66,2024-05-13_13h51.31.807,group3.1-3.2-social-tom,2023.2.2,Win32,60.0240096,65c5074098b851296ff0b7ed,66424ff6e276cfb3c503739f,,,,,,,,,,,,,,,,,,,,,,,,,,,,,1005.982,2,audio/Narrative6Situation5.wav,1007.986,,1007.987,1015.946,"[[28.8,1306],[22.5,1478],[22.5,1556],[22.3,1641],[22.3,1731],[22.3,1812],[22.5,1890],[22.5,1974],[22.5,2069],[22.5,2141],[22.5,2225],[22.5,2309],[22.5,2394],[22.5,2476],[23.1,2560],[23.1,2644],[23.1,2728],[23.5,2820],[23.5,2911],[23.5,2992],[23.5,3063],[23.5,3146],[23.5,3230],[24.4,3319],[25.5,3410],[25.5,3487],[25.5,3567],[25.5,3648],[25.5,3732],[25.5,3820],[25.5,3899],[25.5,3984],[25.5,4067],[25.5,4150],[25.7,4234],[25.7,4317],[25.7,4403],[25.7,4485],[25.7,4568],[25.7,4653],[25.7,4736],[25.7,4820],[25.8,4906],[25.8,4988],[25.8,5074],[25.8,5154],[25.8,5238],[25.8,5323],[25.8,5419],[25.8,5514],[25.8,5597],[25.8,5680],[25.8,5757],[25.8,5841],[25.8,5925],[25.8,6010],[25.8,6096],[26,6176],[26,6259],[26,6344],[26,6430],[26,6515],[26,6596],[26,6677],[26,6764],[26,6846],[26,6932],[26,7013],[26,7096],[26,7184],[26,7264],[26,7348],[26,7432],[26,7515],[26,7605],[30.4,7705],[37,7823],[37,7901]]",1,0,1015.947,1019.806,37.11566618,1.314,"[{""rating"":37.11566617862372,""responseTime"":1.3139999999998508}]",space,3.316,,1019.808,Not at all,0,1019.829,,,[],,0,14,14,14,1,audio/Narrative8Situation5.wav,audio/Narrative7Situation5.wav,audio/Narrative6Situation5.wav,audio/Narrative5Situation5.wav,2,5,2,5,,,,,,,,,,,,,,,,,,,,,,,,,,,,,,,,,,,,,,,
