exp_question,consent.started,consent.stopped,consentResponse.keys,consentResponse.rt,consentResponse.duration,participantID,date,expName,psychopyVersion,OS,frameRate,STUDY_ID,SESSION_ID,opening1.started,opening1.stopped,keyEndingOpening1.keys,keyEndingOpening1.rt,keyEndingOpening1.duration,volumeAdjust.started,volumeAdjust.stopped,endingAdjust.keys,endingAdjust.rt,endingAdjust.duration,opening2.started,opening2.stopped,keyEndingOpening.keys,keyEndingOpening.rt,keyEndingOpening.duration,mouse.x,mouse.y,mouse.leftButton,mouse.midButton,mouse.rightButton,mouse.time,instructionLoop.thisRepN,instructionLoop.thisTrialN,instructionLoop.thisN,instructionLoop.thisIndex,instructionLoop.ran,readyForAudio.started,readyForAudio.stopped,fixation.started,run,audio_played,fixation.stopped,endPractice.keys,audioPre.started,audioPre.stopped,continuousResponses_audio,continuousSlider.response,continuousSlider.rt,intRating.started,intRating.stopped,intQuestionSlider.response,intQuestionSlider.rt,intQuestionSlider.history,confirmResponse.keys,confirmResponse.rt,confirmResponse.duration,catchQuestion.started,catch_label,catch_value,catchQuestion.stopped,catchQuestionSlider.response,catchQuestionSlider.rt,catchQuestionSlider.history,confirmResponse_2.keys,audioRunLoop.thisRepN,audioRunLoop.thisTrialN,audioRunLoop.thisN,audioRunLoop.thisIndex,audioRunLoop.ran,conditions1_1,conditions2_1,conditions1_2,conditions2_2,dur1_1,dur2_1,dur1_2,dur2_2,endPractice.rt,endPractice.duration,confirmResponse_2.rt,confirmResponse_2.duration,runIntervalBreak.started,runIntervalBreak.stopped,endingBreakKey.keys,endingBreakKey.rt,endingBreakKey.duration,connection.started,connection.stopped,connectionEnding.keys,connectionEnding.rt,connectionEnding.duration,readyForText.started,readyForText.stopped,textPre.started,run_dup,textPre.stopped,continuousResponses_text,textRunLoop.thisRepN,textRunLoop.thisTrialN,textRunLoop.thisN,textRunLoop.thisIndex,textRunLoop.ran,text1_1,text1_2,text2_1,text2_2,runBreakText.started,runBreakText.stopped,endingBreakKey_2.keys,endingBreakKey_2.rt,endingBreakKey_2.duration,ending.started,ending.stopped,endingEnding.keys,endingEnding.rt,endingEnding.duration
tom,0.0004,13.7558,y,13.4129,,65e3e371f66e65c7f9720ec2,2024-05-13_13h51.41.981,group3.1-3.2-social-tom,2023.2.2,Win32,59.88023952,65c5074098b851296ff0b7ed,664252f6a2cd6a58eda0747e,,,,,,,,,,,,,,,,,,,,,,,,,,,,,,,,,,,,,,,,,,,,,,,,,,,,,,,,,,,,,,,,,,,,,,,,,,,,,,,,,,,,,,,,,,,,,,,,,,,,,,,,,,
,,,,,,65e3e371f66e65c7f9720ec2,2024-05-13_13h51.41.981,group3.1-3.2-social-tom,2023.2.2,Win32,59.88023952,65c5074098b851296ff0b7ed,664252f6a2cd6a58eda0747e,13.7561,19.4993,space,5.6892,,,,,,,,,,,,,,,,,,,,,,,,,,,,,,,,,,,,,,,,,,,,,,,,,,,,,,,,,,,,,,,,,,,,,,,,,,,,,,,,,,,,,,,,,,,,,,,,,,,,,,
,,,,,,65e3e371f66e65c7f9720ec2,2024-05-13_13h51.41.981,group3.1-3.2-social-tom,2023.2.2,Win32,59.88023952,65c5074098b851296ff0b7ed,664252f6a2cd6a58eda0747e,,,,,,19.4994,66.6197,space,46.7852,,,,,,,,,,,,,,,,,,,,,,,,,,,,,,,,,,,,,,,,,,,,,,,,,,,,,,,,,,,,,,,,,,,,,,,,,,,,,,,,,,,,,,,,,,,,,,,,,
,,,,,,65e3e371f66e65c7f9720ec2,2024-05-13_13h51.41.981,group3.1-3.2-social-tom,2023.2.2,Win32,59.88023952,65c5074098b851296ff0b7ed,664252f6a2cd6a58eda0747e,,,,,,,,,,,66.6399,76.0337,space,9.3685,,[],[],[],[],[],[],0,0,0,0,1,,,,,,,,,,,,,,,,,,,,,,,,,,,,,,,,,,,,,,,,,,,,,,,,,,,,,,,,,,,,,,,,,,,,,,,,,,,,,,,,
,,,,,,65e3e371f66e65c7f9720ec2,2024-05-13_13h51.41.981,group3.1-3.2-social-tom,2023.2.2,Win32,59.88023952,65c5074098b851296ff0b7ed,664252f6a2cd6a58eda0747e,,,,,,,,,,,76.0429,103.7943,space,27.6185,,[],[],[],[],[],[],1,0,1,0,1,,,,,,,,,,,,,,,,,,,,,,,,,,,,,,,,,,,,,,,,,,,,,,,,,,,,,,,,,,,,,,,,,,,,,,,,,,,,,,,,
,,,,,,65e3e371f66e65c7f9720ec2,2024-05-13_13h51.41.981,group3.1-3.2-social-tom,2023.2.2,Win32,59.88023952,65c5074098b851296ff0b7ed,664252f6a2cd6a58eda0747e,,,,,,,,,,,103.8041,132.4216,space,28.5673,,[],[],[],[],[],[],2,0,2,0,1,,,,,,,,,,,,,,,,,,,,,,,,,,,,,,,,,,,,,,,,,,,,,,,,,,,,,,,,,,,,,,,,,,,,,,,,,,,,,,,,
,,,,,,65e3e371f66e65c7f9720ec2,2024-05-13_13h51.41.981,group3.1-3.2-social-tom,2023.2.2,Win32,59.88023952,65c5074098b851296ff0b7ed,664252f6a2cd6a58eda0747e,,,,,,,,,,,132.4353,199.6401,space,67.1683,,[],[],[],[],[],[],3,0,3,0,1,,,,,,,,,,,,,,,,,,,,,,,,,,,,,,,,,,,,,,,,,,,,,,,,,,,,,,,,,,,,,,,,,,,,,,,,,,,,,,,,
,,,,,,65e3e371f66e65c7f9720ec2,2024-05-13_13h51.41.981,group3.1-3.2-social-tom,2023.2.2,Win32,59.88023952,65c5074098b851296ff0b7ed,664252f6a2cd6a58eda0747e,,,,,,,,,,,199.6508,231.109,space,31.4294,,[],[],[],[],[],[],4,0,4,0,1,,,,,,,,,,,,,,,,,,,,,,,,,,,,,,,,,,,,,,,,,,,,,,,,,,,,,,,,,,,,,,,,,,,,,,,,,,,,,,,,
,,,,,,65e3e371f66e65c7f9720ec2,2024-05-13_13h51.41.981,group3.1-3.2-social-tom,2023.2.2,Win32,59.88023952,65c5074098b851296ff0b7ed,664252f6a2cd6a58eda0747e,,,,,,,,,,,,,,,,,,,,,,,,,,,231.128,233.7019,233.7239,1,audio/Narrative13Situation2.wav,235.7373,,235.738,265.5001,"[[999,4],[999,131],[999,213],[999,296],[999,381],[999,463],[999,578],[999,671],[999,766],[999,854],[999,944],[999,1046],[999,1145],[999,1237],[999,1320],[55,1418],[53.4,1512],[52.8,1599],[52.5,1702],[52.2,1794],[52.2,1876],[52.2,1959],[52,2047],[51.8,2132],[51.7,2213],[51.4,2297],[51.4,2379],[51.4,2463],[51.3,2546],[51.3,2629],[51.3,2712],[51.2,2796],[51.2,2880],[51.2,2973],[51,3062],[50.9,3141],[50.9,3217],[50.9,3296],[50.9,3386],[50.9,3468],[50.7,3550],[50.7,3629],[50.7,3712],[50.5,3801],[50.5,3882],[50.5,3962],[50.4,4046],[50.3,4131],[50.1,4212],[49.7,4299],[49.6,4382],[49.1,4472],[46.3,4556],[43.7,4642],[43.4,4720],[43.4,4795],[43.4,4879],[43.4,4963],[43.4,5046],[43.4,5129],[43.4,5213],[43.4,5298],[43.4,5385],[43.4,5463],[43.4,5545],[43.4,5632],[43.4,5715],[43.4,5801],[43.4,5883],[43.4,5964],[43.4,6045],[43.4,6129],[43.4,6214],[43.4,6295],[43.4,6383],[43.4,6465],[43.4,6550],[43.4,6633],[43.4,6712],[43.4,6795],[43.4,6886],[43.4,6968],[43.4,7049],[43.4,7128],[43.4,7212],[43.4,7297],[43.4,7379],[43.1,7467],[43.1,7546],[43.1,7629],[43.1,7716],[43.1,7795],[43.1,7878],[43.1,7961],[43.1,8050],[43.1,8130],[43.4,8217],[44.1,8304],[44.7,8384],[45.2,8468],[45.6,8546],[46.6,8635],[47.6,8718],[48.4,8799],[49,8888],[49.5,8965],[49.7,9048],[49.7,9134],[49.7,9211],[49.7,9298],[49.7,9380],[49.7,9462],[49.7,9545],[49.7,9628],[49.7,9714],[49.7,9796],[49.7,9878],[49.7,9963],[49.8,10046],[50.9,10133],[52.3,10220],[52.4,10303],[52.5,10381],[52.9,10468],[52.9,10546],[53,10628],[53.3,10721],[53.4,10797],[53.4,10878],[53.4,10965],[53.4,11046],[53.4,11128],[53.4,11211],[53.4,11297],[53.4,11384],[53.4,11468],[53.4,11547],[53.4,11633],[53.4,11711],[53.4,11799],[53.4,11886],[53.4,11963],[53.4,12046],[53.4,12128],[53.4,12212],[53.4,12294],[53.4,12382],[53.4,12466],[53.4,12544],[53.4,12629],[53.4,12712],[53.4,12796],[53.4,12877],[53.4,12962],[53.4,13046],[53.4,13128],[53.4,13213],[53.4,13296],[53.4,13378],[53.4,13465],[53.4,13545],[53.4,13629],[53.4,13711],[53.4,13794],[53.4,13877],[53.4,13961],[53.4,14044],[53.4,14127],[53.4,14214],[53.4,14298],[53.4,14382],[53.4,14467],[53.4,14547],[53.4,14627],[53.4,14713],[53.4,14795],[53.4,14878],[53.5,14977],[53.5,15063],[53.5,15155],[53.5,15272],[53.6,15371],[53.6,15468],[53.6,15554],[53.6,15633],[53.6,15722],[53.6,15826],[53.6,15909],[53.6,15990],[53.6,16084],[53.7,16195],[53.7,16289],[53.7,16388],[53.7,16475],[53.7,16570],[53.8,16655],[53.8,16763],[53.8,16859],[53.8,16933],[53.8,17012],[53.8,17093],[53.8,17177],[53.8,17261],[53.8,17353],[53.8,17429],[53.8,17517],[53.8,17602],[53.8,17683],[53.8,17765],[53.8,17844],[53.8,17930],[53.8,18015],[53.8,18105],[53.8,18181],[53.8,18263],[53.8,18346],[53.8,18427],[53.8,18510],[53.8,18602],[53.8,18682],[53.8,18763],[53.8,18843],[53.8,18926],[53.8,19011],[53.8,19095],[53.8,19176],[53.8,19260],[53.8,19343],[53.8,19434],[53.8,19515],[53.8,19597],[53.8,19682],[53.7,19768],[53.6,19880],[53.5,19970],[52.7,20074],[51.6,20160],[51.4,20246],[50.9,20327],[50.1,20416],[49.6,20503],[49.6,20576],[49.6,20664],[49.6,20744],[49.6,20837],[49.6,20933],[49.6,21021],[49.5,21103],[49.3,21191],[47.8,21290],[47.1,21391],[46.8,21475],[46.6,21558],[46.4,21641],[46,21742],[45.6,21825],[45.4,21924],[45.3,22011],[45.1,22125],[44.5,22235],[44.3,22340],[44.3,22458],[44.3,22556],[44.3,22640],[44.1,22740],[44.1,22814],[43.9,22907],[43.7,22985],[43,23090],[42.9,23167],[42.7,23260],[42.6,23347],[42.5,23439],[42.5,23509],[42.3,23607],[42,23690],[41.9,23775],[41.8,23859],[41.6,23956],[41.5,24033],[41.4,24133],[41.4,24216],[41.4,24300],[41.1,24391],[40.9,24474],[40.6,24574],[40.4,24650],[40.2,24735],[40,24823],[39.9,24905],[39.7,24987],[39.6,25073],[39.5,25142],[39.3,25240],[39.2,25323],[39,25409],[39,25492],[38.9,25576],[38.7,25661],[38.5,25774],[38.1,25854],[38,25934],[37.8,26011],[37.6,26093],[37.5,26179],[37.3,26259],[37.1,26342],[36.9,26425],[36.7,26514],[36.6,26598],[36.6,26675],[36.6,26759],[36.6,26845],[36.6,26925],[36.6,27008],[36.5,27099],[36.5,27175],[36.4,27266],[36.4,27343],[36.4,27429],[36.4,27514],[36.4,27596],[36.4,27680],[36.4,27760],[36.4,27842],[36.4,27925],[36.4,28011],[36.4,28094],[36.4,28181],[36.4,28259],[36.4,28343],[36.4,28437],[36.4,28523],[36.4,28607],[36.5,28693],[36.5,28808],[36.5,28900],[36.8,28982],[36.9,29074],[37.1,29169],[37.9,29264],[39.6,29357],[41.3,29445],[41.8,29525],[42.2,29609],[42.5,29692]]",1,0,265.5021,280.9984,50.10416385,12.44,"[{""rating"":50.104163848023916,""responseTime"":12.439999999999998}]",space,14.9585,,280.9987,All the time,100,281.0066,,,[],,0,0,0,0,1,audio/Narrative13Situation2.wav,audio/Narrative13Situation2.wav,audio/Narrative13Situation2.wav,audio/Narrative13Situation2.wav,2,2,2,2,,,,,,,,,,,,,,,,,,,,,,,,,,,,,,,,,,,,,,,
,,,,,,65e3e371f66e65c7f9720ec2,2024-05-13_13h51.41.981,group3.1-3.2-social-tom,2023.2.2,Win32,59.88023952,65c5074098b851296ff0b7ed,664252f6a2cd6a58eda0747e,,,,,,,,,,,,,,,,,,,,,,,,,,,,,281.0068,1,audio/Narrative7Situation1.wav,286.6944,space,286.6946,342.5885,"[[999,11],[999,110],[999,198],[999,281],[999,364],[999,447],[999,531],[999,614],[999,698],[999,781],[999,864],[999,948],[999,1031],[999,1116],[999,1197],[999,1298],[999,1381],[999,1494],[999,1579],[999,1651],[999,1745],[999,1829],[999,1910],[999,1994],[999,2096],[999,2185],[999,2276],[999,2359],[999,2463],[999,2554],[999,2649],[999,2748],[999,2837],[999,2918],[54.4,3006],[51.8,3081],[51.8,3195],[51.7,3279],[50.1,3379],[48.6,3469],[48.4,3562],[48.2,3638],[48.2,3720],[48.2,3805],[48.2,3893],[48.2,3970],[48.2,4054],[48.2,4136],[48.2,4221],[48.2,4309],[48.2,4387],[48.2,4475],[48.2,4574],[48.2,4654],[48.2,4740],[48.2,4820],[48.2,4908],[48.2,4987],[48.2,5075],[48.2,5156],[48.2,5237],[48.2,5316],[48.2,5405],[48.2,5495],[48.2,5564],[48.2,5662],[47.1,5747],[45.8,5831],[44.5,5918],[44,6000],[43.9,6087],[43.5,6183],[43,6262],[42.8,6344],[42.4,6428],[41.9,6512],[41.9,6595],[41.9,6679],[41.8,6774],[41.8,6861],[41.8,6946],[41.6,7039],[41.3,7144],[40.9,7247],[40.5,7345],[40.4,7429],[40.3,7528],[40.2,7608],[40,7706],[39.9,7795],[39.9,7878],[39.9,7961],[39.9,8044],[39.8,8146],[39.8,8222],[39.8,8298],[39.8,8379],[39.7,8464],[39.7,8546],[39.7,8632],[39.7,8726],[39.7,8809],[39.7,8894],[39.7,8991],[39.7,9074],[39.7,9158],[39.7,9252],[39.7,9344],[39.7,9425],[39.7,9502],[39.7,9594],[39.7,9672],[39.7,9769],[39.7,9850],[39.7,9934],[39.7,10019],[39.7,10107],[39.7,10208],[39.7,10287],[39.7,10370],[39.7,10450],[39.8,10538],[40.1,10628],[40.4,10731],[40.4,10813],[40.5,10896],[40.6,10980],[41,11063],[41.2,11146],[41.7,11248],[42,11343],[42,11445],[42,11527],[42,11602],[42,11692],[42,11770],[42.2,11859],[42.5,11947],[42.8,12028],[43.1,12117],[43.3,12204],[43.6,12294],[44.1,12386],[45.3,12481],[48.6,12581],[50.3,12680],[52.1,12786],[54.4,12879],[55.4,12971],[57.8,13073],[59.2,13169],[60.1,13262],[61.1,13347],[62.6,13433],[63.4,13513],[64.1,13596],[64.6,13679],[64.8,13762],[64.8,13845],[65.9,13928],[66.7,14015],[67.5,14096],[67.9,14178],[68.2,14277],[68.6,14355],[68.8,14429],[69,14516],[69.3,14596],[69.8,14679],[70.2,14764],[70.2,14853],[70.3,14929],[70.3,15017],[70.3,15098],[70.3,15178],[70.7,15262],[71.2,15345],[71.2,15432],[71.2,15512],[71.4,15596],[71.7,15678],[71.7,15762],[71.7,15845],[71.7,15931],[71.7,16013],[71.9,16095],[71.9,16178],[71.9,16264],[71.9,16345],[71.9,16429],[71.9,16516],[71.9,16597],[72.1,16681],[72.4,16769],[72.9,16850],[73.5,16939],[74,17013],[74.3,17104],[74.3,17179],[74.5,17262],[74.8,17350],[74.8,17429],[74.8,17511],[74.8,17597],[74.8,17681],[74.8,17764],[74.8,17846],[74.8,17928],[74.8,18011],[74.8,18095],[74.8,18177],[74.8,18261],[75,18348],[75,18432],[75.2,18522],[75.3,18633],[75.3,18728],[75.3,18821],[75.3,18906],[75.3,18978],[75.3,19067],[75.3,19157],[75.3,19243],[75.3,19320],[75.3,19407],[75.3,19494],[75.3,19579],[75.3,19680],[75.3,19776],[75.3,19882],[75.3,19976],[75.3,20049],[75.3,20136],[75.3,20217],[75.3,20301],[75.4,20393],[75.4,20492],[75.4,20561],[75.4,20651],[75.6,20741],[75.6,20826],[75.8,20903],[76,20995],[76.1,21077],[76.1,21161],[76.3,21244],[76.5,21330],[76.5,21425],[76.5,21500],[76.5,21589],[76.5,21673],[76.5,21749],[76.5,21833],[76.5,21915],[76.5,22003],[76.5,22088],[76.5,22184],[76.5,22275],[76.5,22369],[76.5,22448],[76.5,22538],[76.5,22617],[76.5,22706],[76.4,22809],[76.4,22910],[76.2,23009],[75.9,23126],[75.8,23209],[75.7,23311],[75.7,23403],[75.7,23494],[75.7,23589],[75.3,23672],[75.1,23759],[74.8,23846],[74.7,23927],[74.4,24024],[74.3,24101],[74.2,24185],[74.1,24272],[74.1,24356],[74.1,24439],[74.1,24525],[74.1,24608],[74.1,24690],[74,24768],[74,24849],[74,24938],[74,25016],[74,25107],[74,25183],[74,25274],[74,25354],[74,25452],[74,25536],[74,25616],[74,25705],[74,25781],[74,25868],[74,25949],[74,26038],[74,26127],[74,26224],[74,26306],[74,26376],[74,26479],[74,26575],[74,26654],[74,26735],[74,26821],[74,26910],[74,27006],[74,27092],[74,27167],[74,27251],[74,27329],[74,27424],[74,27501],[74,27584],[74,27666],[74,27749],[74.1,27841],[74.2,27932],[74.2,28018],[74.2,28100],[74.2,28204],[74.2,28291],[74.2,28369],[74.1,28444],[72.3,28546],[70.4,28630],[69.9,28709],[69.4,28800],[69.2,28890],[68.9,28974],[68.6,29057],[68.6,29145],[68.5,29231],[68.4,29316],[68.1,29408],[67.8,29504],[67.5,29604],[67.3,29684],[67.3,29771],[67.3,29843],[67,29958],[67,30033],[67,30116],[67,30199],[67,30299],[66.9,30385],[66.8,30469],[66.8,30550],[66.6,30654],[66.6,30736],[66.6,30816],[66.6,30892],[66.6,30976],[66.6,31059],[66.6,31148],[66.5,31237],[66.5,31344],[66.5,31437],[66.4,31557],[66.3,31638],[66,31721],[65.8,31807],[65.6,31901],[65.4,31991],[65.3,32087],[65.3,32173],[65.3,32259],[65.3,32355],[65.2,32445],[65.2,32525],[65.2,32609],[65.2,32708],[65.2,32781],[65,32870],[65,32955],[65,33029],[65,33114],[65,33212],[65,33298],[65,33386],[65,33477],[65,33574],[64.9,33659],[64.8,33757],[64.7,33848],[64.7,33932],[64.5,34016],[64.2,34108],[63.7,34190],[63.5,34273],[63.2,34356],[63.2,34439],[62.9,34536],[62.9,34614],[62.9,34699],[62.9,34782],[62.9,34865],[62.9,34948],[62.9,35038],[62.8,35121],[62.6,35207],[62.4,35285],[62.3,35373],[62.1,35457],[61.9,35532],[61.6,35623],[61.3,35706],[61.1,35786],[60.7,35889],[60.7,35965],[60.5,36053],[60.3,36133],[60.3,36215],[60.2,36296],[60.1,36388],[60.1,36465],[60.1,36548],[60.1,36636],[60.1,36715],[60.1,36805],[60.1,36880],[60,36972],[59.8,37050],[59.8,37132],[59.8,37218],[59.8,37297],[59.7,37386],[59.7,37461],[59.6,37546],[59.6,37635],[59.5,37718],[59.5,37806],[59.5,37888],[59.3,37972],[59.3,38050],[59.1,38139],[59,38223],[59,38298],[58.6,38388],[58.3,38472],[58.3,38546],[58.3,38625],[58,38716],[57.9,38822],[57.5,38908],[57.4,38991],[57.2,39074],[57.1,39157],[57,39245],[57,39335],[56.9,39423],[56.7,39509],[56.5,39598],[56.5,39682],[56.4,39772],[56.4,39846],[56,39957],[55.9,40035],[55.9,40113],[55.7,40199],[55.7,40279],[55.5,40365],[55.5,40446],[55.5,40530],[55.5,40619],[55.5,40695],[55.4,40779],[55.4,40857],[55.4,40941],[55.3,41024],[55.3,41107],[55.3,41190],[55.3,41274],[55.3,41363],[56.5,41446],[57.2,41524],[57.6,41608],[58.2,41696],[58.4,41795],[58.4,41862],[58.6,41947],[58.7,42026],[58.8,42107],[58.9,42190],[58.9,42274],[58.9,42357],[59.1,42446],[59.2,42530],[59.3,42611],[59.4,42691],[59.4,42774],[59.7,42857],[59.9,42942],[60.2,43025],[60.7,43110],[61.5,43199],[62,43277],[62.2,43362],[62.3,43443],[62.5,43528],[62.5,43610],[62.7,43699],[62.9,43775],[63.3,43858],[63.5,43945],[63.6,44035],[64.1,44117],[64.8,44194],[65.1,44275],[65.4,44360],[65.9,44442],[65.9,44527],[65.9,44606],[65.9,44693],[65.9,44777],[65.9,44857],[65.9,44943],[65.9,45023],[65.9,45109],[66,45195],[66.1,45274],[66.2,45356],[66.4,45440],[66.4,45523],[66.6,45607],[66.9,45690],[67.1,45773],[67.4,45856],[67.5,45947],[67.6,46023],[67.6,46108],[67.7,46197],[67.9,46274],[67.9,46357],[67.9,46440],[67.9,46523],[67.9,46606],[67.9,46690],[67.9,46773],[67.9,46860],[67.9,46944],[68.1,47029],[68.1,47109],[68.2,47191],[68.3,47277],[68.5,47356],[68.8,47447],[69.7,47534],[70.1,47611],[70.3,47691],[70.7,47777],[70.8,47857],[70.9,47940],[71.1,48023],[71.3,48111],[71.4,48194],[71.4,48273],[71.4,48356],[71.4,48441],[71.6,48523],[71.6,48606],[71.7,48691],[71.7,48773],[71.7,48856],[71.8,48943],[71.8,49029],[71.8,49106],[71.9,49190],[71.9,49275],[71.9,49356],[72.3,49439],[72.3,49523],[72.3,49608],[72.4,49690],[72.4,49773],[72.6,49860],[72.7,49939],[73.5,50032],[73.8,50112],[74,50189],[74.4,50274],[74.5,50355],[74.8,50445],[74.9,50526],[74.9,50606],[75,50695],[75.2,50774],[75.3,50860],[75.4,50945],[75.4,51023],[75.4,51105],[75.4,51189],[75.4,51274],[75.4,51355],[75.6,51443],[75.8,51524],[75.9,51606],[75.9,51689],[75.9,51772],[75.9,51855],[75.9,51939],[75.9,52022],[75.9,52106],[76,52188],[76.1,52280],[76.3,52355],[76.3,52440],[76.3,52522],[76.3,52607],[76.3,52689],[76.3,52778],[76.3,52855],[76.3,52942],[76.3,53024],[76.3,53108],[76.3,53188],[76.3,53272],[76.3,53355],[76.3,53440],[76.3,53528],[76.3,53606],[76.3,53690],[76.3,53777],[76.3,53855],[76.3,53938],[76.3,54022],[76.3,54105],[76.3,54188],[76.3,54272],[76.3,54356],[76.3,54447],[76.3,54530],[76.3,54608],[76.3,54688],[76.3,54776],[76.3,54858],[76.3,54938],[76.3,55021],[76.3,55105],[76.3,55190],[76.3,55272],[76.3,55355],[76.3,55438],[76.3,55524],[76.3,55605],[76.3,55691],[76.3,55771],[76.3,55855]]",1,0,342.5905,353.3279,83.33332826,8.7705,"[{""rating"":83.33332826001936,""responseTime"":8.77049999999997}]",space,10.1876,,353.3284,Half the time,50,353.3313,,,[],,0,1,1,1,1,audio/Narrative7Situation1.wav,audio/Narrative8Situation1.wav,audio/Narrative5Situation1.wav,audio/Narrative6Situation1.wav,2,5,5,2,5.6656,,,,,,,,,,,,,,,,,,,,,,,,,,,,,,,,,,,,,,
,,,,,,65e3e371f66e65c7f9720ec2,2024-05-13_13h51.41.981,group3.1-3.2-social-tom,2023.2.2,Win32,59.88023952,65c5074098b851296ff0b7ed,664252f6a2cd6a58eda0747e,,,,,,,,,,,,,,,,,,,,,,,,,,,,,353.3322,1,audio/Narrative7Situation2.wav,356.3352,,356.3356,363.8112,"[[999,3],[999,81],[999,168],[999,256],[999,339],[999,426],[999,504],[999,591],[999,662],[999,745],[999,843],[999,925],[999,1002],[999,1090],[999,1176],[999,1259],[999,1333],[999,1419],[999,1504],[999,1584],[999,1674],[999,1759],[999,1834],[999,1911],[999,2007],[999,2094],[999,2171],[999,2251],[999,2331],[70.7,2417],[69.9,2502],[69.7,2577],[69.6,2661],[69.4,2752],[62.5,2867],[60,2961],[60,3044],[59.9,3143],[59.9,3236],[59.9,3317],[59.9,3406],[59.9,3488],[59.9,3565],[59.9,3656],[59.9,3735],[59.7,3825],[59.6,3914],[59.6,3994],[59.6,4077],[59.6,4175],[59.6,4250],[59.6,4334],[59.6,4421],[59.6,4504],[59.6,4583],[59.6,4661],[59.6,4749],[59.3,4837],[59.2,4918],[58.9,5002],[58.9,5083],[58.9,5161],[58.9,5251],[58.9,5358],[58.9,5438],[58.8,5544],[58.7,5627],[58.7,5721],[58.7,5806],[58.7,5887],[58.7,5967],[58.7,6049],[58.7,6134],[58.7,6217],[58.7,6305],[58.7,6378],[58.7,6474],[58.7,6547],[58.7,6632],[58.7,6741],[58.7,6825],[58.7,6917],[58.7,6995],[58.7,7091],[58.7,7169],[58.7,7250],[58.7,7340],[58.7,7418]]",1,0,363.8113,369.6791,59.37499973,4.2484,"[{""rating"":59.37499973122523,""responseTime"":4.248400000095387}]",space,5.3416,,369.6793,All the time,100,369.6893,,,[],,0,2,2,2,1,audio/Narrative7Situation2.wav,audio/Narrative8Situation2.wav,audio/Narrative5Situation2.wav,audio/Narrative6Situation2.wav,3,3,3,3,,,,,,,,,,,,,,,,,,,,,,,,,,,,,,,,,,,,,,,
,,,,,,65e3e371f66e65c7f9720ec2,2024-05-13_13h51.41.981,group3.1-3.2-social-tom,2023.2.2,Win32,59.88023952,65c5074098b851296ff0b7ed,664252f6a2cd6a58eda0747e,,,,,,,,,,,,,,,,,,,,,,,,,,,,,369.6895,1,audio/Narrative7Situation3.wav,377.695,,377.6952,386.9458,"[[56.4,993],[55.2,1079],[54.3,1180],[54.3,1251],[54.3,1331],[54.3,1414],[54.3,1498],[54.3,1582],[54.3,1665],[54.3,1748],[54.3,1831],[54.3,1914],[55.3,1997],[55.5,2081],[55.5,2166],[55.5,2247],[55.5,2331],[55.5,2416],[55.5,2497],[55.8,2582],[56.6,2669],[57.1,2750],[57.8,2837],[59.2,2916],[60.2,3009],[61,3090],[61.3,3165],[61.3,3247],[61.4,3331],[61.5,3414],[61.9,3498],[62,3581],[62,3664],[62,3747],[62,3831],[62,3914],[62,3998],[62,4081],[62.3,4166],[62.4,4248],[62.5,4332],[62.5,4415],[62.5,4497],[62.8,4582],[63.1,4667],[63.6,4760],[63.6,4831],[63.6,4920],[63.6,5002],[64.1,5097],[64.1,5194],[64.1,5279],[64.6,5377],[64.9,5457],[65.1,5547],[65.4,5624],[65.7,5702],[65.7,5785],[66,5864],[66.1,5947],[66.1,6031],[66.1,6114],[66.2,6197],[66.4,6284],[66.4,6365],[66.4,6447],[66.5,6530],[66.5,6613],[66.5,6699],[66.5,6780],[66.5,6866],[66.5,6947],[66.5,7030],[66.5,7114],[66.5,7197],[66.5,7280],[66.5,7363],[66.5,7448],[66.5,7530],[66.5,7619],[66.5,7697],[66.5,7780],[66.5,7865],[66.5,7951],[66.5,8030],[66.5,8115],[66.5,8196],[66.5,8280],[66.5,8367],[66.5,8446],[66.6,8531],[66.7,8620],[66.7,8701],[66.7,8781],[66.7,8864],[66.7,8947],[66.7,9031],[66.7,9113],[66.7,9198]]",1,0,386.9467,391.0546,70.93749338,2.5091,"[{""rating"":70.93749338358465,""responseTime"":2.5091000003814656}]",space,3.5437,,391.0547,Not at all,0,391.0572,,,[],,0,3,3,3,1,audio/Narrative7Situation3.wav,audio/Narrative8Situation3.wav,audio/Narrative5Situation3.wav,audio/Narrative6Situation3.wav,8,4,3,5,,,,,,,,,,,,,,,,,,,,,,,,,,,,,,,,,,,,,,,
,,,,,,65e3e371f66e65c7f9720ec2,2024-05-13_13h51.41.981,group3.1-3.2-social-tom,2023.2.2,Win32,59.88023952,65c5074098b851296ff0b7ed,664252f6a2cd6a58eda0747e,,,,,,,,,,,,,,,,,,,,,,,,,,,,,391.0573,1,audio/Narrative7Situation4.wav,394.0579,,394.0581,405.7904,"[[999,2],[999,85],[999,165],[999,250],[999,332],[999,416],[999,502],[999,583],[999,669],[999,751],[999,834],[999,920],[999,1005],[999,1088],[999,1165],[999,1249],[999,1332],[999,1417],[999,1501],[999,1582],[999,1666],[999,1755],[999,1833],[63.7,1923],[62.1,2004],[61.2,2094],[60.7,2180],[60.3,2276],[60.3,2356],[60.3,2436],[60.3,2522],[60.3,2600],[60.3,2683],[60.3,2769],[60.3,2857],[60.3,2932],[60.3,3015],[60.3,3100],[60.3,3186],[60.3,3276],[60,3363],[60,3438],[60,3520],[59.3,3614],[58.7,3689],[58.6,3776],[58.2,3863],[57.3,3951],[56.9,4031],[56.7,4116],[56.6,4200],[56.6,4282],[56.4,4379],[56.4,4449],[55.9,4563],[55.7,4645],[55.4,4726],[55,4832],[54.8,4916],[54.8,4998],[54.5,5083],[54.5,5165],[54.3,5264],[54.3,5337],[54.3,5420],[54.3,5502],[54.3,5584],[54.3,5679],[54.3,5752],[54.3,5835],[54.3,5927],[54.3,6014],[54.3,6098],[54.3,6182],[54.3,6265],[54.3,6348],[54,6446],[54,6517],[54,6598],[54,6688],[53.8,6777],[53.6,6875],[53.3,6956],[53.3,7035],[53,7122],[53,7209],[53,7287],[53.2,7379],[54,7463],[54.7,7544],[55.7,7625],[56.2,7710],[56.7,7789],[57.3,7872],[57.8,7948],[58,8034],[58.4,8115],[58.7,8198],[58.9,8281],[59.3,8366],[59.4,8447],[59.9,8531],[60.3,8618],[60.7,8699],[61,8786],[61.4,8873],[61.5,8950],[61.7,9033],[62,9115],[62.3,9199],[62.8,9281],[63.1,9366],[63.4,9453],[63.9,9543],[65.3,9656],[66.2,9755],[67.3,9852],[68.4,9937],[68.4,10014],[71.3,10110],[72.2,10189],[73.9,10274],[74.3,10352],[74.4,10432],[74.5,10514],[74.5,10597],[74.8,10681],[75,10764],[75.3,10854],[75.4,10933],[75.4,11021],[75.4,11102],[75.6,11182],[75.8,11281],[76.1,11388],[76.1,11478],[76.3,11555],[76.3,11642],[76.8,11730]]",1,0,405.7915,409.0089,82.91665765,1.6463,"[{""rating"":82.91665764798171,""responseTime"":1.6462999997139036}]",space,2.6837,,409.0095,All the time,100,409.0169,,,[],,0,4,4,4,1,audio/Narrative7Situation4.wav,audio/Narrative8Situation4.wav,audio/Narrative5Situation4.wav,audio/Narrative6Situation4.wav,3,3,1,2,,,,,,,,,,,,,,,,,,,,,,,,,,,,,,,,,,,,,,,
,,,,,,65e3e371f66e65c7f9720ec2,2024-05-13_13h51.41.981,group3.1-3.2-social-tom,2023.2.2,Win32,59.88023952,65c5074098b851296ff0b7ed,664252f6a2cd6a58eda0747e,,,,,,,,,,,,,,,,,,,,,,,,,,,,,409.0172,1,audio/Narrative7Situation5.wav,414.0285,,414.0291,422.5365,"[[999,19],[999,93],[999,209],[999,297],[999,375],[999,472],[999,549],[999,630],[999,709],[999,793],[999,890],[999,973],[999,1056],[999,1139],[999,1224],[65.4,1306],[65.3,1377],[65.3,1459],[65.3,1541],[65.2,1628],[65,1713],[65,1799],[65,1880],[65,1961],[65,2041],[65,2124],[65,2208],[65,2291],[65,2374],[65,2458],[65,2541],[65,2624],[65,2708],[65,2794],[65,2875],[65,2958],[65,3041],[65,3133],[65,3212],[65,3293],[65,3376],[65,3457],[65,3542],[65,3629],[65,3741],[65,3830],[65,3912],[65,3998],[65,4076],[65,4160],[65,4242],[65,4327],[65,4408],[65,4491],[65,4574],[65,4657],[64.9,4742],[64.8,4827],[64.8,4907],[64.8,4991],[64.8,5077],[64.8,5159],[64.7,5241],[64.7,5329],[64.7,5413],[64.7,5493],[64.7,5577],[64.7,5662],[64.7,5745],[64.7,5824],[64.7,5908],[64.7,5994],[64.7,6074],[64.7,6165],[64.7,6240],[64.7,6326],[64.7,6409],[64.8,6490],[64.8,6575],[64.8,6662],[64.8,6742],[64.8,6824],[64.8,6910],[64.8,6990],[64.9,7076],[65.1,7158],[65.3,7243],[65.3,7323],[65.3,7412],[65.3,7490],[65.3,7577],[65.3,7658],[65.3,7740],[65.3,7824],[65.3,7907],[65.3,7990],[65.3,8073],[65.3,8159],[65.3,8244],[65.3,8325],[65.3,8414],[65.3,8490]]",1,0,422.5371,424.741,64.79166524,1.2137,"[{""rating"":64.79166523563073,""responseTime"":1.2136999998092506}]",space,1.6712,,424.7412,Not at all,0,424.7477,,,[],,0,5,5,5,1,audio/Narrative7Situation5.wav,audio/Narrative8Situation5.wav,audio/Narrative5Situation5.wav,audio/Narrative6Situation5.wav,5,2,5,2,,,,,,,,,,,,,,,,,,,,,,,,,,,,,,,,,,,,,,,
,,,,,,65e3e371f66e65c7f9720ec2,2024-05-13_13h51.41.981,group3.1-3.2-social-tom,2023.2.2,Win32,59.88023952,65c5074098b851296ff0b7ed,664252f6a2cd6a58eda0747e,,,,,,,,,,,,,,,,,,,,,,,,,,,,,424.7479,1,audio/Narrative7Situation6.wav,427.762,,427.7621,437.7556,"[[64.2,182],[64.2,263],[64.2,344],[64,458],[63.8,539],[63.7,622],[63.7,706],[63.4,802],[63.2,887],[62.9,957],[62.6,1064],[62.6,1154],[62.6,1235],[61.8,1320],[61.4,1405],[61.4,1472],[61.4,1557],[61.4,1639],[61.4,1724],[61.4,1806],[61.4,1893],[61.4,1974],[61.4,2071],[61.5,2153],[61.8,2237],[61.8,2323],[61.8,2412],[61.8,2490],[61.8,2577],[61.7,2666],[61.1,2759],[60.9,2849],[60.9,2928],[60.8,3020],[60.2,3103],[60,3183],[60,3259],[60,3339],[60,3428],[60.4,3521],[61.3,3620],[62,3720],[62.7,3803],[63.8,3900],[64.2,3987],[64.9,4071],[65.7,4158],[66.2,4253],[66.5,4329],[66.5,4411],[66.5,4499],[66.5,4576],[66.5,4656],[66.5,4752],[66.5,4833],[66.5,4919],[66.5,4996],[66.5,5071],[66.7,5167],[67.7,5272],[67.7,5353],[68.5,5445],[68.6,5531],[68.7,5610],[68.8,5699],[68.8,5783],[68.8,5866],[68.8,5966],[68.8,6067],[68.8,6144],[68.8,6222],[68.8,6310],[68.8,6413],[68.8,6495],[69,6584],[69,6667],[69.1,6747],[69.3,6833],[69.3,6919],[69.3,7037],[69.3,7137],[69.3,7243],[69.3,7333],[69.3,7410],[69.3,7489],[69.3,7583],[69.3,7661],[69.3,7738],[69.5,7833],[69.8,7920],[70,8005],[70.3,8088],[70.6,8171],[70.7,8261],[70.9,8352],[71.4,8434],[71.9,8519],[72.6,8619],[72.9,8690],[73.4,8789],[73.7,8884],[73.7,8962],[73.7,9044],[73.7,9121],[73.7,9211],[73.7,9313],[73.7,9395],[73.7,9477],[73.7,9564],[73.7,9637],[73.7,9725],[73.7,9805],[73.7,9899],[73.7,9978]]",1,0,437.7567,440.5516,74.16666222,1.5533,"[{""rating"":74.16666221533096,""responseTime"":1.5532999997139427}]",space,2.2239,,440.5517,Not at all,0,440.5543,,,[],,0,6,6,6,1,audio/Narrative7Situation6.wav,audio/Narrative8Situation6.wav,audio/Narrative5Situation6.wav,audio/Narrative6Situation6.wav,3,2,3,2,,,,,,,,,,,,,,,,,,,,,,,,,,,,,,,,,,,,,,,
,,,,,,65e3e371f66e65c7f9720ec2,2024-05-13_13h51.41.981,group3.1-3.2-social-tom,2023.2.2,Win32,59.88023952,65c5074098b851296ff0b7ed,664252f6a2cd6a58eda0747e,,,,,,,,,,,,,,,,,,,,,,,,,,,,,440.5544,1,audio/Narrative7Situation7.wav,445.5664,,445.5665,462.7629,"[[71.7,96],[71.6,177],[71.6,253],[71.6,332],[71.6,430],[71.6,512],[71.6,587],[71.6,676],[71.6,755],[71.3,838],[71,930],[70.8,1012],[70.8,1082],[70.8,1177],[70.8,1249],[70.8,1345],[70.8,1424],[70.8,1498],[70.8,1596],[70.8,1685],[70.8,1773],[70.8,1854],[70.7,1933],[70.4,2023],[70.4,2101],[69.7,2196],[68.9,2280],[68.9,2355],[68.9,2435],[68.9,2526],[68.4,2614],[67.4,2699],[67.1,2781],[67.1,2865],[67.1,2948],[67,3031],[66.9,3122],[66.8,3208],[66.8,3293],[66.8,3379],[66.8,3451],[68.2,3547],[68.3,3629],[68.3,3712],[68.3,3795],[68.3,3878],[68.3,3960],[68.3,4045],[68.3,4126],[66.7,4212],[66.7,4296],[66.7,4379],[66.5,4460],[66.4,4543],[66.4,4625],[66.4,4721],[66.1,4814],[65.8,4897],[65.4,4981],[65,5064],[64.7,5148],[64.7,5231],[64.5,5314],[64.5,5397],[64.5,5480],[64.5,5564],[64.5,5647],[64.5,5731],[64.4,5823],[64.2,5914],[64.2,6004],[63.8,6112],[63.7,6196],[63.5,6289],[62.9,6373],[62.1,6463],[61.9,6544],[61.8,6620],[61.6,6704],[61.6,6784],[61.6,6875],[61.6,6955],[61.4,7045],[61.2,7128],[60.7,7212],[60.5,7295],[60.3,7379],[60.2,7461],[60.1,7540],[59.8,7628],[59.7,7705],[59.1,7796],[58.6,7896],[58.5,7979],[58.3,8062],[58.2,8146],[58.2,8232],[57.7,8324],[57.4,8412],[56.9,8498],[56.5,8580],[55.9,8678],[55.5,8760],[55.3,8832],[55.1,8927],[54.8,9010],[54.4,9096],[54.3,9175],[54,9278],[53.8,9363],[53.4,9439],[53,9528],[52.9,9605],[52.7,9691],[52.5,9777],[52.4,9866],[52.3,9963],[52.2,10083],[52.2,10178],[52.2,10255],[52.2,10350],[52,10431],[51.9,10527],[51.3,10629],[51.2,10703],[50.8,10787],[50.7,10864],[50.7,10946],[50.3,11030],[50.1,11113],[50.1,11196],[49.9,11281],[49.8,11363],[49.8,11446],[49.8,11532],[49.8,11613],[49.8,11696],[49.6,11781],[49.4,11865],[49.2,11954],[49.1,12032],[49.1,12117],[49.1,12198],[48.8,12280],[48.8,12363],[48.3,12447],[48.2,12529],[48,12613],[47.8,12696],[47.7,12780],[47.7,12863],[47.7,12946],[47.6,13033],[47.5,13116],[47.5,13199],[47.4,13279],[47.2,13368],[47,13446],[47,13529],[47,13617],[47,13696],[47,13779],[47,13863],[46.8,13947],[46.6,14029],[46.5,14122],[46.3,14198],[46,14283],[46,14373],[45.5,14451],[45.4,14533],[45.1,14617],[44.9,14700],[44.9,14781],[44.7,14865],[44.7,14946],[44.7,15030],[44.6,15112],[44.4,15202],[44.4,15283],[44.4,15367],[44.4,15446],[44.4,15531],[44.4,15614],[44.4,15697],[44.4,15779],[44.4,15863],[44.6,15947],[45.5,16030],[46.7,16113],[46.9,16195],[47.7,16288],[48.5,16371],[48.5,16447],[48.5,16532],[49.3,16615],[49.8,16699],[50.8,16779],[51.4,16869],[51.6,16949],[51.9,17031],[52,17112],[52.1,17195]]",1,0,462.7631,469.1587,64.47916446,4.6435,"[{""rating"":64.47916446210598,""responseTime"":4.643500000000017}]",space,5.841,,469.159,Not at all,0,469.1604,,,[],,0,7,7,7,1,audio/Narrative7Situation7.wav,audio/Narrative8Situation7.wav,audio/Narrative5Situation7.wav,audio/Narrative6Situation7.wav,5,3,4,5,,,,,,,,,,,,,,,,,,,,,,,,,,,,,,,,,,,,,,,
,,,,,,65e3e371f66e65c7f9720ec2,2024-05-13_13h51.41.981,group3.1-3.2-social-tom,2023.2.2,Win32,59.88023952,65c5074098b851296ff0b7ed,664252f6a2cd6a58eda0747e,,,,,,,,,,,,,,,,,,,,,,,,,,,,,469.1606,1,audio/Narrative7Situation8.wav,471.1759,,471.176,481.2023,"[[999,0],[999,94],[999,183],[999,266],[999,348],[999,432],[999,516],[999,597],[999,700],[999,778],[999,867],[999,950],[999,1031],[999,1116],[999,1199],[999,1281],[999,1366],[999,1450],[999,1530],[999,1614],[999,1714],[999,1818],[60.2,1902],[58.9,1989],[57.8,2068],[57.4,2155],[57.1,2249],[56.2,2334],[54.9,2411],[54.8,2490],[54.5,2576],[54.5,2656],[54.5,2734],[55.3,2827],[57.3,2912],[57.8,2987],[57.8,3069],[57.8,3150],[57.8,3237],[57.8,3317],[58.3,3402],[58.3,3486],[58.3,3567],[58.3,3657],[58.4,3737],[58.4,3822],[58.6,3900],[58.6,3988],[58.7,4068],[59,4171],[59,4255],[59,4345],[59,4424],[59,4506],[59,4590],[59,4696],[59,4772],[59,4865],[59,4939],[59.1,5033],[59.2,5126],[59.3,5236],[59.3,5334],[59.3,5417],[59.3,5500],[59.7,5584],[59.9,5667],[59.9,5750],[60.1,5834],[60.1,5918],[60.1,6008],[60.1,6095],[60.1,6174],[60.1,6250],[60.1,6341],[60.1,6421],[60.2,6513],[60.3,6596],[60.4,6673],[60.7,6762],[61,6847],[61.4,6931],[61.5,7009],[61.9,7098],[62.4,7183],[62.9,7280],[62.9,7358],[62.9,7440],[62.9,7527],[62.9,7614],[62.9,7683],[62.9,7773],[63.1,7857],[63.1,7943],[63.1,8051],[63.6,8140],[64.4,8227],[64.8,8318],[65.1,8427],[66.2,8529],[67.2,8624],[67.4,8708],[67.7,8807],[68.8,8905],[69.1,8985],[69.3,9081],[69.3,9156],[69.3,9238],[69.3,9320],[69.3,9399],[69.3,9490],[69.3,9578],[69.6,9665],[69.6,9744],[69.7,9829],[69.8,9911],[69.8,10006]]",1,0,481.2032,483.3765,70.41666168,1.2044,"[{""rating"":70.41666167504808,""responseTime"":1.2044000000953474}]",space,1.6339,,483.3769,Half the time,50,483.3857,,,[],,0,8,8,8,1,audio/Narrative7Situation8.wav,audio/Narrative8Situation8.wav,audio/Narrative5Situation8.wav,audio/Narrative6Situation8.wav,2,3,3,5,,,,,,,,,,,,,,,,,,,,,,,,,,,,,,,,,,,,,,,
,,,,,,65e3e371f66e65c7f9720ec2,2024-05-13_13h51.41.981,group3.1-3.2-social-tom,2023.2.2,Win32,59.88023952,65c5074098b851296ff0b7ed,664252f6a2cd6a58eda0747e,,,,,,,,,,,,,,,,,,,,,,,,,,,,,483.386,1,audio/Narrative7Situation9.wav,485.3948,,485.3952,494.022,"[[69.1,92],[68.7,174],[68.5,253],[68.4,342],[68.2,425],[68.2,507],[68.2,586],[67.6,677],[66.5,768],[66.3,847],[66.3,930],[65.8,1029],[65.4,1111],[65.3,1219],[65.2,1313],[65,1409],[64.9,1512],[64.9,1596],[64.7,1679],[64.4,1776],[64.4,1853],[64.2,1944],[64.2,2025],[63.9,2105],[63.7,2186],[63.5,2276],[63.5,2346],[63.4,2436],[63.4,2519],[63.3,2626],[63.3,2704],[63.3,2793],[63.3,2874],[63.3,2948],[63.2,3043],[63.2,3122],[63.2,3196],[63.2,3290],[63.1,3369],[63.1,3446],[63.1,3531],[64,3622],[65,3711],[66.9,3807],[68.3,3896],[68.7,3979],[70,4063],[71.3,4146],[71.4,4229],[72.1,4317],[73.2,4397],[75,4479],[75.6,4562],[75.6,4645],[75.6,4730],[75.9,4827],[76.4,4907],[76.4,4985],[76.5,5068],[76.5,5156],[76.5,5235],[76.5,5312],[76.5,5400],[76.6,5485],[76.6,5567],[76.6,5653],[76.6,5733],[76.6,5812],[76.6,5906],[76.6,5981],[76.6,6074],[76.6,6154],[76.9,6250],[77.1,6343],[77.1,6428],[77.1,6507],[77.3,6592],[77.4,6677],[77.4,6760],[77.4,6840],[77.4,6927],[77.4,7007],[77.4,7093],[77.4,7179],[77.5,7268],[77.6,7359],[77.6,7438],[77.8,7527],[77.9,7609],[78.2,7692],[78.7,7777],[78.7,7852],[78.7,7937],[78.7,8011],[78.9,8102],[78.9,8194],[79.3,8293],[79.4,8370],[79.4,8460],[79.4,8543],[79.4,8626]]",1,0,494.0222,496.7906,81.45833236,1.7299,"[{""rating"":81.4583323608849,""responseTime"":1.7298999996185103}]",space,2.2197,,496.791,Not at all,0,496.8002,,,[],,0,9,9,9,1,audio/Narrative7Situation9.wav,audio/Narrative8Situation9.wav,audio/Narrative5Situation9.wav,audio/Narrative6Situation9.wav,2,3,3,4,,,,,,,,,,,,,,,,,,,,,,,,,,,,,,,,,,,,,,,
,,,,,,65e3e371f66e65c7f9720ec2,2024-05-13_13h51.41.981,group3.1-3.2-social-tom,2023.2.2,Win32,59.88023952,65c5074098b851296ff0b7ed,664252f6a2cd6a58eda0747e,,,,,,,,,,,,,,,,,,,,,,,,,,,,,496.8005,1,audio/Narrative8Situation1.wav,501.807,,501.8073,517.7613,"[[77.4,98],[77.2,194],[77,280],[76.9,362],[76.9,446],[76.9,529],[76.9,613],[76.9,704],[76.9,788],[76.4,880],[75.2,962],[74.1,1060],[74.1,1137],[74.1,1229],[73.9,1305],[73.8,1394],[73.6,1474],[73.2,1562],[73.2,1639],[72.8,1727],[72.7,1812],[72.6,1886],[72.5,1974],[72.5,2060],[72.5,2144],[72.5,2219],[69.6,2313],[67.3,2394],[64.1,2477],[60.5,2559],[58.2,2642],[57.6,2723],[54.6,2808],[54.3,2883],[53.6,2965],[53.4,3052],[53.4,3131],[53.4,3217],[53,3300],[52.8,3385],[52.5,3465],[52,3549],[51.6,3636],[51.3,3718],[51.3,3797],[51.3,3880],[51.3,3966],[51.3,4049],[51.3,4135],[51.3,4216],[51.3,4297],[51.3,4381],[51.3,4463],[51.3,4549],[51.2,4636],[51.2,4713],[51.2,4797],[51,4880],[50.7,4966],[50.4,5049],[50.4,5131],[50.4,5216],[49.9,5301],[49.4,5386],[49.1,5467],[48.9,5553],[48.8,5639],[48.8,5719],[48.8,5798],[48.8,5892],[47.4,5996],[47.1,6071],[47,6155],[46.7,6232],[46.5,6326],[46.3,6412],[46.3,6487],[46.1,6576],[45.5,6662],[45.2,6762],[44.7,6856],[44.6,6947],[44.1,7032],[43.4,7129],[42.5,7212],[42.5,7286],[42.4,7378],[42.1,7460],[41.9,7544],[41.8,7628],[41.8,7711],[41.6,7794],[41.6,7878],[41.6,7961],[40.9,8068],[40.2,8147],[40.2,8237],[38.3,8335],[37.8,8426],[37.3,8511],[36.3,8595],[35.6,8678],[35.2,8756],[35,8845],[34.8,8922],[34.6,9011],[34.6,9080],[34.4,9178],[33.3,9285],[33,9370],[32.9,9465],[32.7,9560],[32.4,9662],[31.9,9746],[31.9,9830],[31.9,9925],[31.9,10011],[32,10082],[33.3,10180],[34.9,10266],[34.9,10346],[34.9,10430],[34.9,10513],[34.9,10607],[34.9,10707],[34.9,10806],[34.9,10894],[34.9,10972],[35.1,11061],[35.1,11152],[35.1,11237],[35.1,11317],[35.4,11411],[35.6,11488],[35.6,11571],[35.6,11653],[35.8,11730],[35.8,11813],[35.8,11901],[36.2,11998],[36.2,12086],[36.7,12175],[37.2,12257],[37.9,12347],[38.9,12445],[39.8,12528],[40.1,12604],[41,12694],[41.6,12778],[41.8,12877],[41.8,12951],[41.8,13043],[41.8,13117],[41.8,13202],[41.8,13281],[41.8,13370],[41.8,13447],[41.8,13540],[41.8,13612],[41.8,13701],[41.8,13785],[41.8,13866],[41.8,13951],[41.8,14044],[41.8,14123],[45.5,14227],[47.1,14322],[49,14414],[49.8,14497],[50.5,14593],[52.1,14679],[53,14765],[54.1,14861],[54.6,14943],[55.5,15028],[56.1,15119],[56.3,15209],[57,15294],[58.7,15377],[64.1,15477],[67.7,15562],[70.1,15650],[71.9,15729],[72.1,15812],[72.1,15895]]",1,0,517.7619,521.4724,73.02082896,2.3165,"[{""rating"":73.0208289597449,""responseTime"":2.316500000000019}]",space,3.1764,,521.4731,All the time,100,521.4805,,,[],,0,10,10,10,1,audio/Narrative8Situation1.wav,audio/Narrative7Situation1.wav,audio/Narrative6Situation1.wav,audio/Narrative5Situation1.wav,5,2,2,5,,,,,,,,,,,,,,,,,,,,,,,,,,,,,,,,,,,,,,,
,,,,,,65e3e371f66e65c7f9720ec2,2024-05-13_13h51.41.981,group3.1-3.2-social-tom,2023.2.2,Win32,59.88023952,65c5074098b851296ff0b7ed,664252f6a2cd6a58eda0747e,,,,,,,,,,,,,,,,,,,,,,,,,,,,,521.4807,1,audio/Narrative8Situation2.wav,524.4919,,524.4919,534.6247,"[[999,13],[999,98],[999,187],[999,267],[999,353],[999,434],[999,515],[999,599],[999,684],[999,774],[999,858],[999,941],[66.4,1027],[65,1116],[64,1194],[63.5,1276],[62.6,1377],[62.5,1460],[61.8,1547],[61.4,1626],[61.4,1709],[61.3,1798],[60.9,1892],[60.5,1976],[60.5,2059],[60.5,2142],[60.7,2235],[63.3,2347],[64,2428],[64.4,2526],[64.8,2609],[64.8,2692],[64.9,2777],[65.3,2860],[66,2944],[66.5,3034],[66.9,3122],[66.9,3193],[66.9,3276],[66.9,3371],[67.1,3457],[67.1,3531],[67.4,3642],[67.6,3739],[67.7,3826],[67.7,3914],[69.3,4010],[69.3,4093],[69.6,4190],[70.6,4281],[70.8,4359],[70.9,4452],[70.9,4537],[70.9,4615],[70.9,4706],[70.9,4783],[70.9,4866],[70.9,4955],[70.9,5039],[71.1,5133],[71.2,5220],[71.2,5293],[71.2,5382],[71.2,5459],[71.2,5548],[71.2,5636],[71.2,5711],[71.3,5791],[71.3,5875],[71.3,5958],[71.3,6041],[71.3,6126],[71.3,6208],[71.4,6292],[71.4,6375],[71.6,6462],[71.7,6547],[71.9,6626],[72.3,6713],[72.8,6798],[73.2,6880],[73.3,6961],[73.3,7045],[73.3,7125],[73.3,7209],[73.3,7293],[73.3,7375],[73.3,7461],[73.3,7542],[73.3,7631],[73.3,7710],[73.3,7791],[73.3,7875],[73.3,7961],[73.3,8041],[73.3,8125],[73.3,8208],[73.3,8291],[73.3,8375],[73.3,8460],[73.3,8547],[73.5,8625],[73.9,8709],[75.8,8800],[78.8,8885],[83.8,8989],[84.1,9068],[84.3,9172],[84.6,9256],[84.8,9371],[86.3,9459],[86.4,9552],[86.4,9652],[86.4,9756],[86.4,9830],[86.4,9908],[86.4,10002],[86.4,10089]]",1,0,534.6257,536.3003,86.3541749,0.6778,"[{""rating"":86.3541748987678,""responseTime"":0.6778000001907003}]",space,1.1319,,536.3005,All the time,100,536.3062,,,[],,0,11,11,11,1,audio/Narrative8Situation2.wav,audio/Narrative7Situation2.wav,audio/Narrative6Situation2.wav,audio/Narrative5Situation2.wav,3,3,3,3,,,,,,,,,,,,,,,,,,,,,,,,,,,,,,,,,,,,,,,
,,,,,,65e3e371f66e65c7f9720ec2,2024-05-13_13h51.41.981,group3.1-3.2-social-tom,2023.2.2,Win32,59.88023952,65c5074098b851296ff0b7ed,664252f6a2cd6a58eda0747e,,,,,,,,,,,,,,,,,,,,,,,,,,,,,536.3078,1,audio/Narrative8Situation3.wav,540.3141,,540.3141,562.7018,"[[83,100],[83,179],[82.8,251],[82.7,338],[82.7,418],[82.7,501],[82.6,585],[82.4,671],[82.2,755],[82,836],[81.9,919],[81.9,1002],[81.9,1084],[81.9,1169],[81.9,1251],[81.9,1337],[81.9,1417],[81.9,1504],[81.7,1588],[81.6,1669],[81.5,1751],[81.5,1836],[81.5,1917],[81.5,2002],[81.5,2084],[81.9,2177],[82.5,2255],[83.1,2348],[84.2,2426],[84.8,2508],[85.8,2592],[87.2,2675],[87.8,2750],[88.3,2840],[88.5,2922],[88.5,3000],[88.5,3086],[88.5,3167],[88.5,3251],[88.5,3334],[88.5,3419],[88.5,3506],[88.5,3584],[88.5,3669],[88.5,3751],[88.5,3834],[88.5,3920],[88.5,4001],[88.5,4084],[88.5,4167],[88.5,4251],[88.5,4336],[88.5,4417],[88.5,4502],[88.5,4584],[88.5,4667],[88.5,4752],[88.5,4835],[88.5,4917],[88.5,5002],[88.5,5083],[88.5,5167],[88.5,5252],[88.5,5333],[88.5,5417],[88.5,5500],[88.5,5583],[88.5,5670],[88.5,5753],[88.5,5838],[88.5,5918],[88.5,6002],[88.5,6084],[88.5,6168],[88.5,6250],[88.5,6333],[88.5,6418],[88.5,6500],[88.5,6583],[88.5,6666],[88.5,6750],[88.5,6836],[88.5,6916],[88.5,7001],[88.5,7085],[88.5,7168],[88.5,7250],[88.5,7338],[88.5,7419],[88.5,7501],[88.5,7587],[88.5,7666],[88.5,7754],[88.5,7833],[88.5,7917],[88.5,8000],[88.5,8083],[88.5,8169],[88.5,8253],[88.5,8334],[88.5,8416],[88.5,8500],[88.5,8585],[88.5,8666],[88.5,8752],[88.5,8837],[88.5,8931],[88.5,9034],[88.5,9116],[88.5,9200],[88.5,9283],[88.5,9366],[88.5,9449],[88.5,9533],[88.5,9621],[88.5,9700],[88.5,9788],[88.5,9881],[88.5,9961],[88.5,10064],[88.5,10164],[88.5,10248],[89,10350],[89.3,10449],[89.6,10544],[89.8,10631],[89.8,10714],[89.8,10807],[89.8,10898],[89.8,10974],[89.8,11057],[89.8,11161],[89.8,11264],[89.8,11340],[89.8,11424],[90,11518],[90,11617],[90,11716],[90,11815],[90,11910],[90,11998],[90,12091],[90,12166],[90,12265],[90,12364],[90,12439],[90,12532],[90,12630],[90,12748],[90,12852],[90,12949],[90,13048],[90,13147],[90,13226],[90,13307],[90,13387],[90,13471],[90,13555],[90,13643],[90,13722],[90,13809],[90.1,13886],[90.1,13966],[90.3,14080],[90.5,14159],[90.6,14236],[90.6,14315],[90.6,14398],[90.6,14482],[90.6,14567],[90.6,14648],[90.6,14735],[90.6,14819],[90.6,14900],[90.6,14982],[90.6,15068],[90.6,15149],[90.7,15232],[91.2,15321],[91.4,15402],[91.6,15482],[91.7,15567],[92.2,15652],[92.6,15739],[92.7,15815],[93.1,15898],[93.2,15985],[93.2,16065],[93.3,16148],[93.3,16231],[93.3,16318],[93.3,16400],[93.3,16482],[93.3,16569],[93.3,16648],[93.3,16733],[93.3,16815],[93.3,16901],[93.3,16981],[93.3,17067],[93.3,17151],[93.3,17231],[93.3,17315],[93.3,17398],[93.3,17481],[93.3,17571],[93.3,17682],[93.3,17788],[93.3,17888],[93.3,17973],[93.3,18055],[93.3,18135],[93.3,18215],[93.3,18305],[93.3,18389],[93.3,18477],[93.3,18562],[93.3,18663],[93.3,18738],[93.3,18829],[93.3,18905],[93.3,18986],[93.3,19075],[93.3,19191],[93.3,19284],[93.3,19380],[93.3,19472],[93.3,19571],[93.3,19662],[93.3,19748],[93.3,19851],[93.3,19940],[93.3,20021],[93.3,20104],[93.3,20181],[93.3,20270],[93.3,20360],[93.3,20436],[93.3,20526],[93.3,20605],[93.3,20693],[93.3,20769],[93.3,20860],[93.3,20943],[93.3,21026],[93.3,21107],[93.3,21196],[93.3,21265],[93.3,21351],[93.3,21437],[93.3,21525],[93.3,21605],[93.3,21693],[93.3,21769],[93.3,21859],[93.3,21945],[93.3,22026],[93.3,22113],[93.3,22202],[93.3,22297],[93.3,22386]]",1,0,562.7028,564.8424,93.33332679,0.955,"[{""rating"":93.33332678676905,""responseTime"":0.9550000000000409}]",space,1.5869,,564.8425,Not at all,0,564.8469,,,[],,0,12,12,12,1,audio/Narrative8Situation3.wav,audio/Narrative7Situation3.wav,audio/Narrative6Situation3.wav,audio/Narrative5Situation3.wav,4,8,5,3,,,,,,,,,,,,,,,,,,,,,,,,,,,,,,,,,,,,,,,
,,,,,,65e3e371f66e65c7f9720ec2,2024-05-13_13h51.41.981,group3.1-3.2-social-tom,2023.2.2,Win32,59.88023952,65c5074098b851296ff0b7ed,664252f6a2cd6a58eda0747e,,,,,,,,,,,,,,,,,,,,,,,,,,,,,564.8489,1,audio/Narrative8Situation4.wav,567.8624,,567.8625,582.0403,"[[91.3,261],[91.2,339],[91.2,418],[91.2,504],[91.2,584],[91.2,672],[91.2,748],[91.2,846],[91.2,930],[91.2,1025],[91.2,1113],[91,1197],[91,1293],[91,1372],[91,1453],[91,1534],[90.9,1625],[90.5,1707],[90,1794],[89.7,1899],[89.7,2005],[89.5,2098],[89.4,2210],[89.2,2295],[89.2,2365],[88.9,2454],[88.8,2541],[88.7,2641],[88.7,2719],[88.7,2812],[88.5,2892],[88.4,2978],[87.3,3062],[86.3,3148],[85.8,3231],[85.3,3315],[85,3410],[84.8,3488],[83.5,3582],[82.2,3665],[82,3747],[80.8,3852],[77.8,3938],[76.7,4028],[76.3,4108],[75.9,4196],[74.8,4278],[73.2,4364],[72.3,4449],[72.1,4530],[72.1,4614],[72.1,4697],[71.6,4780],[70.8,4879],[69.9,4962],[67.9,5063],[66.6,5152],[65.2,5232],[64.8,5322],[64,5433],[63.2,5535],[62.4,5619],[61.8,5701],[61.2,5784],[60.5,5865],[60,5961],[59.5,6058],[58.3,6162],[57.5,6252],[56.9,6353],[55.7,6453],[55.1,6547],[55.2,6647],[55.2,6748],[56.3,6852],[56.7,6935],[57.1,7046],[57.3,7125],[57.5,7206],[58.4,7303],[59.8,7387],[62.2,7469],[63.5,7552],[64.9,7649],[65.3,7730],[65.4,7813],[65.7,7897],[68.2,7985],[69.7,8065],[71,8152],[73.8,8234],[74.4,8319],[74.4,8399],[74.5,8487],[74.5,8578],[74.5,8651],[74.5,8744],[74.5,8820],[74.5,8908],[74.5,8991],[74.5,9071],[74.5,9147],[74.5,9235],[74.5,9320],[74.5,9411],[74.5,9493],[74.5,9570],[74.5,9658],[74.5,9740],[74.5,9838],[74.5,9913],[74.5,10009],[74.5,10094],[74.5,10171],[74.5,10261],[74.5,10337],[74.7,10426],[74.9,10500],[74.9,10590],[74.9,10677],[74.9,10753],[74.9,10838],[74.9,10920],[74.9,11003],[74.9,11080],[75,11191],[75,11278],[75,11361],[75,11445],[75,11528],[75.2,11611],[75.3,11695],[75.4,11778],[75.6,11861],[75.8,11961],[75.8,12061],[75.8,12140],[75.8,12220],[75.8,12309],[75.8,12412],[75.9,12514],[76,12612],[76,12696],[76,12779],[76.1,12877],[76.6,12966],[77.1,13059],[77.4,13137],[78.1,13233],[80.1,13339],[81.1,13436],[81.1,13514],[81.1,13612],[81.1,13701],[81.1,13786],[81.1,13875],[81.1,13978],[81.1,14053],[81.1,14144]]",1,0,582.0405,584.7487,80.20832927,1.2582,"[{""rating"":80.20832926678594,""responseTime"":1.2582000002861378}]",space,2.168,,584.7494,Half the time,50,594.2326,49.79166307,8.0704,"[{""rating"":49.791663074499176,""responseTime"":8.070400000095333}]",space,0,13,13,13,1,audio/Narrative8Situation4.wav,audio/Narrative7Situation4.wav,audio/Narrative6Situation4.wav,audio/Narrative5Situation4.wav,3,3,2,1,,,8.9356,,,,,,,,,,,,,,,,,,,,,,,,,,,,,,,,,,,,
,,,,,,65e3e371f66e65c7f9720ec2,2024-05-13_13h51.41.981,group3.1-3.2-social-tom,2023.2.2,Win32,59.88023952,65c5074098b851296ff0b7ed,664252f6a2cd6a58eda0747e,,,,,,,,,,,,,,,,,,,,,,,,,,,,,594.2331,1,audio/Narrative8Situation5.wav,596.2423,,596.2424,604.4865,"[[50.5,2139],[50.5,2237],[51,2340],[51.3,2451],[51.3,2547],[51.3,2646],[51.3,2746],[51.3,2852],[51.6,2947],[52,3048],[52.8,3149],[53.7,3246],[53.7,3355],[54.2,3463],[55.1,3557],[55.8,3653],[56.5,3753],[56.5,3847],[56.6,3958],[56.6,4037],[56.6,4151],[56.6,4253],[56.1,4347],[56,4459],[56,4563],[56,4648],[56,4767],[56,4882],[56,4984],[56,5098],[56,5198],[56.5,5296],[57.2,5402],[57.5,5502],[57.6,5597],[57.6,5705],[57.6,5809],[57.6,5913],[57.6,6012],[57.6,6096],[58.2,6198],[59.2,6284],[61,6374],[63.3,6468],[65.7,6561],[67.4,6647],[67.4,6730],[74.3,6828],[75.3,6917],[76.6,7002],[76.6,7079],[77,7170],[77,7253],[77,7336],[77,7424],[77,7506],[77,7589],[77,7674],[77,7757],[77.1,7844],[77.1,7925],[77.1,8010],[77.1,8091],[77.3,8177]]",1,0,604.4866,609.7174,77.39583105,2.0454,"[{""rating"":77.39583104707725,""responseTime"":2.0453999996184393}]",space,4.684,,609.7177,Not at all,0,609.7315,,,[],,0,14,14,14,1,audio/Narrative8Situation5.wav,audio/Narrative7Situation5.wav,audio/Narrative6Situation5.wav,audio/Narrative5Situation5.wav,2,5,2,5,,,,,,,,,,,,,,,,,,,,,,,,,,,,,,,,,,,,,,,
,,,,,,65e3e371f66e65c7f9720ec2,2024-05-13_13h51.41.981,group3.1-3.2-social-tom,2023.2.2,Win32,59.88023952,65c5074098b851296ff0b7ed,664252f6a2cd6a58eda0747e,,,,,,,,,,,,,,,,,,,,,,,,,,,,,609.7316,1,audio/Narrative8Situation6.wav,611.7411,,611.7416,618.2163,"[[76,944],[75.4,1032],[75.1,1117],[74,1701],[73.8,1783],[73.8,1868],[73.8,1958],[73.8,2028],[73.8,2122],[73.7,2223],[73.4,2324],[73.3,2395],[73.1,2493],[72.7,2589],[72.6,2689],[72.2,2778],[72,2872],[72,2948],[72,3044],[72,3142],[72,3211],[72,3302],[72,3383],[72,3467],[72,3559],[70.2,3659],[69.4,3744],[68.7,3829],[68.1,3915],[67.8,3994],[67.7,4078],[67.5,4161],[67.5,4244],[67.3,4327],[66.5,4411],[66,4500],[65.8,4584],[65.8,4666],[65.8,4752],[65.8,4831],[65.8,4921],[65.4,5022],[65.4,5118],[65.4,5200],[65.4,5287],[65.4,5372],[65.4,5452],[65.4,5527],[65.3,5624],[65.2,5709],[65.2,5806],[65.2,5901],[65.2,5982],[65.2,6078],[65.2,6162],[65.2,6261],[65.2,6350],[65.2,6473]]",1,0,618.2169,620.9831,63.4374923,1.4834,"[{""rating"":63.43749230301887,""responseTime"":1.4834000000953438}]",space,2.2053,,620.9831,Half the time,50,620.9875,,,[],,0,15,15,15,1,audio/Narrative8Situation6.wav,audio/Narrative7Situation6.wav,audio/Narrative6Situation6.wav,audio/Narrative5Situation6.wav,2,3,2,3,,,,,,,,,,,,,,,,,,,,,,,,,,,,,,,,,,,,,,,
,,,,,,65e3e371f66e65c7f9720ec2,2024-05-13_13h51.41.981,group3.1-3.2-social-tom,2023.2.2,Win32,59.88023952,65c5074098b851296ff0b7ed,664252f6a2cd6a58eda0747e,,,,,,,,,,,,,,,,,,,,,,,,,,,,,620.9894,1,audio/Narrative8Situation7.wav,624.0014,,624.0015,636.1004,"[[63.1,2475],[62.8,2556],[62.7,2638],[62.6,2717],[62.6,2799],[62.5,2884],[62.4,2975],[62.3,3053],[62.3,3133],[62.3,3216],[62.3,3298],[62.2,3382],[62.2,3469],[62.2,3549],[62.2,3639],[62.2,3715],[62.2,3802],[62.2,3882],[62.2,3965],[62.2,4051],[62.2,4134],[62.2,4218],[62.2,4298],[62.2,4383],[62.2,4465],[62.2,4552],[62.2,4635],[62.2,4719],[62.2,4798],[62.2,4886],[62.2,4971],[62.2,5049],[62.2,5136],[62.2,5220],[62.2,5298],[62.2,5383],[62.2,5466],[62.2,5548],[62.2,5632],[62.8,5725],[63.3,5803],[63.5,5886],[64.6,5973],[66,6057],[67.2,6147],[68.6,6247],[69.2,6353],[69.7,6449],[69.7,6530],[69.7,6609],[69.7,6697],[69.7,6780],[69.7,6863],[69.7,6947],[69.7,7029],[69.7,7116],[69.7,7213],[69.7,7282],[69.7,7379],[69.7,7456],[69.7,7532],[69.7,7622],[69.7,7706],[69.7,7789],[69.7,7865],[69.7,7954],[69.7,8036],[69.7,8115],[69.7,8213],[69.7,8315],[69.7,8415],[69.7,8547],[69.7,8664],[69.7,8731],[69.7,8814],[69.7,8900],[69.7,8981],[69.7,9064],[69.7,9150],[69.7,9231],[69.7,9320],[69.7,9400],[69.7,9481],[69.7,9566],[69.7,9648],[69.7,9731],[69.7,9815],[69.7,9902],[69.7,9981],[69.7,10067],[69.7,10149],[69.7,10233],[69.7,10316],[69.6,10409],[69.6,10481],[69.1,10565],[68.2,10648],[67.4,10737],[64.6,10820],[62.7,10904],[60.8,10986],[59.2,11072],[58.2,11148],[57,11237],[56.9,11318],[56.9,11397],[56.7,11482],[56.7,11564],[56.7,11648],[56.7,11731],[56.7,11818],[56.7,11900],[56.7,11980],[56.7,12064]]",1,0,636.1005,639.3188,56.35416183,2.7027,"[{""rating"":56.354161834490746,""responseTime"":2.702700000286086}]",space,2.687,,639.3194,Half the time,50,639.3255,,,[],,0,16,16,16,1,audio/Narrative8Situation7.wav,audio/Narrative7Situation7.wav,audio/Narrative6Situation7.wav,audio/Narrative5Situation7.wav,3,5,5,4,,,,,,,,,,,,,,,,,,,,,,,,,,,,,,,,,,,,,,,
,,,,,,65e3e371f66e65c7f9720ec2,2024-05-13_13h51.41.981,group3.1-3.2-social-tom,2023.2.2,Win32,59.88023952,65c5074098b851296ff0b7ed,664252f6a2cd6a58eda0747e,,,,,,,,,,,,,,,,,,,,,,,,,,,,,639.3257,1,audio/Narrative8Situation8.wav,642.3326,,642.3327,655.2414,"[[56.8,1613],[56.8,1688],[56.8,1772],[56.8,1851],[56.8,1943],[56.8,2024],[56.8,2098],[56.8,2185],[56.8,2268],[56.8,2362],[56.8,2434],[56.8,2526],[56.8,2609],[56.8,2684],[56.8,2772],[56.8,2856],[56.8,2934],[56.8,3017],[56.8,3116],[56.8,3208],[56.8,3286],[56.8,3377],[56.8,3448],[56.8,3541],[56.8,3621],[56.8,3704],[56.8,3796],[56.8,3869],[56.8,3959],[56.8,4038],[56.8,4118],[56.8,4204],[56.8,4281],[56.8,4378],[56.8,4462],[56.8,4546],[56.8,4629],[56.8,4711],[56.8,4797],[56.8,4888],[56.8,4979],[56.5,5070],[55.4,5163],[54.5,5253],[52.9,5345],[52.3,5428],[52.2,5503],[52,5584],[51.8,5679],[51.8,5753],[51.8,5842],[51.8,5914],[51.7,6009],[51.7,6088],[51.7,6179],[51.5,6259],[51.4,6335],[51.3,6422],[51.2,6509],[51.2,6584],[51.2,6671],[51,6752],[51,6844],[51,6925],[51,7004],[51,7085],[51,7163],[51,7254],[51,7361],[51,7431],[51,7520],[51,7597],[51,7687],[51,7769],[51,7858],[51,7937],[51,8014],[51,8103],[50.7,8192],[49.8,8283],[49.3,8364],[48.9,8448],[48.6,8543],[48.6,8628],[48.2,8715],[48,8813],[47.6,8897],[47.3,8981],[47.2,9071],[47.2,9147],[47.2,9230],[47,9314],[46.8,9397],[46.5,9480],[46.5,9563],[46.2,9647],[46,9729],[45.8,9813],[45.5,9903],[45.4,9984],[45.4,10063],[45.4,10146],[45.4,10232],[45.4,10320],[45.2,10396],[45.1,10482],[45.1,10564],[45,10646],[44.9,10729],[44.9,10813],[44.9,10899],[44.9,10981],[44.9,11074],[44.7,11178],[44.7,11260],[44.7,11345],[44.6,11430],[44.5,11524],[44.4,11606],[44.4,11681],[44.2,11769],[44.1,11856],[44.1,11943],[43.9,12039],[43.9,12126],[43.6,12210],[43.4,12294],[42.9,12378],[42.8,12462],[42.8,12545],[42.5,12644],[42.5,12718],[42.4,12811],[42.3,12908]]",1,0,655.2415,657.2757,41.97916122,0.9532,"[{""rating"":41.97916122040867,""responseTime"":0.9532000002860741}]",space,1.4932,,657.2761,Not at all,0,657.2797,,,[],,0,17,17,17,1,audio/Narrative8Situation8.wav,audio/Narrative7Situation8.wav,audio/Narrative6Situation8.wav,audio/Narrative5Situation8.wav,3,2,5,3,,,,,,,,,,,,,,,,,,,,,,,,,,,,,,,,,,,,,,,
,,,,,,65e3e371f66e65c7f9720ec2,2024-05-13_13h51.41.981,group3.1-3.2-social-tom,2023.2.2,Win32,59.88023952,65c5074098b851296ff0b7ed,664252f6a2cd6a58eda0747e,,,,,,,,,,,,,,,,,,,,,,,,,,,,,657.281,1,audio/Narrative8Situation9.wav,660.2841,,660.2844,671.594,"[[41.2,1548],[40.8,1627],[40.8,1710],[40.5,1793],[40.4,1877],[40.3,1961],[40.3,2043],[40.3,2126],[40.3,2216],[40.2,2306],[40.2,2386],[40.2,2471],[40.2,2544],[40.2,2634],[40.2,2718],[40.2,2798],[40.2,2877],[40.2,2971],[40.2,3049],[40.2,3127],[40.2,3210],[40.2,3304],[40.2,3404],[40.2,3524],[40,3609],[39.9,3706],[39.9,3790],[39.8,3872],[39.8,3949],[39.7,4033],[39.7,4125],[39.7,4196],[39.7,4287],[39.7,4367],[39.7,4443],[39.5,4538],[39.5,4610],[39.5,4707],[39.5,4783],[39.3,4891],[39.2,4968],[39.2,5053],[39.2,5132],[38.9,5223],[38.7,5307],[38.5,5377],[38.4,5464],[38.4,5551],[38.3,5633],[38.1,5721],[38.1,5796],[38.1,5907],[38.1,5982],[38.1,6065],[38.1,6155],[38.1,6240],[38.1,6313],[38.1,6399],[38.1,6482],[38.1,6566],[38.1,6650],[38.1,6726],[38.1,6809],[38.1,6905],[38.3,6990],[38.6,7069],[39.5,7159],[39.9,7242],[40,7326],[40.6,7423],[41.5,7507],[42,7608],[42.1,7691],[43,7790],[43.1,7874],[43.3,7953],[44,8035],[44.2,8123],[44.3,8203],[44.5,8301],[44.8,8384],[44.8,8465],[45,8549],[45.2,8640],[45.3,8716],[45.3,8807],[45.3,8889],[45.3,8963],[45.3,9042],[45.3,9139],[45.3,9215],[45.3,9297],[45.3,9388],[45.3,9486],[45.3,9570],[45.3,9645],[45.3,9732],[45.3,9813],[45.3,9905],[45.5,9986],[46.4,10091],[47.2,10172],[49,10273],[49.4,10358],[50,10442],[50.5,10525],[51,10609],[51.5,10693],[51.6,10775],[51.6,10858],[51.6,10941],[51.6,11025],[51.6,11109],[51.8,11191],[52,11275]]",1,0,671.5943,673.9968,51.35416694,1.2309,"[{""rating"":51.35416694212287,""responseTime"":1.230900000095403}]",space,1.8463,,673.9973,All the time,100,674.0048,,,[],,0,18,18,18,1,audio/Narrative8Situation9.wav,audio/Narrative7Situation9.wav,audio/Narrative6Situation9.wav,audio/Narrative5Situation9.wav,3,2,4,3,,,,,,,,,,,,,,,,,,,,,,,,,,,,,,,,,,,,,,,
,,,,,,65e3e371f66e65c7f9720ec2,2024-05-13_13h51.41.981,group3.1-3.2-social-tom,2023.2.2,Win32,59.88023952,65c5074098b851296ff0b7ed,664252f6a2cd6a58eda0747e,,,,,,,,,,,,,,,,,,,,,,,,,,,694.9701,697.5397,697.5524,2,audio/Narrative13Situation2.wav,697.5525,,697.5525,727.3174,"[[51,1701],[51,1776],[51,1852],[51,1939],[51,2019],[51,2102],[51,2187],[51,2273],[51,2354],[51,2435],[50.9,2521],[50.9,2605],[50.8,2685],[50.8,2773],[50.7,2858],[50.7,2936],[50.7,3018],[50.7,3107],[50.7,3185],[50.7,3271],[50.7,3356],[50.8,3436],[51,3518],[52.2,3616],[54.8,3705],[58.9,3799],[62.9,3884],[65.6,3969],[66.5,4052],[69.2,4135],[71.9,4218],[72.4,4301],[72.4,4385],[72.6,4469],[73.5,4551],[73.5,4635],[73.5,4718],[73.5,4801],[73.5,4885],[74,4980],[75.9,5086],[75.9,5168],[75.9,5252],[76.5,5351],[77.9,5439],[78.2,5518],[78.6,5602],[79.7,5688],[79.9,5768],[80,5851],[80,5934],[80,6030],[80.1,6116],[80.1,6195],[80.1,6317],[80.1,6417],[80.2,6519],[80.2,6624],[80.7,6723],[81,6820],[81.2,6931],[81.2,7016],[81.2,7116],[81.7,7221],[82.2,7318],[82.5,7420],[83.1,7524],[83.4,7612],[83.9,7723],[83.9,7818],[83.9,7926],[83.9,8001],[83.9,8099],[83.9,8174],[84.2,8260],[84.2,8334],[84.2,8427],[84.2,8530],[84.2,8633],[84.2,8722],[84.2,8825],[84.2,8918],[84.2,9016],[84.2,9121],[84.2,9207],[84.2,9289],[84.2,9378],[84.2,9452],[84.2,9534],[84.2,9619],[84.2,9702],[84.2,9797],[84.2,9873],[84.2,9965],[84.2,10039],[84.2,10138],[84.1,10229],[84,10311],[83.7,10397],[83.7,10473],[83.6,10563],[83.5,10670],[83.5,10753],[83.5,10868],[83.5,10966],[83.5,11078],[83.5,11158],[83.5,11234],[83.5,11317],[83.5,11411],[83.5,11505],[83.5,11594],[83.5,11671],[83.5,11750],[83.5,11840],[83.5,11920],[83.5,12005],[83.4,12096],[83.3,12178],[83.2,12260],[83.1,12340],[83.1,12421],[83.1,12507],[83.1,12591],[83.1,12677],[83.1,12756],[83,12845],[82.7,12941],[82.7,13024],[82.7,13110],[82.7,13195],[82.7,13274],[82.7,13364],[82.7,13449],[82.8,13534],[83.1,13618],[83.4,13700],[83.4,13783],[83.4,13867],[83.4,13950],[83.4,14033],[83.4,14121],[83.4,14208],[83.4,14290],[83.1,14381],[83,14463],[83,14539],[83,14621],[82.6,14706],[82.5,14795],[82.5,14875],[82.5,14953],[82.5,15038],[82.5,15123],[82.5,15210],[82.5,15295],[82.5,15373],[82.5,15459],[82.5,15564],[82.5,15633],[82.5,15721],[82.5,15806],[82.5,15888],[82.5,15980],[82.5,16056],[82.5,16139],[82.5,16227],[82.5,16312],[82.5,16395],[82.5,16478],[82.5,16564],[82.5,16647],[82.5,16727],[82.5,16812],[82.5,16895],[82.5,16995],[82.5,17071],[82.5,17159],[82.5,17243],[82.5,17322],[82.5,17410],[82.5,17489],[82.5,17582],[82.5,17667],[82.5,17760],[82.5,17838],[82.5,17927],[82.5,18011],[82.5,18114],[82.5,18200],[82.5,18307],[82.5,18383],[82.5,18477],[82.5,18553],[82.5,18636],[82.5,18718],[82.5,18799],[82.5,18890],[82.5,18969],[82.2,19067],[82,19151],[81.9,19233],[81.1,19333],[80.7,19417],[80.3,19499],[79.9,19582],[79.8,19677],[79.5,19758],[79.3,19840],[79.3,19930],[79.3,20003],[79.3,20088],[79.3,20167],[79.3,20253],[79.3,20341],[79.3,20428],[79.3,20503],[79.3,20591],[79.3,20674],[79.3,20754],[79.3,20847],[79.3,20922],[79.3,21009],[79.3,21088],[79.3,21165],[79.3,21252],[79.3,21332],[78.4,21416],[78.3,21498],[78.3,21584],[78.3,21682],[78.3,21771],[77.9,21863],[77.8,21939],[77.7,22027],[77.7,22106],[77.7,22186],[77.4,22272],[77,22349],[76.8,22431],[76.2,22519],[76.1,22600],[75.9,22688],[75.7,22770],[75.7,22849],[75.3,22932],[75.1,23015],[75.1,23098],[74.8,23188],[74.7,23270],[74.6,23351],[74.1,23438],[74.1,23517],[73.8,23598],[73.8,23684],[73.7,23765],[73.7,23851],[72.9,23933],[72.1,24016],[72.1,24104],[72,24181],[71.8,24266],[71.7,24353],[71.7,24431],[71.7,24514],[71.6,24598],[71.6,24684],[71.6,24766],[71.6,24848],[71.3,24932],[71.3,25014],[71.2,25098],[71.2,25182],[71.1,25270],[71,25350],[71,25431],[71,25515],[70.7,25602],[70.4,25683],[70.2,25768],[70,25847],[69.9,25931],[69.7,26019],[69.5,26103],[69.4,26181],[69.4,26268],[68.9,26352],[68.5,26438],[68.4,26519],[68.2,26600],[67.9,26689],[67.8,26764],[67.3,26847],[67.1,26931],[67.1,27017],[67.1,27100],[67.1,27185],[67.1,27265],[66.9,27352],[66.9,27435],[66.8,27516],[66.7,27602],[66.6,27681],[66.5,27766],[66.4,27848],[66.3,27931],[66.3,28014],[66.3,28098],[66.3,28180],[66.3,28268],[66.3,28347],[66.3,28431],[66.3,28514],[66.3,28601],[66.3,28686],[66.3,28765],[66.3,28848],[66.3,28936],[66.3,29014],[66.4,29100],[66.4,29181],[66.4,29267],[66.4,29348],[66.4,29430],[66.4,29516],[66.4,29598],[66.4,29682],[66.4,29764]]",1,0,727.318,727.3277,,,[],,,,727.3277,Not at all,0,727.3291,,,[],,0,0,0,0,1,audio/Narrative13Situation2.wav,audio/Narrative13Situation2.wav,audio/Narrative13Situation2.wav,audio/Narrative13Situation2.wav,2,2,2,2,,,,,674.0053,694.9625,space,20.4299,,,,,,,,,,,,,,,,,,,,,,,,,,,,,,,
,,,,,,65e3e371f66e65c7f9720ec2,2024-05-13_13h51.41.981,group3.1-3.2-social-tom,2023.2.2,Win32,59.88023952,65c5074098b851296ff0b7ed,664252f6a2cd6a58eda0747e,,,,,,,,,,,,,,,,,,,,,,,,,,,,,727.3292,2,audio/Narrative5Situation1.wav,732.3338,,732.3341,745.6367,"[[66.3,1032],[65.6,1116],[65.6,1198],[65.6,1281],[65.6,1370],[65.3,1460],[62.9,1553],[62.6,1631],[62.6,1714],[62.6,1803],[62.6,1886],[62.6,1979],[62.6,2054],[62.6,2143],[62.6,2223],[62.6,2309],[62.6,2389],[62.6,2470],[62.6,2559],[62.6,2639],[62.4,2729],[62.1,2829],[62.1,2902],[62.1,2985],[62.1,3096],[62.1,3181],[62.1,3273],[62.1,3348],[62.1,3442],[62.1,3522],[62.1,3605],[62.1,3693],[62.1,3770],[62.1,3854],[62.1,3945],[61.8,4026],[60.8,4140],[58.4,4244],[57.6,4339],[55.5,4435],[55.3,4527],[54.6,4612],[54.3,4689],[53.9,4766],[52.8,4856],[52.5,4931],[52.4,5016],[52.2,5098],[50.7,5186],[48.8,5271],[47.2,5354],[46.3,5439],[45.6,5522],[44.6,5620],[42.5,5739],[40.2,5836],[39,5923],[37.6,6015],[36.7,6111],[35.9,6193],[35.5,6271],[35.3,6357],[35,6445],[35,6544],[35,6626],[35,6711],[35,6792],[35,6897],[35,6995],[35.4,7092],[37.5,7184],[37.5,7264],[40,7362],[41.2,7446],[42.1,7528],[42.4,7606],[42.6,7682],[42.7,7763],[42.7,7853],[42.7,7934],[42.7,8014],[42.7,8103],[42.7,8180],[42.7,8263],[42.7,8348],[42.7,8430],[42.7,8515],[42.7,8596],[42.7,8681],[42.7,8764],[42.7,8846],[42.7,8931],[42.7,9015],[42.7,9096],[42.7,9180],[42.7,9263],[42.7,9350],[42.7,9429],[42.7,9518],[42.7,9598],[42.7,9679],[42.7,9763],[42.9,9850],[43.3,9938],[43.8,10015],[45.6,10103],[48.8,10188],[49.8,10263],[50.3,10351],[50.9,10440],[51,10521],[51.1,10599],[51.6,10680],[52.7,10771],[53.7,10855],[54.4,10930],[54.9,11014],[55.2,11104],[56,11185],[57.2,11270],[57.8,11348],[57.8,11432],[59.4,11524],[59.7,11597],[59.9,11680],[59.9,11766],[59.9,11847],[59.9,11929],[60.1,12012],[60.2,12102],[60.4,12179],[60.7,12268],[60.9,12349],[61,12429],[61,12517],[61,12598],[61,12679],[61,12763],[61,12846],[61,12930],[61,13013],[61,13100],[61,13180],[61,13262]]",1,0,745.6373,748.3254,58.33332757,1.3753,"[{""rating"":58.333327572138096,""responseTime"":1.375300000190805}]",space,2.1306,,748.3258,Half the time,50,748.3306,,,[],,0,1,1,1,1,audio/Narrative7Situation1.wav,audio/Narrative8Situation1.wav,audio/Narrative5Situation1.wav,audio/Narrative6Situation1.wav,2,5,5,2,,,,,,,,,,,,,,,,,,,,,,,,,,,,,,,,,,,,,,,
,,,,,,65e3e371f66e65c7f9720ec2,2024-05-13_13h51.41.981,group3.1-3.2-social-tom,2023.2.2,Win32,59.88023952,65c5074098b851296ff0b7ed,664252f6a2cd6a58eda0747e,,,,,,,,,,,,,,,,,,,,,,,,,,,,,748.3325,2,audio/Narrative5Situation2.wav,751.3351,,751.3353,780.8227,"[[56.2,855],[55.9,950],[55.5,1038],[55.5,1118],[55.5,1196],[55.5,1288],[55.5,1360],[55.5,1444],[55.5,1535],[55.5,1616],[55.5,1705],[55.5,1779],[55.5,1861],[55.5,1958],[55.5,2031],[55.5,2123],[55.5,2205],[55.5,2292],[55.5,2375],[55.5,2459],[55.5,2549],[55.5,2641],[55.5,2723],[55.5,2798],[55.5,2890],[55.5,2968],[55.5,3048],[55.5,3134],[55.5,3210],[55.5,3304],[55.5,3406],[55.5,3485],[55.5,3585],[55.5,3666],[55.5,3749],[55.5,3832],[55.5,3920],[55.5,4005],[55.1,4088],[54.8,4165],[54.8,4249],[54.8,4331],[54.8,4416],[54.8,4508],[54.8,4584],[54.8,4660],[54.8,4755],[54.8,4829],[54.8,4919],[54.8,5015],[54.8,5107],[54.8,5180],[54.8,5269],[54.7,5349],[54.7,5435],[55,5523],[55.2,5604],[55.4,5681],[55.4,5791],[55.4,5877],[55.4,5975],[55.5,6078],[55.5,6168],[55.5,6255],[55.5,6337],[55.5,6424],[55.5,6507],[55.5,6591],[55.5,6671],[55.5,6754],[55.5,6849],[55.5,6927],[55.5,7017],[55.5,7102],[55.5,7181],[55.5,7267],[55.5,7354],[55.5,7438],[55.5,7520],[55.5,7609],[55.4,7704],[55.3,7786],[55.3,7865],[55.1,7945],[55,8036],[54.8,8124],[54.8,8206],[54.8,8281],[54.8,8370],[54.8,8451],[54.8,8540],[54.8,8620],[54.8,8705],[54.8,8784],[54.8,8874],[54.8,8956],[54.8,9037],[54.8,9120],[54.8,9203],[54.8,9291],[54.8,9376],[54.1,9474],[52.5,9559],[52.2,9642],[51.9,9740],[51.4,9834],[51,9928],[50.1,10028],[49.2,10122],[48.7,10221],[48.6,10310],[48.3,10404],[48.2,10482],[48,10573],[47.6,10654],[46.8,10738],[46.6,10816],[46.5,10900],[46.3,10981],[46.2,11063],[46.2,11143],[46,11232],[45.6,11318],[45.5,11399],[45.4,11488],[45.1,11569],[45,11648],[44.9,11725],[44.6,11818],[44.5,11899],[44.4,11989],[44.3,12069],[44.2,12156],[44.1,12240],[44,12335],[43.9,12416],[43.6,12507],[43.6,12590],[43.5,12673],[43.4,12771],[43.4,12850],[43.4,12936],[43.4,13031],[43.4,13139],[43.1,13209],[43,13299],[43,13389],[42.8,13472],[42.6,13568],[42.5,13649],[42.5,13737],[42.3,13832],[42.3,13916],[42,14000],[41.5,14092],[41.3,14174],[41,14258],[41,14341],[40.8,14425],[40.8,14507],[40.8,14592],[40.8,14681],[40.8,14761],[40.8,14855],[40.8,14925],[40.8,15018],[40.8,15098],[40.8,15180],[40.8,15267],[40.8,15348],[40.8,15431],[40.8,15515],[40.8,15591],[40.8,15680],[40.8,15765],[40.8,15846],[40.8,15935],[40.8,16021],[40.8,16109],[40.9,16203],[41.2,16310],[41.2,16421],[41.6,16522],[41.7,16606],[41.7,16680],[41.9,16766],[42.1,16865],[42.4,16954],[42.6,17033],[43.1,17125],[43.3,17220],[43.3,17306],[43.5,17381],[43.7,17457],[44.2,17541],[44.6,17627],[45,17712],[45.2,17795],[45.3,17874],[46.8,17967],[47.2,18042],[47.4,18126],[47.4,18207],[47.8,18291],[48.3,18374],[48.9,18461],[49.4,18551],[49.6,18632],[49.8,18713],[50,18796],[50.5,18874],[50.8,18962],[51,19047],[51.1,19126],[51.3,19211],[51.6,19290],[51.6,19378],[51.8,19458],[52,19541],[52.4,19632],[52.6,19711],[52.8,19791],[53,19873],[53.2,19957],[53.2,20040],[53.2,20124],[53.2,20207],[53.5,20290],[53.7,20374],[54.2,20457],[54.5,20541],[54.5,20624],[54.7,20707],[54.7,20790],[55,20874],[55.4,20956],[55.8,21040],[56.1,21123],[56.1,21211],[56.1,21290],[56.1,21373],[56.1,21460],[56.1,21540],[56.2,21628],[56.3,21710],[56.3,21792],[56.3,21873],[56.3,21958],[56.3,22040],[56.3,22127],[56.3,22206],[56.3,22292],[56.3,22373],[56.3,22458],[56.3,22539],[56.3,22624],[56.3,22708],[56.3,22791],[56.3,22878],[56.3,22958],[56.3,23039],[56.3,23123],[56.3,23206],[56.3,23294],[56.3,23374],[56.3,23456],[56.3,23539],[56.3,23624],[56.3,23706],[56.3,23793],[56.3,23876],[56.3,23958],[56.3,24041],[56.3,24127],[56.3,24206],[56.3,24292],[56.3,24376],[56.3,24456],[56.3,24539],[56.3,24623],[56.5,24711],[56.5,24792],[56.6,24872],[56.6,24956],[56.6,25040],[56.6,25125],[56.6,25213],[56.6,25291],[56.6,25374],[56.6,25456],[56.6,25539],[56.6,25625],[56.6,25706],[56.6,25790],[56.6,25876],[56.6,25956],[56.6,26039],[56.6,26125],[56.6,26209],[56.6,26290],[56.6,26380],[56.6,26459],[56.6,26542],[56.6,26628],[56.6,26708],[56.6,26789],[56.6,26873],[56.6,26956],[56.6,27039],[56.6,27122],[56.6,27205],[56.6,27296],[56.6,27372],[56.2,27464],[55.8,27540],[55.5,27624],[54.9,27714],[54.6,27790],[54.1,27913],[53.2,28010],[52.9,28090],[52.7,28172],[52.5,28255],[52,28339],[51.7,28425],[51.2,28522],[50.7,28607],[50.3,28688],[50.2,28772],[50.2,28856],[50.2,28953],[50.2,29022],[50.2,29116],[50.1,29198],[50.1,29277],[50.1,29370],[49.9,29447]]",1,0,780.8229,783.2091,49.89583291,1.1282,"[{""rating"":49.895832913012086,""responseTime"":1.1281999998093397}]",space,1.8499,,783.2095,All the time,100,783.2174,,,[],,0,2,2,2,1,audio/Narrative7Situation2.wav,audio/Narrative8Situation2.wav,audio/Narrative5Situation2.wav,audio/Narrative6Situation2.wav,3,3,3,3,,,,,,,,,,,,,,,,,,,,,,,,,,,,,,,,,,,,,,,
,,,,,,65e3e371f66e65c7f9720ec2,2024-05-13_13h51.41.981,group3.1-3.2-social-tom,2023.2.2,Win32,59.88023952,65c5074098b851296ff0b7ed,664252f6a2cd6a58eda0747e,,,,,,,,,,,,,,,,,,,,,,,,,,,,,783.2177,2,audio/Narrative5Situation3.wav,786.2243,,786.2245,800.1361,"[[49.2,1847],[49.5,1932],[49.5,2015],[49.5,2099],[49.5,2193],[49.4,2302],[49.2,2399],[49.2,2497],[49.2,2595],[49.2,2674],[49.2,2751],[49.2,2836],[49.2,2922],[49.2,3020],[49.2,3109],[49.2,3191],[49.2,3303],[49.3,3387],[49.5,3503],[49.5,3581],[49.5,3664],[49.5,3748],[49.5,3831],[49.5,3914],[49.5,3997],[49.5,4081],[49.5,4164],[50.3,4248],[51.5,4346],[52.1,4446],[52.3,4522],[52.6,4630],[52.6,4712],[52.6,4788],[52.6,4870],[52.6,4951],[52.8,5036],[52.8,5115],[52.8,5201],[52.8,5288],[52.8,5375],[52.8,5462],[52.8,5540],[52.8,5622],[52.8,5705],[52.8,5812],[52.8,5885],[52.8,5973],[52.8,6059],[52.8,6134],[52.8,6219],[52.8,6307],[52.8,6386],[52.8,6475],[52.8,6552],[52.8,6637],[53,6729],[53.7,6827],[54.1,6918],[54.2,7005],[55.2,7098],[56.1,7195],[56.5,7279],[56.6,7354],[56.6,7437],[56.6,7546],[56.6,7644],[56.6,7722],[56.4,7809],[56.4,7908],[56.4,7985],[56.4,8066],[56.4,8161],[56.4,8237],[56.4,8320],[56.4,8403],[56.4,8489],[56.4,8567],[56.4,8658],[56.4,8738],[56.4,8821],[56.4,8901],[56.5,8994],[56.7,9077],[56.7,9154],[56.7,9231],[56.8,9320],[57.2,9410],[57.3,9487],[57.4,9575],[57.4,9654],[57.4,9736],[57.4,9820],[57.4,9904],[57.4,9980],[57.4,10065],[57.4,10147],[57.4,10230],[57.4,10315],[57.4,10398],[57.4,10479],[57.4,10563],[57.4,10647],[57.4,10730],[57.4,10817],[57.4,10898],[57.4,10984],[57.4,11067],[57.4,11149],[57.4,11229],[57.4,11315],[57.4,11396],[57.4,11480],[57.4,11568],[57.4,11662],[57.4,11766],[57.4,11871],[57.4,11975],[57.4,12048],[57.4,12138],[57.4,12224],[57.4,12301],[57.4,12380],[57.4,12463],[57.4,12559],[57.4,12651],[57.4,12732],[58,12827],[58.4,12905],[59.9,13014],[60.9,13102],[61.5,13192],[61.7,13271],[61.8,13353],[62,13445],[62.2,13527],[62.2,13608],[62.2,13687],[62.2,13769],[62.2,13857]]",1,0,800.1361,802.1359,62.70832966,0.9059,"[{""rating"":62.708329659470465,""responseTime"":0.9059000000953574}]",space,1.4642,,802.136,Half the time,50,802.1442,,,[],,0,3,3,3,1,audio/Narrative7Situation3.wav,audio/Narrative8Situation3.wav,audio/Narrative5Situation3.wav,audio/Narrative6Situation3.wav,8,4,3,5,,,,,,,,,,,,,,,,,,,,,,,,,,,,,,,,,,,,,,,
,,,,,,65e3e371f66e65c7f9720ec2,2024-05-13_13h51.41.981,group3.1-3.2-social-tom,2023.2.2,Win32,59.88023952,65c5074098b851296ff0b7ed,664252f6a2cd6a58eda0747e,,,,,,,,,,,,,,,,,,,,,,,,,,,,,802.1458,2,audio/Narrative5Situation4.wav,803.1682,,803.1682,823.5724,"[[60,96],[60,181],[60,258],[60,346],[59.8,422],[59.6,508],[59.6,592],[59.6,676],[59.6,762],[59.6,841],[59.6,923],[59.6,1014],[59.6,1089],[59.6,1183],[59.6,1259],[59.6,1349],[59.6,1449],[59.6,1533],[59.6,1611],[59.6,1692],[59.6,1779],[59.6,1879],[59.6,1954],[59.6,2046],[59.6,2119],[59.6,2208],[59.6,2299],[59.6,2375],[59.6,2460],[59.6,2535],[59.6,2621],[59.6,2707],[59.6,2804],[59.6,2891],[59.6,2975],[59.6,3066],[59.6,3143],[59.6,3224],[59.2,3332],[59,3416],[58.8,3489],[58.8,3574],[58.7,3664],[58.7,3759],[58.5,3849],[58.3,3926],[57.1,4025],[56.9,4103],[56.4,4199],[55.9,4282],[54.6,4384],[53.9,4469],[53.6,4552],[53.4,4635],[52.8,4732],[52.4,4815],[51.9,4900],[51.7,4974],[51.5,5052],[51.3,5136],[51.2,5217],[51,5301],[51,5384],[50.9,5469],[50.7,5550],[50.4,5639],[50.2,5718],[49.6,5805],[49.6,5885],[49.6,5968],[49.4,6062],[49.4,6139],[49.2,6255],[49.1,6339],[49.1,6449],[48.8,6522],[48.7,6612],[48.4,6699],[48.3,6779],[48,6866],[48,6934],[47.9,7032],[47.8,7109],[47.6,7193],[47.2,7274],[47,7351],[47,7436],[47,7517],[48.8,7609],[52.3,7692],[55.4,7776],[56.8,7859],[58.4,7943],[59.7,8026],[61,8112],[62.7,8197],[63.1,8274],[63.4,8351],[63.6,8441],[63.9,8517],[64.4,8605],[64.6,8688],[64.6,8767],[64.8,8851],[65.1,8934],[65.6,9019],[65.7,9100],[65.9,9186],[65.9,9268],[65.9,9350],[65.9,9433],[65.9,9520],[65.9,9600],[65.9,9683],[65.9,9770],[65.9,9852],[65.9,9933],[65.9,10019],[65.9,10100],[66,10188],[66.7,10267],[66.7,10355],[66.7,10436],[66.7,10533],[67,10649],[67,10734],[67.6,10826],[67.9,10915],[68.1,11002],[68.3,11093],[68.6,11180],[68.8,11261],[69.1,11346],[69.3,11423],[69.8,11516],[69.8,11600],[69.8,11684],[69.8,11774],[69.8,11861],[69.8,11947],[69.8,12025],[69.8,12111],[69.8,12187],[69.8,12267],[69.8,12380],[69.8,12464],[69.8,12541],[69.8,12623],[69.7,12714],[69.7,12786],[69.4,12881],[69,12960],[68.5,13033],[68.2,13116],[67.8,13202],[67.4,13287],[67.3,13370],[66.9,13449],[66.8,13533],[66.8,13616],[66.6,13700],[66.4,13782],[66.4,13866],[66.4,13949],[66.4,14032],[66.3,14116],[65.9,14200],[65.3,14283],[64.7,14367],[64.4,14459],[64,14543],[63.7,14632],[63.5,14725],[63.5,14799],[63.5,14887],[63.4,14968],[63.4,15052],[63.3,15136],[63.3,15216],[63.3,15304],[63.3,15382],[63.3,15466],[63.3,15553],[63.3,15639],[63.3,15715],[63.3,15799],[63.5,15886],[63.9,15971],[64.1,16052],[64.9,16139],[66.4,16221],[66.9,16305],[67.2,16385],[67.7,16472],[68.2,16558],[68.5,16646],[69.3,16753],[69.8,16855],[70.2,16938],[70.3,17022],[70.8,17106],[70.9,17205],[70.9,17294],[71.2,17379],[71.3,17464],[71.4,17545],[71.4,17627],[71.8,17726],[71.9,17806],[71.9,17888],[72.1,17980],[72.3,18090],[72.6,18177],[72.8,18257],[73.4,18381],[73.5,18458],[73.8,18547],[73.8,18630],[73.8,18714],[73.9,18797],[74,18880],[74.2,18972],[74.3,19072],[74.3,19161],[74.3,19256],[74.3,19332],[74.3,19422],[74.3,19505],[74.3,19586],[74.3,19680],[74.3,19757],[74.3,19845],[74.3,19926],[74.3,20029],[74.3,20102],[74.3,20186],[74.3,20265],[74.3,20355]]",1,0,823.5738,827.0145,76.14582795,1.2307,"[{""rating"":76.14582795297831,""responseTime"":1.2306999998093033}]",space,2.907,,827.0146,Half the time,50,827.0158,,,[],,0,4,4,4,1,audio/Narrative7Situation4.wav,audio/Narrative8Situation4.wav,audio/Narrative5Situation4.wav,audio/Narrative6Situation4.wav,3,3,1,2,,,,,,,,,,,,,,,,,,,,,,,,,,,,,,,,,,,,,,,
,,,,,,65e3e371f66e65c7f9720ec2,2024-05-13_13h51.41.981,group3.1-3.2-social-tom,2023.2.2,Win32,59.88023952,65c5074098b851296ff0b7ed,664252f6a2cd6a58eda0747e,,,,,,,,,,,,,,,,,,,,,,,,,,,,,827.0172,2,audio/Narrative5Situation5.wav,832.0397,,832.0401,847.4663,"[[74.3,158],[74.2,248],[74.2,329],[74.1,410],[74.1,493],[74.1,575],[74.1,659],[74.1,743],[74.1,826],[74.1,909],[73.9,992],[73.8,1074],[73.8,1158],[73.8,1242],[73.8,1325],[73.7,1408],[73.7,1491],[73.7,1576],[73.7,1658],[73.7,1741],[73.6,1825],[73.6,1908],[73.6,1991],[73.4,2080],[73.4,2160],[73.3,2243],[73.3,2324],[73.3,2408],[72.8,2497],[72.6,2579],[72.5,2657],[72.2,2746],[72.1,2824],[72.1,2907],[72.1,2991],[72,3074],[72,3157],[72,3241],[72,3325],[72,3408],[72,3493],[72,3574],[72,3657],[72,3741],[71.8,3824],[71.8,3907],[71.8,3993],[71.8,4074],[71.8,4158],[72.5,4244],[74,4332],[76.2,4414],[78.8,4502],[80.5,4581],[81.4,4663],[82.3,4746],[82.6,4824],[82.7,4911],[82.7,4996],[82.7,5076],[82.7,5157],[82.7,5243],[82.7,5326],[82.7,5409],[82.7,5490],[82.7,5574],[82.7,5659],[82.7,5740],[82.7,5824],[82.7,5910],[82.7,5990],[82.7,6076],[82.7,6164],[82.7,6240],[82.7,6327],[82.7,6411],[82.8,6492],[82.8,6576],[82.8,6657],[82.8,6743],[82.8,6824],[82.8,6907],[82.8,6990],[82.8,7073],[82.8,7161],[83.2,7251],[83.3,7332],[83.4,7412],[83.9,7497],[84.8,7576],[86.8,7664],[88,7743],[89,7829],[89.4,7910],[89.4,7990],[89.6,8073],[89.6,8157],[89.6,8243],[89.6,8323],[89.6,8407],[89.6,8492],[89.6,8579],[89.6,8661],[89.6,8751],[89.6,8851],[89.6,8930],[89.6,9013],[89.6,9091],[89.6,9182],[89.6,9264],[89.6,9371],[89.6,9453],[89.6,9548],[89.6,9631],[89.6,9731],[89.6,9835],[89.8,9921],[89.8,10005],[89.8,10088],[89.8,10187],[89.8,10266],[89.8,10348],[89.8,10434],[89.8,10537],[89.8,10613],[89.8,10701],[89.8,10786],[89.8,10882],[89.8,10961],[89.8,11051],[89.8,11130],[89.8,11211],[89.8,11292],[89.8,11380],[89.8,11470],[89.8,11544],[89.8,11629],[89.8,11715],[89.6,11805],[89.4,11888],[89.2,11972],[89.2,12063],[89,12150],[88.8,12238],[88.8,12313],[88.8,12404],[88.8,12484],[88.8,12560],[88.8,12653],[88.8,12735],[88.8,12820],[88.8,12900],[88.8,12979],[88.8,13066],[88.8,13140],[88.8,13238],[88.8,13312],[88.8,13401],[88.8,13496],[88.8,13587],[88.8,13665],[88.8,13743],[88.8,13834],[88.8,13919],[88.7,14001],[88.7,14101],[88.5,14187],[88.5,14270],[88.5,14351],[88.5,14438],[88.5,14520],[88.5,14601],[88.5,14688],[88.5,14771],[88.5,14851],[88.5,14954],[88.5,15029],[88.5,15120],[88.5,15196],[88.5,15283],[88.5,15370]]",1,0,847.4667,849.6118,88.22916206,1.127,"[{""rating"":88.22916205588828,""responseTime"":1.1269999999999527}]",space,1.6002,,849.612,Not at all,0,849.6221,,,[],,0,5,5,5,1,audio/Narrative7Situation5.wav,audio/Narrative8Situation5.wav,audio/Narrative5Situation5.wav,audio/Narrative6Situation5.wav,5,2,5,2,,,,,,,,,,,,,,,,,,,,,,,,,,,,,,,,,,,,,,,
,,,,,,65e3e371f66e65c7f9720ec2,2024-05-13_13h51.41.981,group3.1-3.2-social-tom,2023.2.2,Win32,59.88023952,65c5074098b851296ff0b7ed,664252f6a2cd6a58eda0747e,,,,,,,,,,,,,,,,,,,,,,,,,,,,,849.6225,2,audio/Narrative5Situation6.wav,852.6354,,852.6357,858.326,"[[86.4,106],[86.4,192],[86.4,271],[86.2,377],[86.2,469],[86.1,560],[86.1,670],[85.9,764],[85.9,859],[85.9,954],[85.8,1053],[85.8,1159],[85.8,1248],[85.8,1337],[85.8,1420],[85.8,1514],[85.8,1603],[85.8,1693],[85.8,1786],[85.8,1880],[85.8,1963],[85.8,2057],[85.8,2140],[85.8,2253],[85.8,2343],[85.8,2425],[85.8,2511],[85.8,2599],[85.8,2681],[85.8,2762],[85.7,2848],[85.2,2935],[84.8,3024],[84.8,3118],[84.6,3224],[84.3,3327],[83.7,3428],[83.1,3512],[82.4,3598],[81.7,3684],[81.4,3796],[80.9,3900],[80.3,3996],[79.9,4090],[79.5,4192],[79.4,4275],[79.1,4393],[79,4485],[79,4573],[79,4655],[79,4736],[79,4820],[78.8,4907],[78.8,4990],[78.5,5073],[78.3,5173],[77.5,5289],[77.2,5395],[77.2,5475],[77.2,5559],[77.2,5653]]",1,0,858.326,860.8421,75.10416454,1.2334,"[{""rating"":75.10416453590516,""responseTime"":1.2334000000953438}]",space,1.9781,,860.8421,All the time,100,860.8489,,,[],,0,6,6,6,1,audio/Narrative7Situation6.wav,audio/Narrative8Situation6.wav,audio/Narrative5Situation6.wav,audio/Narrative6Situation6.wav,3,2,3,2,,,,,,,,,,,,,,,,,,,,,,,,,,,,,,,,,,,,,,,
,,,,,,65e3e371f66e65c7f9720ec2,2024-05-13_13h51.41.981,group3.1-3.2-social-tom,2023.2.2,Win32,59.88023952,65c5074098b851296ff0b7ed,664252f6a2cd6a58eda0747e,,,,,,,,,,,,,,,,,,,,,,,,,,,,,860.8498,2,audio/Narrative5Situation7.wav,864.8598,,864.86,885.9065,"[[74.6,860],[74.5,947],[74.5,1030],[74.3,1100],[74.2,1192],[74.1,1278],[74.1,1350],[74.1,1447],[74.1,1527],[74.1,1610],[74.1,1690],[73.8,1780],[73.6,1867],[73.1,1965],[72.6,2048],[72.5,2131],[72.3,2213],[72.2,2320],[71.8,2438],[71.2,2535],[71.1,2615],[71,2699],[71,2782],[70,2866],[69.4,2964],[69,3044],[68.7,3125],[68.4,3204],[67.8,3287],[67.4,3373],[66.8,3455],[66.6,3533],[66.4,3615],[66.4,3698],[66.3,3790],[66,3870],[65.6,3954],[65.3,4035],[64.9,4120],[64.5,4198],[64.2,4283],[64,4366],[63.7,4449],[63.3,4544],[62.9,4631],[62.6,4730],[62.4,4806],[62.1,4897],[61.8,4983],[61.6,5057],[61.2,5140],[60.9,5215],[60.5,5300],[59.6,5388],[58.8,5467],[58.6,5556],[58,5649],[57.7,5742],[57.5,5826],[56.4,5931],[55.9,6016],[54.7,6113],[54,6204],[53.6,6296],[52.8,6413],[52.7,6496],[52.4,6574],[52.2,6686],[52.2,6785],[52.2,6875],[52,6968],[51.7,7069],[51.3,7158],[51.2,7239],[51,7327],[50.8,7409],[50.7,7493],[50.4,7573],[50.2,7662],[50.2,7746],[50.2,7829],[50.1,7908],[50.1,7992],[50.1,8065],[50.1,8153],[50.1,8246],[49.1,8334],[48.8,8414],[48.3,8499],[47.6,8596],[47.1,8676],[47,8755],[46.5,8841],[45.8,8922],[44.9,9004],[43.9,9091],[43.9,9165],[43.6,9252],[43.5,9331],[43.4,9414],[43.1,9502],[42.8,9582],[42.3,9681],[41.9,9764],[41.8,9854],[41.5,9940],[41.2,10030],[41,10111],[40.3,10194],[39.7,10279],[39.5,10355],[39.4,10439],[39.2,10522],[39.2,10603],[39,10689],[38.9,10777],[38.7,10862],[38.7,10938],[38.7,11021],[38.7,11104],[37.8,11195],[37.8,11268],[37.7,11362],[37.6,11445],[37.6,11514],[37.6,11604],[37.6,11691],[37.6,11773],[37.6,11853],[37.6,11931],[37.3,12022],[37.2,12111],[36.9,12195],[36.8,12271],[36.6,12358],[36.3,12445],[36.3,12520],[36.3,12612],[36.3,12693],[36.2,12796],[36.1,12895],[35.9,12990],[35.9,13078],[35.8,13153],[35.8,13231],[35.5,13323],[35.3,13405],[35.2,13493],[35,13603],[34.7,13691],[34.6,13772],[34.5,13854],[34.5,13933],[34.4,14023],[34.4,14103],[34.4,14187],[34.3,14276],[34.3,14376],[34.3,14458],[34.3,14531],[34.3,14628],[34.3,14703],[34.2,14787],[34.2,14878],[34.2,14978],[34.2,15060],[34.2,15137],[34.2,15225],[34.2,15311],[34.2,15385],[34.2,15469],[34,15562],[34,15636],[33.7,15728],[33.6,15812],[33.5,15907],[33.5,15991],[33.1,16075],[32.9,16160],[32.9,16262],[32.7,16362],[32.7,16459],[32.6,16536],[32.5,16627],[32.4,16710],[32.2,16792],[32.1,16871],[32,16961],[31.9,17062],[31.9,17147],[31.7,17246],[31.7,17330],[31.7,17420],[31.7,17504],[31.7,17589],[31.7,17685],[31.7,17768],[31.7,17853],[31.7,17944],[31.7,18024],[31.7,18102],[31.7,18194],[31.7,18269],[31.7,18347],[31.7,18441],[31.7,18521],[31.7,18602],[31.6,18691],[31.6,18770],[31.6,18855],[31.6,18952],[31.6,19030],[31.6,19116],[31.6,19203],[31.6,19286],[31.6,19366],[31.6,19453],[31.6,19539],[31.6,19624],[31.6,19710],[31.7,19784],[31.7,19871],[32.3,19968],[32.8,20046],[36.5,20131],[40.9,20216],[42.5,20300],[42.6,20387],[42.7,20471],[42.7,20552],[42.9,20644],[42.9,20723],[42.9,20810],[42.1,20894],[41.5,20980]]",1,0,885.907,888.0201,40.312505,0.8943,"[{""rating"":40.312504998300035,""responseTime"":0.8942999997138941}]",space,1.5391,,888.0202,All the time,100,888.0213,,,[],,0,7,7,7,1,audio/Narrative7Situation7.wav,audio/Narrative8Situation7.wav,audio/Narrative5Situation7.wav,audio/Narrative6Situation7.wav,5,3,4,5,,,,,,,,,,,,,,,,,,,,,,,,,,,,,,,,,,,,,,,
,,,,,,65e3e371f66e65c7f9720ec2,2024-05-13_13h51.41.981,group3.1-3.2-social-tom,2023.2.2,Win32,59.88023952,65c5074098b851296ff0b7ed,664252f6a2cd6a58eda0747e,,,,,,,,,,,,,,,,,,,,,,,,,,,,,888.0215,2,audio/Narrative5Situation8.wav,891.0225,,891.0228,899.8443,"[[42.4,787],[43.7,891],[44.5,981],[45.2,1073],[45.3,1165],[45.3,1247],[45.3,1331],[45.3,1431],[45.3,1539],[45.3,1634],[45.3,1726],[45.3,1810],[45.3,1887],[45.3,1971],[45.3,2050],[45.3,2137],[45.3,2224],[45.3,2301],[45.3,2391],[45.3,2487],[45.3,2566],[45.3,2654],[45.3,2734],[45.3,2825],[45.3,2913],[45.3,2987],[45.3,3072],[45.3,3152],[45.3,3239],[45.1,3330],[44.9,3411],[44.7,3490],[44.6,3576],[44.6,3651],[44.6,3738],[44.6,3826],[44.6,3902],[44.6,3981],[44.6,4076],[44.6,4149],[44.6,4243],[45.2,4329],[46.7,4413],[46.7,4493],[46.7,4575],[47.1,4659],[50.7,4746],[52.6,4836],[53,4927],[53.2,5013],[54.7,5136],[55.8,5219],[55.8,5297],[55.8,5381],[55.8,5464],[55.8,5548],[55.8,5631],[55.8,5714],[55.8,5798],[55.8,5891],[55.8,5976],[56,6059],[56.2,6142],[56.2,6229],[57.5,6312],[61.2,6400],[64.5,6504],[64.6,6581],[65.1,6665],[68.2,6763],[72.3,6854],[72.8,6931],[72.8,7015],[72.8,7112],[72.8,7185],[72.8,7271],[72.8,7359],[72.8,7437],[72.8,7515],[72.8,7613],[72.8,7692],[72.8,7795],[72.8,7873],[72.8,7969],[72.8,8058],[72.8,8181],[72.8,8266],[72.8,8365],[72.8,8464],[72.8,8565],[72.8,8667],[72.8,8758]]",1,0,899.8452,901.5175,72.81249802,0.618,"[{""rating"":72.81249802473307,""responseTime"":0.6180000000000518}]",space,1.1248,,901.5177,Half the time,50,901.5218,,,[],,0,8,8,8,1,audio/Narrative7Situation8.wav,audio/Narrative8Situation8.wav,audio/Narrative5Situation8.wav,audio/Narrative6Situation8.wav,2,3,3,5,,,,,,,,,,,,,,,,,,,,,,,,,,,,,,,,,,,,,,,
,,,,,,65e3e371f66e65c7f9720ec2,2024-05-13_13h51.41.981,group3.1-3.2-social-tom,2023.2.2,Win32,59.88023952,65c5074098b851296ff0b7ed,664252f6a2cd6a58eda0747e,,,,,,,,,,,,,,,,,,,,,,,,,,,,,901.5232,2,audio/Narrative5Situation9.wav,904.5378,,904.5382,944.0839,"[[70,88],[69.9,197],[69.9,287],[69.9,379],[69.9,448],[69.9,537],[69.7,629],[69.6,730],[69.6,814],[69.5,896],[68.9,998],[68.6,1086],[68.4,1175],[68.4,1253],[68.2,1346],[68.2,1421],[68.2,1512],[68.2,1598],[68.2,1687],[68.1,1771],[67.9,1860],[67.9,1938],[67.9,2019],[67.9,2097],[67.9,2187],[67.9,2278],[67.9,2364],[67.9,2447],[67.9,2530],[67.9,2614],[67.9,2697],[67.9,2786],[67.9,2873],[67.9,2962],[67.9,3045],[67.9,3137],[67.9,3224],[67.9,3297],[67.9,3390],[67.9,3471],[67.9,3560],[67.9,3633],[67.9,3723],[67.9,3801],[67.9,3890],[67.9,3966],[67.9,4052],[67.9,4130],[67.9,4214],[67.9,4312],[67.9,4388],[67.9,4475],[67.9,4554],[67.9,4643],[67,4731],[66.4,4819],[64.4,4906],[61.2,4996],[60.3,5086],[59.2,5167],[56.9,5264],[55,5361],[53,5450],[51,5531],[49.7,5631],[49.3,5714],[49.1,5797],[48.8,5880],[48.7,5963],[48.6,6047],[48.6,6142],[48.4,6228],[48.4,6310],[48.4,6405],[48.3,6493],[48.2,6572],[48,6659],[47.7,6745],[47.5,6830],[47.3,6904],[47.1,6987],[46.7,7064],[46.2,7147],[46,7230],[45.6,7313],[45.5,7396],[45.4,7479],[45.2,7563],[45.1,7649],[45.1,7729],[44.9,7813],[44.9,7896],[44.9,7979],[44.7,8063],[44.6,8146],[44.4,8229],[43.9,8319],[43.4,8403],[42.6,8488],[42.1,8575],[41.9,8696],[41.5,8802],[41.2,8899],[40.9,8994],[40.8,9071],[40.8,9157],[40.8,9235],[40.8,9319],[40.8,9408],[40.8,9488],[40.8,9577],[40.8,9654],[40.8,9735],[40.8,9825],[40.8,9923],[40.8,10005],[40.8,10092],[40.8,10174],[40.8,10252],[40.8,10340],[40.8,10425],[40.8,10513],[40.8,10603],[40.8,10694],[40.8,10766],[40.8,10860],[40.8,10935],[40.8,11019],[40.8,11102],[40.8,11185],[40.8,11271],[40.8,11369],[40.8,11461],[40.8,11533],[40.8,11613],[40.8,11699],[40.8,11792],[40.8,11869],[40.8,11954],[40.8,12041],[40.8,12113],[40.8,12210],[40.8,12287],[40.8,12377],[40.8,12460],[40.8,12560],[40.8,12661],[40.8,12763],[40.8,12852],[40.8,12935],[40.8,13019],[40.8,13095],[40.8,13185],[40.8,13271],[40.8,13379],[40.8,13479],[40.8,13574],[40.8,13677],[40.8,13772],[40.8,13860],[40.8,13943],[40.8,14037],[40.8,14119],[40.8,14208],[40.8,14289],[40.8,14373],[40.8,14459],[40.8,14534],[40.8,14616],[40.8,14701],[40.8,14793],[40.9,14878],[41,14977],[41,15060],[41.1,15152],[41.2,15243],[41.2,15321],[41.2,15402],[41.2,15483],[41.2,15576],[41.4,15661],[41.5,15753],[41.7,15856],[42,15962],[42.2,16052],[42.2,16143],[42.2,16226],[42.8,16327],[45.4,16417],[48.2,16514],[50.7,16600],[53.2,16694],[55.5,16783],[56.1,16861],[61.4,16978],[63.4,17063],[64.5,17152],[65.1,17241],[65.7,17323],[65.7,17406],[65.7,17485],[65.7,17568],[65.7,17660],[65.7,17735],[65.7,17817],[65.7,17904],[65.7,17991],[65.7,18085],[66.1,18174],[66.4,18249],[67,18342],[67.2,18418],[67.2,18501],[67.2,18588],[67.2,18665],[67.2,18750],[67.6,18843],[68.8,18936],[71.4,19035],[74.7,19131],[76.6,19221],[76.9,19312],[76.9,19405],[76.9,19491],[77,19575],[77,19675],[77,19759],[77.1,19843],[77.1,19917],[77.1,20007],[77.1,20083],[77.1,20173],[77.1,20249],[77.1,20337],[77.3,20425],[77.3,20502],[77.5,20593],[77.6,20666],[77.9,20758],[78.1,20832],[78.2,20925],[78.2,20994],[78.2,21087],[78.2,21184],[78.2,21273],[78.7,21359],[78.9,21459],[79,21542],[79.1,21636],[79.1,21722],[79.1,21801],[79.1,21892],[79.1,21968],[79.1,22047],[79.1,22139],[79.2,22225],[79.2,22305],[79.4,22392],[79.7,22479],[79.7,22568],[79.7,22673],[79.7,22759],[79.7,22842],[79.7,22922],[79.7,23009],[79.9,23093],[80.1,23176],[80.2,23259],[80.7,23359],[81.1,23460],[81.6,23560],[82,23648],[82.5,23728],[83.2,23835],[83.6,23925],[84.3,24012],[84.4,24107],[84.8,24209],[84.9,24307],[84.9,24384],[85.1,24478],[85.1,24560],[85.1,24651],[85.1,24736],[85.1,24810],[85.1,24899],[85.1,24977],[85.1,25071],[85.1,25155],[85.2,25233],[85.3,25322],[85.5,25404],[85.5,25501],[85.8,25586],[85.9,25666],[86,25758],[86,25831],[86,25921],[86,26001],[86,26092],[86,26168],[86,26244],[86,26333],[86,26437],[86,26515],[86,26601],[86,26708],[86,26785],[86,26864],[86,26949],[86,27027],[86,27112],[86,27193],[86,27283],[86,27366],[86,27473],[86,27554],[86,27637],[86,27722],[86,27808],[86,27882],[86,27968],[86,28066],[86,28150],[86,28231],[86,28317],[86,28400],[86,28488],[86,28565],[86,28657],[86,28740],[86,28813],[86,28907],[86,28990],[86,29065],[86,29154],[86,29236],[86,29339],[86,29421],[86,29522],[86,29631],[86,29725],[86,29824],[86,29903],[86,29976],[86,30075],[86,30175],[86,30275],[86,30359],[86,30448],[86,30538],[86,30636],[86,30716],[86,30806],[86,30884],[86,30962],[86,31054],[86,31133],[86,31211],[86,31298],[86,31387],[86,31470],[86,31553],[86,31637],[86,31721],[86,31804],[86,31880],[86,31971],[86,32066],[86,32150],[86,32236],[86,32315],[86,32395],[86,32482],[86,32559],[86,32648],[85.2,32743],[85,32825],[84.5,32911],[84.2,32993],[84.1,33075],[84,33169],[84,33257],[84,33352],[84,33432],[84,33513],[84,33601],[84,33679],[84,33768],[84,33841],[84,33933],[83.8,34024],[83.8,34097],[83.7,34189],[83.7,34276],[83.7,34365],[83.7,34453],[83.7,34556],[83.7,34643],[83.7,34728],[83.7,34815],[83.7,34898],[83.7,34977],[83.7,35064],[83.7,35153],[83.7,35231],[83.9,35320],[84.3,35407],[84.4,35475],[84.8,35558],[85.3,35648],[85.9,35729],[86,35810],[86.5,35897],[86.5,35977],[86.5,36059],[86.5,36141],[86.5,36227],[86.5,36310],[86.5,36392],[86.5,36474],[86.5,36558],[86.5,36646],[86.5,36726],[86.5,36808],[86.5,36893],[86.5,36974],[86.5,37060],[86.5,37141],[86.5,37228],[86.5,37311],[86.5,37396],[86.5,37475],[86.5,37557],[86.5,37646],[86.5,37727],[86.5,37808],[86.5,37896],[86.5,37976],[86.5,38063],[86.5,38146],[86.5,38226],[86.5,38314],[86.5,38392],[86.5,38485],[86.5,38592],[86.5,38686],[86.5,38787],[86.5,38879],[86.5,38972],[86.5,39096],[86.5,39186],[86.5,39293],[86.5,39392],[86.5,39513]]",1,0,944.0853,946.6856,87.0833288,1.5209,"[{""rating"":87.08332880030225,""responseTime"":1.5209000000953665}]",space,2.0564,,946.6858,Half the time,50,955.4424,50.10416385,7.5502,"[{""rating"":50.104163848023916,""responseTime"":7.5501999998092515}]",space,0,9,9,9,1,audio/Narrative7Situation9.wav,audio/Narrative8Situation9.wav,audio/Narrative5Situation9.wav,audio/Narrative6Situation9.wav,2,3,3,4,,,8.2069,,,,,,,,,,,,,,,,,,,,,,,,,,,,,,,,,,,,
,,,,,,65e3e371f66e65c7f9720ec2,2024-05-13_13h51.41.981,group3.1-3.2-social-tom,2023.2.2,Win32,59.88023952,65c5074098b851296ff0b7ed,664252f6a2cd6a58eda0747e,,,,,,,,,,,,,,,,,,,,,,,,,,,,,955.4427,2,audio/Narrative6Situation1.wav,957.4561,,957.4563,984.0694,"[[50.4,2973],[50.4,3065],[50.5,3143],[50.5,3224],[50.7,3314],[50.9,3401],[51,3485],[51,3584],[51,3663],[51,3744],[51,3832],[51,3918],[51.4,4017],[51.5,4099],[51.9,4186],[51.9,4278],[51.9,4385],[51.9,4468],[51.9,4575],[51.9,4660],[52,4752],[52,4824],[52,4912],[51.9,4997],[50.7,5091],[48.9,5185],[47.2,5285],[46.8,5370],[45.4,5474],[45,5565],[44.4,5653],[44,5740],[44,5827],[44,5911],[44,6001],[44,6076],[44,6167],[44,6242],[44,6320],[44,6403],[44,6486],[43.9,6575],[43.9,6664],[43.6,6751],[43.4,6833],[43,6916],[42.5,7001],[42.3,7097],[41.9,7189],[41.3,7285],[40.8,7375],[40.3,7468],[40,7551],[39.8,7670],[39.7,7756],[39.7,7852],[39.7,7947],[39.7,8050],[39.4,8134],[39.2,8218],[38.7,8298],[38.3,8384],[38.1,8454],[38.1,8542],[38.1,8619],[38.1,8702],[38.1,8785],[38.1,8870],[38.1,8952],[38.1,9041],[38.1,9119],[38.1,9204],[38.1,9286],[38.1,9368],[38.1,9456],[38.1,9536],[38.1,9618],[38.1,9702],[38.1,9785],[38.1,9871],[38.1,9952],[38.1,10035],[38.1,10122],[38.1,10205],[38.1,10286],[38.1,10371],[38.1,10455],[38.1,10535],[38.1,10618],[38.1,10702],[38.1,10787],[38.1,10870],[38.1,10958],[38.1,11036],[38.1,11118],[38.1,11204],[38.1,11287],[38.1,11368],[38.1,11453],[38.1,11535],[38.1,11620],[38.1,11702],[38.1,11785],[38.1,11869],[38.1,11955],[38.1,12043],[38.1,12120],[38.1,12203],[38.1,12284],[38.1,12375],[38.1,12452],[38.1,12537],[38.1,12618],[38.1,12701],[38.1,12784],[38.1,12870],[38.1,12951],[38.1,13037],[38.1,13118],[38.1,13201],[38.1,13285],[38.1,13368],[38.1,13452],[38.1,13534],[38.1,13618],[38.1,13705],[38.1,13785],[38.1,13868],[38.1,13951],[38.1,14034],[38.1,14123],[38.1,14203],[38.1,14290],[38.1,14370],[38.1,14451],[38.1,14535],[38.1,14618],[38.1,14701],[38.1,14784],[38.1,14867],[38.1,14951],[38.1,15034],[38.1,15118],[38.1,15201],[38.1,15287],[38.1,15373],[38.1,15453],[38.1,15537],[38.1,15617],[38.1,15708],[38.1,15785],[38.1,15874],[38.1,15954],[38.1,16044],[38.1,16128],[39.8,16233],[40.9,16320],[42,16401],[43.5,16502],[44.6,16585],[45.3,16667],[45.6,16751],[45.8,16834],[45.9,16929],[46.2,17016],[46.4,17099],[46.9,17183],[48.7,17272],[49.5,17350],[50,17434],[50.5,17517],[51.6,17602],[52.4,17684],[52.7,17779],[52.8,17864],[52.9,17947],[53,18044],[53.6,18156],[53.7,18235],[54,18348],[54.4,18429],[54.9,18549],[55,18628],[55.1,18715],[55.1,18797],[55.1,18881],[55.1,18958],[55.1,19049],[55.2,19144],[55.5,19231],[55.5,19315],[55.5,19390],[55.5,19472],[55.5,19555],[55.5,19634],[55.5,19722],[55.5,19811],[55.5,19906],[55.5,19987],[55.7,20074],[55.8,20155],[56.1,20248],[56.8,20339],[57.6,20440],[57.8,20538],[58.2,20639],[58.3,20734],[58.4,20843],[58.4,20947],[58.4,21043],[58.4,21124],[58.4,21206],[58.6,21298],[58.9,21394],[59.2,21476],[60.2,21565],[61.4,21655],[62.2,21736],[62.5,21823],[64.5,21914],[65.4,21999],[66.2,22083],[67,22167],[67.2,22258],[67.2,22337],[67.4,22422],[67.5,22512],[67.7,22592],[67.7,22675],[67.9,22779],[67.9,22866],[67.9,22950],[68.1,23049],[68.1,23142],[68.2,23228],[68.3,23307],[68.3,23398],[68.7,23477],[69,23557],[69.1,23648],[69.2,23742],[69.3,23823],[69.3,23928],[69.5,24015],[69.7,24114],[69.8,24191],[70.1,24281],[70.3,24364],[70.3,24440],[70.3,24523],[70.3,24602],[70.7,24693],[70.9,24781],[71.1,24861],[71.4,24964],[72.1,25050],[72.4,25133],[72.4,25230],[72.4,25305],[72.6,25396],[72.6,25471],[72.9,25560],[72.9,25656],[72.9,25744],[72.9,25823],[72.9,25906],[72.9,25994],[72.9,26077],[72.9,26154],[72.9,26246],[72.9,26330],[72.9,26411],[72.9,26494],[72.9,26576]]",1,0,984.0702,985.5742,73.02082896,0.5687,"[{""rating"":73.0208289597449,""responseTime"":0.5686999998092688}]",space,0.9507,,985.5746,Half the time,50,985.5815,,,[],,0,10,10,10,1,audio/Narrative8Situation1.wav,audio/Narrative7Situation1.wav,audio/Narrative6Situation1.wav,audio/Narrative5Situation1.wav,5,2,2,5,,,,,,,,,,,,,,,,,,,,,,,,,,,,,,,,,,,,,,,
,,,,,,65e3e371f66e65c7f9720ec2,2024-05-13_13h51.41.981,group3.1-3.2-social-tom,2023.2.2,Win32,59.88023952,65c5074098b851296ff0b7ed,664252f6a2cd6a58eda0747e,,,,,,,,,,,,,,,,,,,,,,,,,,,,,985.5818,2,audio/Narrative6Situation2.wav,988.6027,,988.6027,1017.1173,"[[74.5,3967],[72.8,4056],[72.2,4134],[71.5,4221],[71.5,4301],[71.4,4385],[71.4,4468],[71.4,4551],[71.4,4634],[71.4,4718],[71.4,4801],[71.4,4896],[71.4,4975],[71.3,5068],[71.1,5152],[71,5235],[70.6,5333],[70.6,5408],[70.4,5490],[70,5583],[69.9,5663],[69.6,5748],[69.4,5830],[69.1,5911],[69.1,5988],[69.1,6067],[69.1,6158],[69.1,6249],[69.1,6326],[69.1,6408],[69.1,6511],[69,6614],[68.2,6701],[67.5,6788],[66.9,6882],[66.6,6965],[66.3,7049],[65.9,7124],[65.8,7213],[65.8,7288],[65.3,7383],[65.3,7458],[65.3,7549],[65.3,7629],[65.2,7723],[65.2,7816],[64.9,7927],[64.8,8011],[64.7,8089],[64.5,8178],[64.2,8268],[64,8351],[63.7,8434],[63.7,8517],[63.7,8600],[63.5,8684],[63.4,8776],[63.4,8857],[63.3,8946],[63.2,9023],[62.9,9113],[62.8,9192],[62.6,9280],[62.5,9362],[62.5,9439],[62.5,9524],[62.4,9608],[62.4,9690],[62.3,9781],[62.1,9862],[62.1,9940],[61.9,10025],[61.7,10110],[61.6,10192],[61.3,10278],[61.1,10350],[60.7,10438],[60.3,10523],[60.1,10600],[60,10683],[59.7,10771],[59.5,10852],[59.3,10935],[59.1,11017],[59,11100],[58.7,11183],[58.5,11268],[58.5,11352],[58.5,11433],[57.9,11521],[57.7,11602],[57.4,11693],[57.2,11771],[56.9,11859],[56.6,11933],[56.4,12016],[56.2,12099],[56.1,12183],[55.9,12266],[55.7,12351],[55.4,12438],[55.1,12524],[54.8,12605],[54.6,12685],[54.4,12766],[54.3,12849],[54,12933],[53.8,13019],[53.4,13102],[53,13183],[52.8,13267],[52.3,13354],[52,13437],[51.7,13521],[51.5,13606],[51.2,13691],[50.8,13772],[50.7,13854],[50.1,13937],[49.9,14021],[49.6,14105],[49.2,14185],[48.7,14272],[48.6,14353],[48.4,14433],[48.2,14516],[48,14599],[48,14685],[47.8,14769],[47.5,14850],[47.3,14936],[47,15030],[47,15114],[46.7,15215],[46.5,15312],[46.5,15390],[46.2,15481],[46.2,15562],[46.1,15647],[46,15727],[46,15814],[46,15890],[46,15976],[46,16053],[46,16144],[46,16248],[45.6,16329],[45.4,16414],[45.1,16497],[44.9,16581],[44.6,16659],[44.2,16737],[44,16820],[44,16900],[44.2,16991],[45.9,17072],[47.4,17158],[47.4,17235],[47.6,17321],[47.7,17400],[47.9,17482],[48.4,17566],[49,17652],[49.5,17737],[49.7,17824],[50,17902],[50,17984],[50,18066],[50,18150],[50,18238],[50,18322],[50,18403],[50,18488],[50,18570],[50,18651],[50,18732],[50,18818],[50,18900],[50,18982],[50,19065],[50,19151],[50,19233],[50,19316],[50,19399],[50,19485],[50,19565],[49.8,19650],[49.8,19734],[49.1,19817],[48.9,19898],[48.9,19981],[48.8,20065],[48.7,20154],[48.6,20235],[48.3,20321],[47.8,20404],[47.6,20487],[47.1,20565],[46.8,20649],[46.5,20740],[46.3,20818],[46.2,20898],[46.1,20981],[46,21068],[46,21149],[45.4,21240],[44.9,21324],[44.6,21399],[44.4,21481],[43.9,21572],[43.5,21655],[42.9,21738],[42.5,21820],[42.1,21908],[41.9,21987],[41.8,22070],[41.5,22150],[41.3,22233],[41.1,22315],[41,22403],[40.8,22481],[40.2,22567],[39.8,22651],[39.7,22734],[39.3,22819],[39.3,22898],[39.3,22982],[39.2,23064],[39.2,23150],[39.2,23235],[39,23319],[39,23398],[38.9,23481],[38.8,23564],[38.8,23649],[38.8,23733],[38.8,23818],[38.8,23903],[38.7,23984],[38.7,24064],[38.5,24149],[38.3,24232],[38.1,24319],[37.7,24401],[37.6,24484],[37.4,24569],[37.4,24649],[37.3,24731],[37.3,24814],[37.3,24900],[37.3,24981],[37.3,25069],[37.3,25147],[37.3,25231],[37.3,25316],[37.3,25399],[37.3,25480],[37.3,25564],[37.3,25648],[37.3,25733],[37.3,25818],[37.3,25899],[37.3,25980],[37.3,26065],[37.3,26147],[37.1,26237],[37.1,26316],[37.1,26397],[36.9,26482],[36.8,26567],[36.5,26649],[36.3,26731],[36.2,26821],[36.2,26897],[36.1,26983],[36.1,27065],[36.1,27147],[36.1,27231],[36.1,27319],[36.1,27397],[36.1,27480],[36.1,27564],[36.1,27648],[36.1,27731],[36.1,27817],[36.1,27899],[36.1,27980],[36.1,28064],[36.1,28147],[36.1,28234],[36.1,28318],[36.1,28398],[36.1,28482]]",1,0,1017.1179,1019.2215,36.35416478,1.0965,"[{""rating"":36.354164780991326,""responseTime"":1.0965000000001055}]",space,1.5591,,1019.2216,Not at all,0,1019.2291,,,[],,0,11,11,11,1,audio/Narrative8Situation2.wav,audio/Narrative7Situation2.wav,audio/Narrative6Situation2.wav,audio/Narrative5Situation2.wav,3,3,3,3,,,,,,,,,,,,,,,,,,,,,,,,,,,,,,,,,,,,,,,
,,,,,,65e3e371f66e65c7f9720ec2,2024-05-13_13h51.41.981,group3.1-3.2-social-tom,2023.2.2,Win32,59.88023952,65c5074098b851296ff0b7ed,664252f6a2cd6a58eda0747e,,,,,,,,,,,,,,,,,,,,,,,,,,,,,1019.2294,2,audio/Narrative6Situation3.wav,1024.2388,,1024.2392,1036.8709,"[[34.1,807],[34,888],[33.5,991],[33.5,1064],[33.5,1153],[33.5,1232],[33.5,1320],[33.5,1401],[33.5,1483],[33.5,1560],[33.5,1646],[33.5,1750],[33.5,1832],[33.5,1910],[33.5,2006],[33.5,2090],[33.5,2164],[33.5,2249],[33.5,2340],[33.5,2431],[33.5,2517],[33.5,2604],[34.4,2690],[35.9,2777],[37.5,2856],[39,2939],[39.6,3015],[41.7,3101],[44,3182],[47,3275],[50.4,3383],[52.6,3480],[53.2,3581],[53.9,3673],[55.3,3759],[59.8,3845],[61.9,3925],[63.6,4008],[64.9,4093],[65.7,4175],[65.7,4259],[65.7,4342],[65.7,4427],[65.7,4517],[65.7,4603],[65.7,4700],[65.7,4776],[65.7,4865],[65.7,4948],[65.7,5033],[65.7,5113],[65.7,5203],[65.7,5289],[65.7,5365],[65.7,5453],[65.7,5540],[65.6,5620],[65.6,5696],[65.6,5793],[65.6,5875],[65.6,5970],[65.6,6051],[65.6,6132],[65.6,6223],[65.6,6296],[65.6,6390],[65.4,6486],[65.4,6569],[65.4,6669],[65.4,6748],[65.4,6825],[65.4,6913],[65.4,6998],[65.4,7082],[65.4,7161],[65.4,7245],[65.4,7333],[65.4,7422],[65.4,7496],[65.4,7584],[65.4,7658],[65.4,7749],[65.4,7830],[65.4,7919],[65.4,7999],[65.4,8081],[65.4,8172],[65.4,8248],[65.4,8332],[65.4,8423],[65.4,8500],[65.4,8604],[65.4,8687],[65.4,8763],[65.4,8849],[65.4,8941],[65.4,9042],[65.4,9153],[65.3,9241],[65.3,9333],[65.2,9434],[65.2,9519],[65.2,9592],[65.2,9679],[65.2,9762],[65.2,9841],[65.2,9930],[65.2,10022],[65.2,10095],[65.2,10175],[65.2,10265],[65.2,10341],[65.2,10456],[65.2,10535],[65.2,10639],[65.2,10721],[65.2,10798],[65.2,10883],[65.2,10963],[65.2,11046],[65.2,11132],[65.2,11219],[65.2,11296],[65.2,11374],[65.2,11464],[65.2,11551],[65.2,11632],[65.2,11712],[65.2,11797],[65.2,11881],[65.2,11969],[65.2,12045],[65.2,12129],[65.2,12220],[65.2,12297],[65.2,12381],[65.2,12466],[65.2,12546]]",1,0,1036.8719,1039.379,66.97916191,1.3962,"[{""rating"":66.97916190828992,""responseTime"":1.3962000002861714}]",space,1.966,,1039.3791,Not at all,0,1039.3846,,,[],,0,12,12,12,1,audio/Narrative8Situation3.wav,audio/Narrative7Situation3.wav,audio/Narrative6Situation3.wav,audio/Narrative5Situation3.wav,4,8,5,3,,,,,,,,,,,,,,,,,,,,,,,,,,,,,,,,,,,,,,,
