exp_question,consent.started,consent.stopped,consentResponse.keys,consentResponse.rt,consentResponse.duration,participantID,date,expName,psychopyVersion,OS,frameRate,STUDY_ID,SESSION_ID,opening1.started,opening1.stopped,keyEndingOpening1.keys,keyEndingOpening1.rt,keyEndingOpening1.duration,volumeAdjust.started,volumeAdjust.stopped,endingAdjust.keys,endingAdjust.rt,endingAdjust.duration,opening2.started,opening2.stopped,keyEndingOpening.keys,keyEndingOpening.rt,keyEndingOpening.duration,mouse.x,mouse.y,mouse.leftButton,mouse.midButton,mouse.rightButton,mouse.time,instructionLoop.thisRepN,instructionLoop.thisTrialN,instructionLoop.thisN,instructionLoop.thisIndex,instructionLoop.ran,readyForAudio.started,readyForAudio.stopped,fixation.started,run,audio_played,fixation.stopped,endPractice.keys,audioPre.started,audioPre.stopped,continuousResponses_audio,continuousSlider.response,continuousSlider.rt,intRating.started,intRating.stopped,intQuestionSlider.response,intQuestionSlider.rt,intQuestionSlider.history,confirmResponse.keys,confirmResponse.rt,confirmResponse.duration,catchQuestion.started,catch_label,catch_value,catchQuestion.stopped,catchQuestionSlider.response,catchQuestionSlider.rt,catchQuestionSlider.history,confirmResponse_2.keys,audioRunLoop.thisRepN,audioRunLoop.thisTrialN,audioRunLoop.thisN,audioRunLoop.thisIndex,audioRunLoop.ran,conditions1_1,conditions2_1,conditions1_2,conditions2_2,dur1_1,dur2_1,dur1_2,dur2_2,endPractice.rt,endPractice.duration,confirmResponse_2.rt,confirmResponse_2.duration,runIntervalBreak.started,runIntervalBreak.stopped,endingBreakKey.keys,endingBreakKey.rt,endingBreakKey.duration,connection.started,connection.stopped,connectionEnding.keys,connectionEnding.rt,connectionEnding.duration,readyForText.started,readyForText.stopped,textPre.started,run_dup,textPre.stopped,continuousResponses_text,textRunLoop.thisRepN,textRunLoop.thisTrialN,textRunLoop.thisN,textRunLoop.thisIndex,textRunLoop.ran,text1_1,text1_2,text2_1,text2_2,runBreakText.started,runBreakText.stopped,endingBreakKey_2.keys,endingBreakKey_2.rt,endingBreakKey_2.duration,ending.started,ending.stopped,endingEnding.keys,endingEnding.rt,endingEnding.duration
tom,0.0008,5.8579,y,5.5234,,65fc6ca12b8b3852fbea77f1,2024-05-13_11h35.07.311,group3.1-3.2-social-tom,2023.2.2,MacIntel,29.94011976,65c5074098b851296ff0b7ed,664232faca0532c64a7eb6e2,,,,,,,,,,,,,,,,,,,,,,,,,,,,,,,,,,,,,,,,,,,,,,,,,,,,,,,,,,,,,,,,,,,,,,,,,,,,,,,,,,,,,,,,,,,,,,,,,,,,,,,,,,
,,,,,,65fc6ca12b8b3852fbea77f1,2024-05-13_11h35.07.311,group3.1-3.2-social-tom,2023.2.2,MacIntel,29.94011976,65c5074098b851296ff0b7ed,664232faca0532c64a7eb6e2,5.8581,10.0903,space,4.2121,,,,,,,,,,,,,,,,,,,,,,,,,,,,,,,,,,,,,,,,,,,,,,,,,,,,,,,,,,,,,,,,,,,,,,,,,,,,,,,,,,,,,,,,,,,,,,,,,,,,,,
,,,,,,65fc6ca12b8b3852fbea77f1,2024-05-13_11h35.07.311,group3.1-3.2-social-tom,2023.2.2,MacIntel,29.94011976,65c5074098b851296ff0b7ed,664232faca0532c64a7eb6e2,,,,,,10.0905,14.9576,space,4.5358,,,,,,,,,,,,,,,,,,,,,,,,,,,,,,,,,,,,,,,,,,,,,,,,,,,,,,,,,,,,,,,,,,,,,,,,,,,,,,,,,,,,,,,,,,,,,,,,,
,,,,,,65fc6ca12b8b3852fbea77f1,2024-05-13_11h35.07.311,group3.1-3.2-social-tom,2023.2.2,MacIntel,29.94011976,65c5074098b851296ff0b7ed,664232faca0532c64a7eb6e2,,,,,,,,,,,14.9691,29.5251,space,14.5195,,[],[],[],[],[],[],0,0,0,0,1,,,,,,,,,,,,,,,,,,,,,,,,,,,,,,,,,,,,,,,,,,,,,,,,,,,,,,,,,,,,,,,,,,,,,,,,,,,,,,,,
,,,,,,65fc6ca12b8b3852fbea77f1,2024-05-13_11h35.07.311,group3.1-3.2-social-tom,2023.2.2,MacIntel,29.94011976,65c5074098b851296ff0b7ed,664232faca0532c64a7eb6e2,,,,,,,,,,,29.5257,101.2295,space,71.5343,,[],[],[],[],[],[],1,0,1,0,1,,,,,,,,,,,,,,,,,,,,,,,,,,,,,,,,,,,,,,,,,,,,,,,,,,,,,,,,,,,,,,,,,,,,,,,,,,,,,,,,
,,,,,,65fc6ca12b8b3852fbea77f1,2024-05-13_11h35.07.311,group3.1-3.2-social-tom,2023.2.2,MacIntel,29.94011976,65c5074098b851296ff0b7ed,664232faca0532c64a7eb6e2,,,,,,,,,,,101.245,109.3968,space,8.0864,,[],[],[],[],[],[],2,0,2,0,1,,,,,,,,,,,,,,,,,,,,,,,,,,,,,,,,,,,,,,,,,,,,,,,,,,,,,,,,,,,,,,,,,,,,,,,,,,,,,,,,
,,,,,,65fc6ca12b8b3852fbea77f1,2024-05-13_11h35.07.311,group3.1-3.2-social-tom,2023.2.2,MacIntel,29.94011976,65c5074098b851296ff0b7ed,664232faca0532c64a7eb6e2,,,,,,,,,,,109.4068,161.367,space,51.938,,[],[],[],[],[],[],3,0,3,0,1,,,,,,,,,,,,,,,,,,,,,,,,,,,,,,,,,,,,,,,,,,,,,,,,,,,,,,,,,,,,,,,,,,,,,,,,,,,,,,,,
,,,,,,65fc6ca12b8b3852fbea77f1,2024-05-13_11h35.07.311,group3.1-3.2-social-tom,2023.2.2,MacIntel,29.94011976,65c5074098b851296ff0b7ed,664232faca0532c64a7eb6e2,,,,,,,,,,,161.3777,170.5677,space,9.1478,,[],[],[],[],[],[],4,0,4,0,1,,,,,,,,,,,,,,,,,,,,,,,,,,,,,,,,,,,,,,,,,,,,,,,,,,,,,,,,,,,,,,,,,,,,,,,,,,,,,,,,
,,,,,,65fc6ca12b8b3852fbea77f1,2024-05-13_11h35.07.311,group3.1-3.2-social-tom,2023.2.2,MacIntel,29.94011976,65c5074098b851296ff0b7ed,664232faca0532c64a7eb6e2,,,,,,,,,,,,,,,,,,,,,,,,,,,170.5806,173.1685,173.1966,1,audio/Narrative13Situation2.wav,175.2052,,175.2054,205.0067,"[[999,0],[999,68],[999,129],[999,202],[999,262],[999,329],[999,458],[999,497],[999,562],[999,629],[999,697],[999,766],[999,829],[999,895],[999,971],[999,1029],[999,1097],[999,1163],[999,1229],[999,1295],[999,1363],[999,1429],[999,1500],[999,1566],[999,1629],[999,1695],[999,1763],[999,1829],[999,1895],[999,1963],[999,2029],[999,2096],[999,2162],[999,2230],[999,2296],[999,2362],[999,2429],[999,2495],[999,2563],[999,2630],[999,2696],[999,2762],[999,2830],[999,2896],[999,2962],[999,3029],[999,3096],[999,3162],[999,3229],[999,3296],[999,3363],[999,3429],[999,3496],[999,3562],[999,3630],[999,3695],[999,3762],[999,3829],[999,3896],[999,3963],[999,4029],[999,4096],[999,4163],[999,4229],[999,4296],[999,4363],[999,4429],[999,4496],[999,4562],[999,4629],[999,4696],[999,4763],[999,4830],[999,4896],[999,4962],[999,5030],[999,5096],[999,5163],[999,5229],[999,5296],[999,5364],[999,5429],[999,5496],[999,5563],[999,5629],[999,5696],[999,5762],[999,5829],[999,5896],[999,5962],[999,6029],[999,6096],[999,6163],[999,6229],[999,6295],[999,6362],[999,6430],[999,6496],[999,6562],[999,6630],[999,6696],[999,6762],[999,6829],[999,6897],[999,6963],[999,7030],[999,7097],[999,7163],[999,7230],[999,7296],[999,7362],[999,7429],[999,7496],[999,7562],[999,7630],[999,7696],[999,7763],[999,7829],[999,7896],[999,7963],[999,8029],[999,8096],[999,8163],[999,8229],[999,8296],[999,8363],[999,8429],[999,8496],[999,8562],[999,8630],[999,8696],[999,8763],[999,8829],[999,8896],[999,8963],[999,9030],[999,9096],[999,9163],[999,9229],[999,9296],[999,9363],[999,9430],[999,9497],[999,9563],[999,9629],[999,9696],[999,9763],[999,9830],[999,9896],[999,9963],[999,10029],[999,10097],[999,10162],[999,10230],[999,10296],[999,10363],[999,10430],[999,10496],[999,10563],[999,10629],[999,10696],[999,10763],[999,10829],[999,10896],[999,10963],[999,11029],[999,11096],[999,11163],[999,11229],[999,11297],[999,11363],[999,11430],[999,11497],[999,11563],[999,11630],[999,11696],[999,11764],[999,11830],[999,11896],[999,11963],[999,12029],[999,12096],[999,12163],[999,12229],[999,12296],[999,12363],[999,12430],[999,12496],[999,12563],[999,12629],[999,12696],[999,12763],[999,12831],[999,12896],[999,12963],[999,13030],[999,13096],[999,13163],[999,13230],[999,13296],[999,13363],[999,13430],[999,13496],[999,13563],[999,13630],[999,13697],[999,13763],[999,13830],[999,13896],[999,13964],[999,14030],[999,14097],[999,14163],[999,14231],[999,14297],[999,14364],[999,14431],[999,14497],[999,14563],[999,14632],[999,14698],[999,14763],[999,14830],[999,14897],[999,14963],[999,15030],[999,15097],[999,15163],[999,15229],[999,15297],[999,15363],[999,15430],[999,15497],[999,15563],[999,15631],[999,15697],[999,15764],[999,15830],[999,15897],[999,15963],[999,16030],[999,16097],[999,16164],[999,16230],[999,16298],[999,16364],[999,16430],[999,16497],[999,16565],[999,16630],[999,16696],[999,16763],[999,16830],[999,16896],[999,16964],[999,17030],[999,17097],[999,17163],[999,17230],[999,17296],[999,17363],[999,17430],[999,17496],[999,17563],[999,17630],[999,17696],[999,17763],[999,17830],[999,17896],[999,17964],[999,18030],[999,18097],[999,18163],[999,18230],[999,18296],[999,18364],[999,18431],[999,18497],[999,18564],[999,18630],[999,18697],[999,18763],[999,18830],[999,18896],[999,18964],[999,19031],[999,19097],[999,19163],[999,19230],[999,19296],[999,19363],[999,19430],[999,19496],[999,19563],[999,19630],[999,19697],[999,19763],[999,19830],[999,19897],[999,19964],[999,20030],[999,20097],[999,20163],[999,20230],[999,20297],[999,20364],[999,20430],[999,20497],[999,20564],[999,20630],[999,20697],[999,20764],[999,20830],[999,20897],[999,20964],[999,21030],[999,21097],[999,21164],[999,21231],[999,21297],[999,21364],[999,21430],[999,21497],[999,21564],[999,21630],[999,21697],[999,21764],[999,21830],[999,21897],[999,21964],[999,22030],[999,22097],[999,22164],[999,22231],[999,22297],[999,22364],[999,22430],[999,22497],[999,22564],[999,22631],[999,22697],[999,22764],[999,22830],[999,22897],[999,22964],[999,23031],[999,23097],[999,23164],[999,23231],[999,23298],[999,23364],[999,23430],[999,23498],[999,23564],[999,23630],[999,23697],[999,23764],[999,23830],[999,23897],[999,23964],[999,24031],[999,24097],[999,24164],[999,24231],[999,24297],[999,24364],[999,24431],[999,24497],[999,24564],[999,24631],[999,24697],[999,24764],[999,24831],[999,24897],[999,24964],[999,25031],[999,25097],[999,25164],[999,25231],[999,25298],[999,25364],[999,25431],[999,25498],[999,25565],[999,25631],[999,25698],[999,25764],[999,25831],[999,25898],[999,25965],[999,26031],[999,26098],[999,26164],[999,26231],[999,26297],[999,26364],[999,26430],[999,26497],[999,26588],[999,26637],[999,26706],[999,26763],[999,26831],[999,26898],[999,26964],[999,27031],[999,27098],[999,27164],[999,27231],[999,27298],[999,27364],[999,27431],[999,27497],[999,27564],[999,27631],[999,27697],[999,27765],[999,27831],[999,27897],[999,27964],[999,28031],[999,28097],[999,28164],[999,28231],[999,28298],[999,28364],[999,28431],[999,28498],[999,28565],[999,28631],[999,28697],[999,28764],[999,28831],[999,28898],[999,28964],[999,29030],[999,29098],[999,29164],[999,29231],[999,29298],[999,29364],[999,29431],[999,29498],[999,29565],[999,29632],[999,29698],[999,29766]]",1,0,205.0074,216.5059,73.96426731,10.8719,"[{""rating"":72.41769578721788,""responseTime"":8.019699999999233},{""rating"":73.96426730685764,""responseTime"":10.871899999998504}]",space,10.921,,216.5063,Half the time,50,216.5129,,,[],,0,0,0,0,1,audio/Narrative13Situation2.wav,audio/Narrative13Situation2.wav,audio/Narrative13Situation2.wav,audio/Narrative13Situation2.wav,2,2,2,2,,,,,,,,,,,,,,,,,,,,,,,,,,,,,,,,,,,,,,,
,,,,,,65fc6ca12b8b3852fbea77f1,2024-05-13_11h35.07.311,group3.1-3.2-social-tom,2023.2.2,MacIntel,29.94011976,65c5074098b851296ff0b7ed,664232faca0532c64a7eb6e2,,,,,,,,,,,,,,,,,,,,,,,,,,,,,216.5133,1,audio/Narrative8Situation1.wav,218.5049,space,218.5049,234.4722,"[[74.6,799],[72.1,866],[66.8,933],[61.6,999],[54.2,1066],[43.3,1132],[41.8,1199],[42.5,1267],[48.6,1533],[49.4,1602],[50.2,1669],[50.5,1733],[50.7,1799],[51,1866],[51,1932],[51,2000],[51,2067],[51,2133],[51,2199],[51,2265],[51,2332],[51,2399],[51,2466],[51,2532],[51,2599],[51,2666],[51,2734],[51,2800],[51,2866],[51,2932],[51.9,3000],[56.6,3066],[60.6,3133],[63.6,3200],[65.3,3266],[66.5,3333],[67.2,3399],[67.7,3467],[67.8,3532],[67.8,3599],[67.8,3666],[67.8,3733],[67.8,3799],[67.8,3866],[67.8,3933],[67.8,4000],[67.8,4066],[67.8,4133],[67.8,4200],[67.8,4266],[67.8,4333],[67.8,4399],[67.8,4466],[67.8,4533],[67.8,4599],[67.8,4667],[67.8,4733],[67.8,4799],[67.8,4866],[67.8,4933],[67.8,4999],[67.8,5066],[67.8,5180],[67.8,5207],[67.8,5266],[67.8,5333],[67.8,5399],[67.8,5466],[67.8,5533],[67.8,5599],[67.8,5666],[67.8,5733],[67.8,5800],[67.8,5866],[67.8,5933],[67.8,6000],[67.8,6066],[67.8,6133],[67.8,6200],[67.8,6267],[67.8,6333],[67.8,6400],[67.8,6466],[67.8,6533],[67.8,6599],[67.8,6667],[67.8,6733],[67.8,6799],[67.8,6866],[67.8,6933],[67.8,7000],[67.8,7066],[67.8,7133],[67.8,7200],[67.8,7266],[67.8,7333],[67.8,7399],[67.8,7467],[67.8,7533],[67.8,7600],[67.8,7666],[67.8,7733],[67.8,7799],[67.8,7866],[67.8,7933],[67.8,8000],[67.8,8066],[67.8,8133],[67.8,8200],[67.8,8267],[67.8,8334],[67.8,8400],[67.8,8466],[67.8,8533],[67.8,8600],[67.8,8667],[67.8,8733],[67.8,8800],[67.8,8867],[67.8,8933],[67.8,9000],[67.8,9066],[67.8,9134],[67.8,9199],[67.8,9266],[67.8,9333],[67.8,9400],[67.8,9466],[67.8,9533],[67.8,9600],[67.8,9667],[67.8,9733],[67.8,9800],[67.8,9866],[67.8,9933],[67.8,10000],[67.8,10066],[67.8,10133],[67.8,10199],[67.8,10266],[67.8,10333],[67.8,10400],[67.8,10467],[67.8,10533],[67.8,10600],[67.8,10667],[67.8,10733],[67.8,10800],[67.8,10867],[67.8,10934],[67.8,11000],[67.8,11067],[67.8,11134],[67.8,11200],[67.8,11267],[67.8,11333],[67.8,11400],[67.8,11467],[67.8,11533],[67.8,11600],[67.8,11667],[67.8,11733],[67.8,11800],[67.8,11867],[67.8,11934],[67.8,12000],[67.8,12067],[67.8,12133],[67.8,12199],[67.8,12267],[67.8,12333],[67.8,12401],[67.8,12466],[67.8,12533],[67.8,12600],[67.8,12667],[67.8,12733],[67.8,12800],[67.8,12867],[67.8,12933],[67.8,13000],[67.8,13067],[67.8,13133],[67.8,13200],[67.8,13267],[67.8,13333],[67.8,13400],[67.8,13467],[67.8,13533],[67.8,13601],[67.8,13667],[67.8,13734],[67.8,13800],[67.8,13866],[67.8,13934],[67.8,14000],[67.8,14067],[67.8,14134],[67.8,14200],[67.8,14267],[67.8,14333],[67.8,14400],[67.8,14466],[67.8,14533],[67.8,14600],[67.8,14667],[67.8,14733],[67.8,14800],[67.8,14867],[67.8,14934],[67.8,15000],[67.8,15067],[67.8,15134],[67.8,15200],[67.8,15267],[67.8,15334],[67.8,15401],[67.8,15467],[67.8,15533],[67.8,15601],[67.8,15667],[67.8,15734],[67.8,15800],[67.8,15867],[67.8,15933]]",1,0,234.4725,241.2724,66.4329105,5.8086,"[{""rating"":66.4329104953342,""responseTime"":5.808600000001491}]",space,6.2483,,241.2724,All the time,100,241.2774,,,[],,0,1,1,1,1,audio/Narrative7Situation1.wav,audio/Narrative8Situation1.wav,audio/Narrative5Situation1.wav,audio/Narrative6Situation1.wav,2,5,5,2,1.9666,,,,,,,,,,,,,,,,,,,,,,,,,,,,,,,,,,,,,,
,,,,,,65fc6ca12b8b3852fbea77f1,2024-05-13_11h35.07.311,group3.1-3.2-social-tom,2023.2.2,MacIntel,29.94011976,65c5074098b851296ff0b7ed,664232faca0532c64a7eb6e2,,,,,,,,,,,,,,,,,,,,,,,,,,,,,241.2776,1,audio/Narrative8Situation2.wav,244.3063,,244.3063,254.4406,"[[61.3,133],[52.4,200]]",1,0,254.4407,259.8412,36.16405911,3.5923,"[{""rating"":36.16405910915799,""responseTime"":3.592300000000705}]",space,4.8465,,259.8413,Half the time,50,259.8485,,,[],,0,2,2,2,1,audio/Narrative7Situation2.wav,audio/Narrative8Situation2.wav,audio/Narrative5Situation2.wav,audio/Narrative6Situation2.wav,3,3,3,3,,,,,,,,,,,,,,,,,,,,,,,,,,,,,,,,,,,,,,,
,,,,,,65fc6ca12b8b3852fbea77f1,2024-05-13_11h35.07.311,group3.1-3.2-social-tom,2023.2.2,MacIntel,29.94011976,65c5074098b851296ff0b7ed,664232faca0532c64a7eb6e2,,,,,,,,,,,,,,,,,,,,,,,,,,,,,259.8488,1,audio/Narrative8Situation3.wav,263.8743,,263.8743,286.3089,"[[42.8,10601],[50.4,11067],[50.4,11134],[50.4,11201],[50.4,11267],[50.6,11333],[50.7,11400],[50.7,11467],[50.7,11534],[50.7,11600],[50.7,11667],[50.7,11734],[50.7,11801],[50.7,11867],[54.4,11934],[63.8,12001],[70.4,12067],[73.7,12134],[74.5,12200],[74.6,12267],[74.6,12334],[74.6,12400],[74.5,12469],[74.4,12533],[74.4,12600],[74.4,12667],[74.4,12733],[74.4,12801],[74.4,12867],[74.4,12933],[74.4,13001],[74.4,13067],[74.4,13133],[74.4,13200],[74.4,13267],[74.4,13333],[74.4,13400],[74.4,13467],[74.4,13534],[74.4,13601],[74.4,13667],[74.4,13733],[74.4,13800],[74.4,13867],[74.4,13934],[74.4,14001],[74.4,14067],[74.4,14134],[74.4,14200],[74.4,14267],[74.4,14334],[74.4,14400],[74.4,14467],[74.4,14534],[74.4,14601],[74.4,14667],[74.4,14734],[74.4,14800],[74.4,14867],[74.4,14934],[74.4,15000],[74.4,15067],[74.4,15134],[74.4,15200],[74.4,15267],[74.4,15334],[74.4,15400],[74.4,15468],[74.4,15534],[74.4,15601],[74.4,15667],[74.4,15734],[74.4,15801],[74.4,15868],[74.4,15934],[74.4,16001],[74.4,16067],[74.4,16134],[74.4,16201],[74.4,16267],[74.4,16334],[74.4,16400],[74.4,16468],[74.4,16535],[74.4,16601],[74.4,16668],[74.4,16734],[74.4,16801],[74.4,16867],[74.4,16934],[74.4,17001],[74.4,17067],[74.4,17134],[74.4,17201],[74.4,17268],[74.4,17334],[74.4,17401],[74.4,17468],[74.4,17534],[74.4,17600],[74.4,17667],[74.4,17734],[74.4,17801],[74.4,17867],[74.4,17935],[74.4,18000],[74.4,18067],[74.4,18134],[74.4,18201],[74.4,18268],[74.4,18334],[74.4,18401],[74.4,18467],[74.4,18535],[74.4,18601],[74.4,18667],[74.4,18734],[74.4,18801],[74.4,18868],[74.4,18934],[74.4,19001],[74.4,19067],[74.4,19134],[74.4,19201],[74.4,19267],[74.4,19334],[74.4,19401],[74.4,19467],[74.4,19534],[74.4,19600],[74.4,19667],[74.4,19734],[74.4,19811],[74.4,19867],[74.4,19935],[74.4,20000],[74.4,20097],[74.4,20138],[74.4,20224],[74.4,20270],[74.4,20346],[74.4,20401],[74.4,20468],[74.4,20540],[74.4,20656],[74.4,20673],[74.4,20734],[74.4,20801],[74.4,20878],[74.4,20945],[74.4,21001],[74.4,21068],[74.4,21134],[74.4,21201],[74.4,21269],[74.4,21337],[74.4,21400],[74.4,21475],[74.4,21534],[74.4,21601],[74.4,21667],[74.4,21746],[74.4,21801],[74.4,21867],[74.4,21934],[74.4,22001],[74.4,22067],[74.4,22134],[74.4,22203],[74.4,22286],[74.4,22338],[74.4,22401]]",1,0,286.309,290.2427,92.73123847,3.2414,"[{""rating"":74.38485039605035,""responseTime"":0.19060000000143873},{""rating"":92.73123847113716,""responseTime"":3.2414000000022156}]",space,3.3733,,290.2429,Half the time,50,290.2471,,,[],,0,3,3,3,1,audio/Narrative7Situation3.wav,audio/Narrative8Situation3.wav,audio/Narrative5Situation3.wav,audio/Narrative6Situation3.wav,8,4,3,5,,,,,,,,,,,,,,,,,,,,,,,,,,,,,,,,,,,,,,,
,,,,,,65fc6ca12b8b3852fbea77f1,2024-05-13_11h35.07.311,group3.1-3.2-social-tom,2023.2.2,MacIntel,29.94011976,65c5074098b851296ff0b7ed,664232faca0532c64a7eb6e2,,,,,,,,,,,,,,,,,,,,,,,,,,,,,290.2475,1,audio/Narrative8Situation4.wav,293.2764,,293.2765,307.477,"[[999,14],[999,66],[999,133],[999,199],[999,266],[999,333],[999,400],[999,467],[999,533],[999,601],[999,666],[999,733],[999,799],[999,866],[999,933],[999,999],[999,1066],[999,1132],[999,1199],[999,1266],[999,1333],[999,1399],[999,1466],[999,1532],[999,1599],[999,1666],[999,1733],[999,1799],[999,1866],[999,1933],[999,2000],[999,2066],[999,2133],[999,2199],[999,2266],[999,2333],[999,2400],[999,2467],[999,2533],[999,2600],[999,2666],[999,2734],[999,2799],[999,2867],[999,2933],[999,2999],[999,3066],[999,3133],[999,3199],[999,3266],[999,3333],[999,3399],[999,3466],[999,3533],[999,3600],[999,3666],[999,3732],[999,3799],[999,3867],[999,3933],[999,3999],[999,4067],[999,4133],[999,4200],[999,4266],[999,4333],[999,4400],[999,4466],[999,4533],[999,4600],[999,4666],[999,4733],[999,4800],[999,4866],[999,4934],[999,5000],[999,5067],[999,5133],[999,5200],[999,5266],[999,5333],[999,5400],[999,5466],[999,5533],[999,5600],[999,5666],[999,5733],[999,5800],[999,5867],[999,5933],[999,6000],[999,6067],[999,6133],[999,6199],[999,6266],[999,6333],[999,6400],[999,6467],[999,6534],[999,6600],[999,6666],[999,6733],[999,6800],[999,6867],[999,6934],[999,7000],[999,7067],[999,7134],[999,7200],[999,7266],[999,7333],[999,7400],[999,7467],[999,7533],[999,7600],[999,7666],[999,7733],[999,7800],[999,7866],[999,7934],[999,8000],[999,8067],[999,8133],[999,8200],[999,8266],[999,8333],[999,8399],[999,8466],[999,8533],[999,8600],[999,8666],[999,8733],[999,8800],[999,8898],[999,8933],[999,9000],[999,9067],[999,9133],[999,9200],[999,9267],[999,9334],[999,9400],[999,9467],[999,9534],[999,9600],[999,9667],[999,9733],[999,9800],[999,9867],[999,9933],[999,10000],[999,10067],[999,10134],[999,10200],[999,10266],[999,10334],[999,10399],[999,10466],[999,10533],[999,10599],[999,10666],[999,10734],[999,10800],[999,10866],[999,10933],[999,11000],[999,11067],[999,11133],[999,11201],[999,11267],[999,11334],[999,11400],[999,11467],[999,11533],[999,11601],[999,11667],[999,11733],[999,11800],[999,11867],[999,11933],[999,12001],[999,12067],[999,12133],[999,12200],[999,12267],[999,12333],[999,12400],[999,12467],[999,12533],[999,12599],[999,12667],[999,12733],[999,12800],[999,12867],[999,12933],[999,13000],[999,13067],[999,13133],[999,13201],[999,13267],[999,13334],[999,13401],[999,13467],[999,13534],[999,13601],[999,13667],[999,13734],[999,13800],[999,13867],[999,13935],[999,14000],[999,14067],[999,14134],[999,14200]]",1,0,307.4773,310.6109,100,2.2415,"[{""rating"":100,""responseTime"":2.2415000000000305}]",space,2.5854,,310.6109,Half the time,50,310.6147,,,[],,0,4,4,4,1,audio/Narrative7Situation4.wav,audio/Narrative8Situation4.wav,audio/Narrative5Situation4.wav,audio/Narrative6Situation4.wav,3,3,1,2,,,,,,,,,,,,,,,,,,,,,,,,,,,,,,,,,,,,,,,
,,,,,,65fc6ca12b8b3852fbea77f1,2024-05-13_11h35.07.311,group3.1-3.2-social-tom,2023.2.2,MacIntel,29.94011976,65c5074098b851296ff0b7ed,664232faca0532c64a7eb6e2,,,,,,,,,,,,,,,,,,,,,,,,,,,,,310.6151,1,audio/Narrative8Situation5.wav,310.911,space,310.9111,319.2116,"[[999,1],[999,66],[999,133],[999,199],[999,266],[999,332],[999,399],[999,466],[999,533],[999,600],[999,665],[999,732],[999,799],[999,866],[999,932],[999,999],[999,1066],[999,1133],[999,1199],[999,1266],[999,1333],[999,1399],[999,1466],[999,1533],[999,1600],[999,1667],[999,1733],[999,1800],[999,1866],[999,1933],[999,2000],[999,2066],[999,2133],[999,2199],[999,2266],[999,2333],[999,2399],[999,2466],[999,2533],[999,2599],[999,2666],[999,2733],[999,2799],[999,2865],[999,2932],[999,2999],[999,3066],[999,3132],[999,3199],[999,3266],[999,3333],[999,3400],[999,3466],[999,3533],[999,3600],[999,3666],[999,3737],[999,3800],[999,3866],[999,3933],[999,4000],[999,4066],[999,4134],[999,4199],[999,4266],[999,4333],[999,4399],[999,4466],[999,4533],[999,4600],[999,4666],[999,4733],[999,4800],[999,4866],[999,4933],[999,4999],[999,5066],[999,5132],[999,5199],[999,5266],[999,5333],[999,5399],[999,5466],[999,5533],[999,5599],[999,5666],[999,5733],[999,5800],[999,5866],[999,5933],[999,6000],[999,6067],[999,6133],[999,6200],[999,6266],[999,6334],[999,6400],[999,6467],[999,6533],[999,6600],[999,6667],[999,6733],[999,6800],[999,6867],[999,6933],[999,7000],[999,7066],[999,7133],[999,7200],[999,7266],[999,7333],[999,7399],[999,7466],[999,7533],[999,7599],[999,7666],[999,7733],[999,7800],[999,7866],[999,7933],[999,8000],[999,8067],[999,8134],[999,8200],[999,8267]]",1,0,319.2119,329.2454,18.48214044,9.2105,"[{""rating"":18.482140435112846,""responseTime"":9.210500000000025}]",space,9.4418,,329.2455,Half the time,50,329.2492,,,[],,0,5,5,5,1,audio/Narrative7Situation5.wav,audio/Narrative8Situation5.wav,audio/Narrative5Situation5.wav,audio/Narrative6Situation5.wav,5,2,5,2,0.2869,,,,,,,,,,,,,,,,,,,,,,,,,,,,,,,,,,,,,,
,,,,,,65fc6ca12b8b3852fbea77f1,2024-05-13_11h35.07.311,group3.1-3.2-social-tom,2023.2.2,MacIntel,29.94011976,65c5074098b851296ff0b7ed,664232faca0532c64a7eb6e2,,,,,,,,,,,,,,,,,,,,,,,,,,,,,329.2497,1,audio/Narrative8Situation6.wav,331.2794,,331.2795,337.8127,"[[999,0],[999,66],[999,132],[999,199],[999,266],[999,333],[999,399],[999,466],[999,532],[999,599],[999,665],[999,733],[999,799],[999,866],[999,933],[999,999],[999,1066],[999,1132],[999,1199],[999,1265],[999,1332],[999,1399],[999,1466],[999,1532],[999,1598],[999,1665],[999,1732],[999,1799],[999,1865],[999,1932],[999,1999],[999,2066],[999,2132],[999,2199],[999,2266],[999,2333],[999,2399],[999,2466],[999,2533],[999,2599],[999,2666],[999,2732],[999,2800],[999,2866],[999,2932],[999,2999],[999,3066],[999,3132],[999,3199],[999,3266],[999,3332],[999,3399],[999,3466],[999,3532],[999,3599],[999,3666],[999,3732],[999,3799],[999,3865],[999,3932],[999,3999],[999,4065],[999,4132],[999,4199],[999,4266],[999,4332],[999,4399],[999,4466],[999,4533],[999,4599],[999,4666],[999,4733],[999,4799],[999,4866],[999,4933],[999,5000],[999,5066],[999,5132],[999,5199],[999,5266],[999,5332],[999,5399],[999,5466],[999,5533],[999,5599],[999,5666],[999,5733],[999,5799],[59.2,5866],[65.1,5932],[64.5,6000],[16.7,6533]]",1,0,337.8128,340.6127,1.364483303,2.1893,"[{""rating"":5.218565199110242,""responseTime"":1.3570999999977857},{""rating"":1.364483303493924,""responseTime"":2.189300000000742}]",space,2.2003,,340.6128,Not at all,0,340.6208,,,[],,0,6,6,6,1,audio/Narrative7Situation6.wav,audio/Narrative8Situation6.wav,audio/Narrative5Situation6.wav,audio/Narrative6Situation6.wav,3,2,3,2,,,,,,,,,,,,,,,,,,,,,,,,,,,,,,,,,,,,,,,
,,,,,,65fc6ca12b8b3852fbea77f1,2024-05-13_11h35.07.311,group3.1-3.2-social-tom,2023.2.2,MacIntel,29.94011976,65c5074098b851296ff0b7ed,664232faca0532c64a7eb6e2,,,,,,,,,,,,,,,,,,,,,,,,,,,,,340.6215,1,audio/Narrative8Situation7.wav,343.6757,,343.6757,355.7814,[],1,0,355.7815,357.9142,3.004688687,0.9881,"[{""rating"":3.0046886867947045,""responseTime"":0.9880999999977575}]",space,1.5589,,357.9145,Not at all,0,357.9181,,,[],,0,7,7,7,1,audio/Narrative7Situation7.wav,audio/Narrative8Situation7.wav,audio/Narrative5Situation7.wav,audio/Narrative6Situation7.wav,5,3,4,5,,,,,,,,,,,,,,,,,,,,,,,,,,,,,,,,,,,,,,,
,,,,,,65fc6ca12b8b3852fbea77f1,2024-05-13_11h35.07.311,group3.1-3.2-social-tom,2023.2.2,MacIntel,29.94011976,65c5074098b851296ff0b7ed,664232faca0532c64a7eb6e2,,,,,,,,,,,,,,,,,,,,,,,,,,,,,357.9185,1,audio/Narrative8Situation8.wav,360.9479,,360.9479,373.8495,"[[999,0],[999,66],[999,133],[999,199],[999,266],[999,333],[999,399],[999,466],[999,532],[999,599],[999,665],[999,733],[999,799],[999,866],[999,932],[999,1000],[999,1065],[999,1132],[999,1199],[999,1266],[999,1332],[999,1399],[999,1466],[999,1533],[999,1599],[999,1666],[999,1733],[999,1799],[999,1866],[999,1933],[999,2000],[999,2066],[999,2133],[999,2199],[999,2266],[999,2333],[999,2399],[999,2466],[999,2533],[999,2599],[999,2667],[999,2733],[999,2799],[999,2866],[999,2933],[999,3000],[999,3066],[999,3133],[999,3200],[999,3266],[999,3332],[999,3399],[999,3466],[999,3532],[999,3600],[999,3669],[999,3733],[999,3800],[999,3866],[999,3933],[999,4000],[999,4066],[999,4133],[999,4200],[999,4267],[999,4333],[999,4400],[999,4466],[999,4533],[999,4600],[999,4667],[999,4733],[999,4799],[999,4866],[999,4934],[999,5000],[999,5067],[999,5133],[999,5199],[999,5266],[999,5333],[999,5400],[999,5466],[999,5533],[999,5599],[999,5669],[999,5733],[999,5799],[999,5866],[999,5933],[999,6000],[999,6067],[999,6134],[999,6200],[999,6266],[999,6333],[999,6400],[999,6467],[999,6533],[999,6600],[999,6667],[999,6733],[999,6800],[999,6866],[999,6934],[999,7000],[999,7067],[999,7134],[999,7199],[999,7266],[999,7333],[999,7400],[999,7467],[999,7533],[999,7600],[999,7666],[999,7733],[999,7800],[999,7866],[999,7933],[999,8000],[999,8066],[999,8133],[999,8199],[999,8266],[999,8333],[999,8400],[999,8466],[999,8533],[999,8600],[999,8667],[999,8733],[999,8800],[999,8866],[999,8933],[999,9000],[999,9067],[999,9133],[999,9199],[999,9267],[999,9333],[999,9400],[999,9467],[999,9533],[999,9600],[999,9667],[999,9733],[999,9800],[999,9866],[999,9933],[999,10000],[999,10066],[999,10133],[999,10199],[999,10266],[999,10333],[999,10400],[999,10466],[999,10533],[999,10600],[999,10669],[999,10733],[999,10800],[999,10867],[999,10933],[999,11000],[999,11067],[999,11134],[999,11201],[999,11267],[999,11333],[999,11400],[999,11466],[999,11534],[999,11601],[999,11668],[999,11733],[999,11801],[999,11867],[48.8,11933],[54.4,12000],[56.5,12067],[57.1,12134],[62.7,12200],[78.9,12267],[84,12333],[84.4,12400],[84.4,12466],[84.4,12533],[86.1,12600],[88,12670],[88.4,12735],[88.8,12800],[89,12867]]",1,0,373.8497,375.482,100,1.0549,"[{""rating"":88.95497639973958,""responseTime"":0.2074999999999818},{""rating"":100,""responseTime"":1.0549000000022488}]",space,1.0547,,375.4821,Half the time,50,375.4898,,,[],,0,8,8,8,1,audio/Narrative7Situation8.wav,audio/Narrative8Situation8.wav,audio/Narrative5Situation8.wav,audio/Narrative6Situation8.wav,2,3,3,5,,,,,,,,,,,,,,,,,,,,,,,,,,,,,,,,,,,,,,,
,,,,,,65fc6ca12b8b3852fbea77f1,2024-05-13_11h35.07.311,group3.1-3.2-social-tom,2023.2.2,MacIntel,29.94011976,65c5074098b851296ff0b7ed,664232faca0532c64a7eb6e2,,,,,,,,,,,,,,,,,,,,,,,,,,,,,375.49,1,audio/Narrative8Situation9.wav,378.5158,,378.5159,389.8834,"[[69.6,11333]]",1,0,389.8835,393.883,69.30767483,3.21,"[{""rating"":69.30767483181424,""responseTime"":3.2099999999999795}]",space,3.4057,,393.8835,Not at all,0,393.8896,,,[],,0,9,9,9,1,audio/Narrative7Situation9.wav,audio/Narrative8Situation9.wav,audio/Narrative5Situation9.wav,audio/Narrative6Situation9.wav,2,3,3,4,,,,,,,,,,,,,,,,,,,,,,,,,,,,,,,,,,,,,,,
,,,,,,65fc6ca12b8b3852fbea77f1,2024-05-13_11h35.07.311,group3.1-3.2-social-tom,2023.2.2,MacIntel,29.94011976,65c5074098b851296ff0b7ed,664232faca0532c64a7eb6e2,,,,,,,,,,,,,,,,,,,,,,,,,,,,,393.8898,1,audio/Narrative7Situation1.wav,395.9171,,395.9172,451.8541,"[[68.9,55502],[56.4,55637],[53.4,55836],[78.2,55903]]",1,0,451.8543,455.8543,96.9815233,1.7417,"[{""rating"":96.98152330186632,""responseTime"":1.7416999999992981}]",space,3.408,,455.8544,All the time,100,455.8623,,,[],,0,10,10,10,1,audio/Narrative8Situation1.wav,audio/Narrative7Situation1.wav,audio/Narrative6Situation1.wav,audio/Narrative5Situation1.wav,5,2,2,5,,,,,,,,,,,,,,,,,,,,,,,,,,,,,,,,,,,,,,,
,,,,,,65fc6ca12b8b3852fbea77f1,2024-05-13_11h35.07.311,group3.1-3.2-social-tom,2023.2.2,MacIntel,29.94011976,65c5074098b851296ff0b7ed,664232faca0532c64a7eb6e2,,,,,,,,,,,,,,,,,,,,,,,,,,,,,455.8626,1,audio/Narrative7Situation2.wav,458.8871,,458.8872,466.3887,"[[999,0],[999,66],[999,133],[999,200],[999,266],[999,333],[999,400],[999,467],[999,533],[999,600],[999,673],[999,736],[999,800],[999,867],[999,933],[999,1000],[999,1067],[999,1133],[999,1200],[999,1267],[999,1334],[999,1400],[999,1466],[999,1533],[999,1600],[999,1667],[999,1733],[999,1799],[999,1866],[999,1933],[999,2000],[999,2066],[999,2133],[999,2200],[999,2266],[999,2333],[999,2400],[999,2467],[999,2533],[999,2600],[999,2667],[999,2734],[999,2800],[999,2867],[999,2934],[999,3000],[999,3067],[999,3134],[999,3200],[999,3267],[999,3334],[999,3400],[999,3467],[999,3534],[999,3600],[999,3667],[999,3734],[999,3800],[999,3867],[999,3934],[999,4000],[999,4067],[999,4134],[999,4199],[999,4267],[999,4333],[999,4400],[999,4467],[999,4533],[999,4600],[999,4667],[999,4775],[999,4800],[999,4867],[999,4934],[999,5000],[999,5067],[999,5134],[999,5200],[999,5267],[999,5334],[999,5401],[999,5467],[999,5534],[999,5601],[999,5667],[999,5734],[999,5801],[999,5867],[999,5933],[999,6000],[999,6067],[999,6133],[999,6200],[999,6266],[999,6334],[999,6400],[999,6466],[999,6533],[999,6600],[999,6667],[999,6733],[999,6801],[999,6867],[999,6934],[999,7000],[999,7067],[999,7134],[999,7201],[999,7267],[999,7334],[999,7401],[999,7467]]",1,0,466.3889,468.5884,61.08716329,1.2073,"[{""rating"":61.08716328938802,""responseTime"":1.207300000000771}]",space,1.6018,,468.5884,Not at all,0,468.5945,,,[],,0,11,11,11,1,audio/Narrative8Situation2.wav,audio/Narrative7Situation2.wav,audio/Narrative6Situation2.wav,audio/Narrative5Situation2.wav,3,3,3,3,,,,,,,,,,,,,,,,,,,,,,,,,,,,,,,,,,,,,,,
,,,,,,65fc6ca12b8b3852fbea77f1,2024-05-13_11h35.07.311,group3.1-3.2-social-tom,2023.2.2,MacIntel,29.94011976,65c5074098b851296ff0b7ed,664232faca0532c64a7eb6e2,,,,,,,,,,,,,,,,,,,,,,,,,,,,,468.5948,1,audio/Narrative7Situation3.wav,476.6216,,476.6216,485.8888,"[[999,13],[999,66],[999,133],[999,200],[999,266],[999,333],[999,400],[999,467],[999,533],[999,605],[999,667],[999,734],[999,800],[999,867],[999,934],[999,1000],[999,1067],[999,1134],[999,1201],[999,1267],[999,1334],[999,1400],[999,1467],[999,1534],[999,1600],[999,1666],[999,1734],[999,1800],[999,1867],[999,1934],[999,2001],[999,2067],[999,2133],[999,2199],[999,2266],[999,2333],[999,2400],[999,2466],[999,2533],[999,2600],[999,2667],[999,2733],[999,2800],[999,2867],[999,2934],[999,3000],[999,3067],[999,3133],[999,3201],[999,3267],[999,3334],[999,3400],[999,3467],[999,3534],[999,3600],[999,3667],[999,3733],[999,3800],[999,3867],[999,3934],[999,4000],[999,4067],[999,4134],[999,4201],[999,4266],[999,4333],[999,4399],[999,4466],[999,4533],[999,4600],[999,4666],[999,4733],[999,4800],[999,4867],[999,4933],[999,5000],[999,5067],[999,5134],[999,5200],[999,5267],[999,5334],[999,5401],[999,5467],[999,5534],[999,5600],[999,5667],[999,5734],[999,5801],[999,5867],[999,5934],[999,6000],[999,6067],[999,6134],[999,6201],[999,6267],[999,6334],[999,6400],[999,6467],[999,6534],[999,6600],[999,6666],[999,6733],[999,6800],[999,6867],[999,6934],[999,7000],[999,7067],[999,7134],[999,7200],[999,7267],[999,7334],[999,7401],[999,7466],[999,7534],[999,7601],[999,7668],[999,7734],[999,7801],[999,7867],[999,7934],[999,8006],[999,8068],[999,8134],[999,8201],[999,8267],[999,8334],[999,8401],[999,8467],[999,8534],[999,8601],[999,8667],[999,8734],[999,8801],[999,8867],[999,8933],[999,9001],[999,9067],[999,9134],[999,9200],[999,9266]]",1,0,485.889,488.3899,54.36448839,1.9319,"[{""rating"":54.36448838975695,""responseTime"":1.9318999999985067}]",space,1.9393,,488.3899,All the time,100,492.9902,100,4.0732,"[{""rating"":100,""responseTime"":4.073199999999247}]",space,0,12,12,12,1,audio/Narrative8Situation3.wav,audio/Narrative7Situation3.wav,audio/Narrative6Situation3.wav,audio/Narrative5Situation3.wav,4,8,5,3,,,4.0195,,,,,,,,,,,,,,,,,,,,,,,,,,,,,,,,,,,,
,,,,,,65fc6ca12b8b3852fbea77f1,2024-05-13_11h35.07.311,group3.1-3.2-social-tom,2023.2.2,MacIntel,29.94011976,65c5074098b851296ff0b7ed,664232faca0532c64a7eb6e2,,,,,,,,,,,,,,,,,,,,,,,,,,,,,492.9911,1,audio/Narrative7Situation4.wav,496.0237,,496.0238,507.7914,[],1,0,507.7916,510.3578,85.7345242,1.6544,"[{""rating"":85.73452419704861,""responseTime"":1.6544000000021697}]",space,1.9642,,510.3579,All the time,100,510.3606,,,[],,0,13,13,13,1,audio/Narrative8Situation4.wav,audio/Narrative7Situation4.wav,audio/Narrative6Situation4.wav,audio/Narrative5Situation4.wav,3,3,2,1,,,,,,,,,,,,,,,,,,,,,,,,,,,,,,,,,,,,,,,
,,,,,,65fc6ca12b8b3852fbea77f1,2024-05-13_11h35.07.311,group3.1-3.2-social-tom,2023.2.2,MacIntel,29.94011976,65c5074098b851296ff0b7ed,664232faca0532c64a7eb6e2,,,,,,,,,,,,,,,,,,,,,,,,,,,,,510.3609,1,audio/Narrative7Situation5.wav,515.3916,,515.3922,523.9246,[],1,0,523.925,527.3249,49.31310018,2.6119,"[{""rating"":49.313100179036454,""responseTime"":2.6119000000021515}]",space,2.8334,,527.325,All the time,100,527.3283,,,[],,0,14,14,14,1,audio/Narrative8Situation5.wav,audio/Narrative7Situation5.wav,audio/Narrative6Situation5.wav,audio/Narrative5Situation5.wav,2,5,2,5,,,,,,,,,,,,,,,,,,,,,,,,,,,,,,,,,,,,,,,
,,,,,,65fc6ca12b8b3852fbea77f1,2024-05-13_11h35.07.311,group3.1-3.2-social-tom,2023.2.2,MacIntel,29.94011976,65c5074098b851296ff0b7ed,664232faca0532c64a7eb6e2,,,,,,,,,,,,,,,,,,,,,,,,,,,,,527.3287,1,audio/Narrative7Situation6.wav,530.3587,,530.3587,540.3936,"[[50.4,9601],[51.2,9668],[51.8,9734],[69.3,10001]]",1,0,540.3936,542.2603,99.91878933,1.0561,"[{""rating"":99.91878933376736,""responseTime"":1.0560999999977412}]",space,1.3187,,542.2603,Not at all,0,542.2679,,,[],,0,15,15,15,1,audio/Narrative8Situation6.wav,audio/Narrative7Situation6.wav,audio/Narrative6Situation6.wav,audio/Narrative5Situation6.wav,2,3,2,3,,,,,,,,,,,,,,,,,,,,,,,,,,,,,,,,,,,,,,,
,,,,,,65fc6ca12b8b3852fbea77f1,2024-05-13_11h35.07.311,group3.1-3.2-social-tom,2023.2.2,MacIntel,29.94011976,65c5074098b851296ff0b7ed,664232faca0532c64a7eb6e2,,,,,,,,,,,,,,,,,,,,,,,,,,,,,542.2683,1,audio/Narrative7Situation7.wav,547.294,,547.294,564.5285,"[[999,12],[999,66],[999,133],[999,199],[999,266],[999,332],[999,399],[999,466],[999,533],[999,599],[999,665],[999,733],[999,799],[999,866],[999,933],[999,999],[999,1065],[999,1133],[999,1199],[999,1266],[999,1332],[999,1399],[999,1465],[999,1532],[999,1599],[999,1666],[999,1732],[999,1799],[999,1865],[999,1933],[999,2000],[999,2066],[999,2133],[999,2200],[999,2266],[999,2333],[999,2399],[999,2466],[999,2533],[999,2599],[999,2667],[999,2733],[999,2800],[999,2866],[999,2932],[999,2999],[999,3066],[999,3133],[999,3200],[999,3266],[999,3332],[999,3399],[999,3465],[999,3532],[999,3599],[999,3665],[999,3733],[999,3799],[999,3866],[999,3932],[999,4000],[999,4066],[999,4133],[999,4200],[999,4266],[999,4333],[999,4400],[999,4465],[999,4533],[999,4600],[999,4667],[999,4733],[999,4800],[999,4867],[999,4933],[999,5000],[999,5066],[999,5132],[999,5200],[999,5266],[999,5332],[999,5400],[999,5465],[999,5532],[999,5599],[999,5665],[999,5732],[999,5800],[999,5865],[999,5932],[999,5999],[999,6067],[999,6133],[999,6200],[999,6266],[999,6332],[999,6400],[999,6466],[999,6533],[999,6599],[999,6667],[999,6734],[999,6800],[999,6866],[999,6932],[999,6999],[999,7067],[999,7132],[999,7200],[999,7266],[999,7333],[999,7400],[999,7466],[999,7533],[999,7599],[999,7666],[999,7732],[999,7799],[999,7865],[999,7932],[999,7999],[999,8066],[999,8133],[999,8200],[999,8266],[999,8332],[999,8400],[999,8466],[999,8533],[999,8600],[999,8667],[999,8733],[999,8800],[999,8867],[999,8933],[999,8999],[999,9067],[999,9133],[999,9199],[999,9265],[999,9333],[999,9400],[999,9466],[999,9533],[999,9600],[999,9667],[999,9732],[999,9800],[999,9867],[999,9933],[999,10000],[999,10066],[999,10132],[999,10200],[999,10266],[999,10332],[999,10399],[999,10466],[999,10533],[999,10600],[999,10666],[999,10733],[999,10800],[999,10867],[999,10933],[999,11000],[999,11067],[999,11133],[999,11200],[999,11267],[999,11333],[999,11399],[999,11467],[999,11533],[999,11600],[999,11667],[999,11733],[999,11800],[999,11867],[999,11933],[999,12000],[999,12067],[999,12134],[999,12200],[999,12266],[999,12333],[999,12399],[999,12466],[999,12533],[999,12599],[999,12666],[999,12733],[999,12800],[999,12866],[999,12934],[999,13000],[999,13067],[999,13133],[999,13200],[999,13267],[999,13334],[999,13400],[999,13467],[999,13534],[999,13600],[999,13667],[999,13734],[999,13801],[999,13867],[999,13934],[999,14000],[999,14067],[999,14134],[999,14200],[999,14267],[999,14333],[999,14400],[999,14466],[999,14533],[999,14599],[999,14666],[999,14733],[999,14799],[999,14866],[999,14933],[999,15000],[999,15067],[999,15134],[999,15200],[999,15267],[999,15333],[999,15401],[999,15467],[999,15534],[999,15601],[999,15668],[999,15734],[999,15801],[999,15867],[999,15934],[999,16000],[999,16067],[999,16134],[999,16200],[999,16267],[999,16334],[999,16400],[999,16467],[999,16533],[999,16600],[999,16667],[999,16734],[999,16800],[999,16867],[999,16933],[999,17000],[999,17067],[999,17133],[999,17200]]",1,0,564.5287,567.1285,37.34340244,2.008,"[{""rating"":37.34340243869357,""responseTime"":2.008000000000038}]",space,2.0392,,567.1285,Not at all,0,567.1316,,,[],,0,16,16,16,1,audio/Narrative8Situation7.wav,audio/Narrative7Situation7.wav,audio/Narrative6Situation7.wav,audio/Narrative5Situation7.wav,3,5,5,4,,,,,,,,,,,,,,,,,,,,,,,,,,,,,,,,,,,,,,,
,,,,,,65fc6ca12b8b3852fbea77f1,2024-05-13_11h35.07.311,group3.1-3.2-social-tom,2023.2.2,MacIntel,29.94011976,65c5074098b851296ff0b7ed,664232faca0532c64a7eb6e2,,,,,,,,,,,,,,,,,,,,,,,,,,,,,567.132,1,audio/Narrative7Situation8.wav,569.1618,,569.1619,579.229,[],1,0,579.2292,580.9631,99.97729831,1.2948,"[{""rating"":99.97729831271701,""responseTime"":1.294800000000805}]",space,1.1778,,580.9631,Half the time,50,580.9686,,,[],,0,17,17,17,1,audio/Narrative8Situation8.wav,audio/Narrative7Situation8.wav,audio/Narrative6Situation8.wav,audio/Narrative5Situation8.wav,3,2,5,3,,,,,,,,,,,,,,,,,,,,,,,,,,,,,,,,,,,,,,,
,,,,,,65fc6ca12b8b3852fbea77f1,2024-05-13_11h35.07.311,group3.1-3.2-social-tom,2023.2.2,MacIntel,29.94011976,65c5074098b851296ff0b7ed,664232faca0532c64a7eb6e2,,,,,,,,,,,,,,,,,,,,,,,,,,,,,580.9688,1,audio/Narrative7Situation9.wav,582.9963,,582.9963,591.6475,"[[99.5,8451]]",1,0,591.6476,593.8804,99.15005154,1.5217,"[{""rating"":99.15005154079861,""responseTime"":1.521699999999214}]",space,1.6394,,593.8805,Half the time,50,593.884,,,[],,0,18,18,18,1,audio/Narrative8Situation9.wav,audio/Narrative7Situation9.wav,audio/Narrative6Situation9.wav,audio/Narrative5Situation9.wav,3,2,4,3,,,,,,,,,,,,,,,,,,,,,,,,,,,,,,,,,,,,,,,
,,,,,,65fc6ca12b8b3852fbea77f1,2024-05-13_11h35.07.311,group3.1-3.2-social-tom,2023.2.2,MacIntel,29.94011976,65c5074098b851296ff0b7ed,664232faca0532c64a7eb6e2,,,,,,,,,,,,,,,,,,,,,,,,,,,601.426,603.9805,603.9986,2,audio/Narrative13Situation2.wav,603.9989,,603.999,633.7828,"[[100,29449],[100,29517],[100,29583],[98.2,29649],[96.6,29717],[96.6,29783]]",1,0,633.7831,633.786,,,[],,,,633.786,Half the time,50,633.7874,,,[],,0,0,0,0,1,audio/Narrative13Situation2.wav,audio/Narrative13Situation2.wav,audio/Narrative13Situation2.wav,audio/Narrative13Situation2.wav,2,2,2,2,,,,,593.885,601.4151,space,6.9864,,,,,,,,,,,,,,,,,,,,,,,,,,,,,,,
,,,,,,65fc6ca12b8b3852fbea77f1,2024-05-13_11h35.07.311,group3.1-3.2-social-tom,2023.2.2,MacIntel,29.94011976,65c5074098b851296ff0b7ed,664232faca0532c64a7eb6e2,,,,,,,,,,,,,,,,,,,,,,,,,,,,,633.7877,2,audio/Narrative6Situation1.wav,635.817,,635.8171,662.4642,[],1,0,662.4644,668.1463,98.82620917,4.4778,"[{""rating"":98.82620917426215,""responseTime"":4.477800000000684}]",space,5.1534,,668.1464,Not at all,0,668.1516,,,[],,0,1,1,1,1,audio/Narrative7Situation1.wav,audio/Narrative8Situation1.wav,audio/Narrative5Situation1.wav,audio/Narrative6Situation1.wav,2,5,5,2,,,,,,,,,,,,,,,,,,,,,,,,,,,,,,,,,,,,,,,
,,,,,,65fc6ca12b8b3852fbea77f1,2024-05-13_11h35.07.311,group3.1-3.2-social-tom,2023.2.2,MacIntel,29.94011976,65c5074098b851296ff0b7ed,664232faca0532c64a7eb6e2,,,,,,,,,,,,,,,,,,,,,,,,,,,,,668.1518,2,audio/Narrative6Situation2.wav,671.1622,,671.1622,699.665,"[[999,10],[999,33],[999,66],[999,99],[999,132],[999,166],[999,199],[999,233],[999,265],[999,300],[999,333],[999,366],[999,399],[999,433],[999,466],[999,499],[999,532],[999,566],[999,599],[999,633],[999,666],[999,699],[999,732],[999,766],[999,800],[999,833],[999,866],[999,900],[999,933],[999,966],[999,999],[999,1033],[999,1066],[999,1099],[999,1132],[999,1165],[999,1200],[999,1233],[999,1266],[999,1299],[999,1333],[999,1366],[999,1400],[999,1432],[999,1466],[999,1500],[999,1533],[999,1566],[999,1600],[999,1633],[999,1666],[999,1699],[999,1733],[999,1765],[999,1799],[999,1833],[999,1866],[999,1899],[999,1933],[999,1966],[999,2000],[999,2032],[999,2066],[999,2100],[999,2133],[999,2166],[999,2199],[999,2233],[999,2267],[999,2300],[999,2332],[999,2367],[999,2399],[999,2432],[999,2466],[999,2500],[999,2532],[999,2566],[999,2599],[999,2633],[999,2666],[999,2700],[999,2733],[999,2767],[999,2799],[999,2834],[999,2866],[999,2900],[999,2932],[999,2966],[999,3000],[999,3033],[999,3066],[999,3100],[999,3133],[999,3167],[999,3199],[999,3232],[999,3267],[999,3300],[999,3333],[999,3366],[999,3400],[999,3432],[999,3466],[999,3499],[999,3533],[999,3565],[999,3599],[999,3632],[999,3666],[999,3699],[999,3732],[999,3766],[999,3800],[999,3832],[999,3865],[999,3900],[999,3933],[999,3965],[999,4000],[999,4033],[999,4066],[999,4099],[999,4133],[999,4166],[999,4199],[999,4233],[999,4265],[999,4300],[999,4333],[999,4366],[999,4399],[999,4433],[999,4465],[999,4500],[999,4532],[999,4566],[999,4599],[999,4633],[999,4666],[999,4698],[999,4732],[999,4766],[999,4800],[999,4833],[999,4865],[999,4900],[999,4933],[999,4966],[999,4999],[999,5032],[999,5066],[999,5100],[999,5133],[999,5165],[999,5200],[999,5233],[999,5266],[999,5299],[999,5332],[999,5365],[999,5399],[999,5432],[999,5466],[999,5499],[999,5533],[999,5566],[999,5600],[999,5632],[999,5666],[999,5699],[999,5733],[999,5765],[999,5800],[999,5833],[999,5866],[999,5899],[999,5933],[999,5965],[999,5999],[999,6032],[999,6066],[999,6099],[999,6133],[999,6166],[999,6200],[999,6233],[999,6266],[999,6299],[999,6332],[999,6367],[999,6400],[999,6433],[999,6466],[999,6500],[999,6533],[999,6566],[999,6599],[999,6633],[999,6665],[999,6700],[999,6732],[999,6766],[999,6799],[999,6833],[999,6866],[999,6900],[999,6932],[999,6966],[999,7000],[999,7032],[999,7066],[999,7100],[999,7133],[999,7166],[999,7199],[999,7233],[999,7266],[999,7300],[999,7333],[999,7365],[999,7400],[999,7433],[999,7466],[999,7499],[999,7533],[999,7565],[999,7599],[999,7632],[999,7667],[999,7699],[999,7733],[999,7766],[999,7800],[999,7832],[999,7866],[999,7899],[999,7933],[999,7965],[999,8000],[999,8033],[999,8067],[999,8099],[999,8133],[999,8166],[999,8200],[999,8232],[999,8267],[999,8300],[999,8332],[999,8366],[999,8400],[999,8433],[999,8466],[999,8499],[999,8532],[999,8567],[999,8599],[999,8633],[999,8666],[999,8700],[999,8732],[999,8766],[999,8799],[999,8833],[999,8865],[999,8899],[999,8932],[999,8966],[999,8999],[999,9033],[999,9066],[999,9100],[999,9132],[999,9166],[999,9199],[999,9250],[999,9267],[999,9300],[999,9333],[999,9366],[999,9399],[999,9435],[999,9467],[999,9500],[999,9533],[999,9566],[999,9600],[999,9632],[999,9666],[999,9699],[999,9734],[999,9765],[999,9800],[999,9833],[999,9868],[999,9899],[999,9933],[999,9966],[999,10000],[999,10032],[999,10067],[999,10100],[999,10133],[999,10166],[999,10200],[999,10234],[999,10267],[999,10299],[999,10333],[999,10367],[999,10400],[999,10433],[999,10466],[999,10500],[999,10533],[999,10566],[999,10600],[999,10634],[999,10667],[999,10700],[999,10732],[999,10767],[999,10799],[999,10833],[999,10866],[999,10900],[999,10932],[999,10966],[999,10999],[999,11034],[999,11066],[999,11100],[999,11133],[999,11167],[999,11199],[999,11234],[999,11266],[999,11299],[999,11332],[999,11367],[999,11400],[999,11433],[999,11466],[999,11500],[999,11533],[999,11567],[999,11600],[999,11633],[999,11667],[999,11700],[999,11734],[999,11766],[999,11799],[999,11834],[999,11867],[999,11900],[999,11934],[999,11967],[999,12000],[999,12032],[999,12067],[999,12099],[999,12133],[999,12166],[999,12203],[999,12232],[999,12267],[999,12300],[999,12334],[999,12366],[999,12400],[999,12434],[999,12467],[999,12499],[999,12534],[999,12567],[999,12600],[999,12633],[999,12667],[999,12700],[999,12733],[999,12766],[999,12800],[999,12833],[999,12868],[999,12900],[999,12933],[999,12967],[999,13000],[999,13033],[999,13065],[999,13101],[999,13134],[999,13167],[999,13200],[999,13234],[999,13266],[999,13300],[999,13333],[999,13367],[999,13399],[999,13434],[999,13466],[999,13500],[999,13533],[999,13567],[999,13600],[999,13634],[999,13666],[999,13700],[999,13734],[999,13767],[999,13800],[999,13833],[999,13867],[999,13900],[999,13932],[999,13967],[999,14001],[999,14033],[999,14066],[999,14099],[999,14133],[999,14167],[999,14200],[999,14233],[999,14267],[999,14299],[999,14334],[999,14366],[999,14400],[999,14432],[999,14466],[999,14500],[999,14534],[999,14566],[999,14600],[999,14633],[999,14667],[999,14699],[999,14733],[999,14767],[999,14800],[999,14833],[999,14867],[999,14900],[999,14933],[999,14966],[999,14999],[999,15034],[999,15067],[999,15100],[999,15133],[999,15167],[999,15200],[999,15233],[999,15267],[999,15301],[999,15333],[999,15367],[999,15400],[999,15434],[999,15466],[999,15500],[999,15533],[999,15567],[999,15600],[999,15634],[999,15667],[999,15700],[999,15733],[999,15767],[999,15800],[999,15833],[999,15866],[999,15900],[999,15933],[999,15967],[999,16000],[999,16033],[999,16067],[999,16100],[999,16134],[999,16167],[999,16201],[999,16233],[999,16266],[999,16300],[999,16335],[999,16367],[999,16399],[999,16432],[999,16467],[999,16499],[999,16534],[999,16566],[999,16601],[999,16633],[999,16667],[999,16700],[999,16734],[999,16766],[999,16800],[999,16832],[999,16868],[999,16899],[999,16934],[999,16967],[999,17000],[999,17033],[999,17067],[999,17100],[999,17134],[999,17166],[999,17200],[999,17234],[999,17267],[999,17300],[999,17333],[999,17367],[999,17399],[999,17434],[999,17466],[999,17500],[999,17533],[999,17566],[999,17599],[999,17634],[999,17666],[999,17700],[999,17733],[999,17768],[999,17799],[999,17834],[999,17866],[999,17900],[999,17933],[999,17966],[999,18001],[999,18034],[999,18066],[999,18101],[999,18134],[999,18167],[999,18200],[999,18234],[999,18268],[999,18300],[999,18334],[999,18366],[999,18401],[999,18434],[999,18468],[999,18500],[999,18534],[999,18567],[999,18601],[999,18632],[999,18667],[999,18699],[999,18735],[999,18767],[999,18799],[999,18834],[999,18867],[999,18900],[999,18935],[999,18966],[999,19001],[999,19033],[999,19067],[999,19100],[999,19134],[999,19167],[999,19202],[999,19234],[999,19267],[999,19301],[999,19334],[999,19367],[999,19400],[999,19434],[999,19467],[999,19500],[999,19534],[999,19567],[999,19601],[999,19636],[999,19666],[999,19701],[999,19734],[999,19768],[999,19800],[999,19834],[999,19866],[999,19901],[999,19934],[999,19968],[999,19999],[999,20034],[999,20067],[999,20100],[999,20133],[999,20167],[999,20200],[999,20233],[999,20267],[999,20301],[999,20334],[999,20367],[999,20400],[999,20434],[999,20466],[999,20500],[999,20533],[999,20567],[999,20601],[999,20634],[999,20667],[999,20700],[999,20734],[999,20767],[999,20800],[999,20833],[999,20867],[999,20901],[999,20934],[999,20967],[999,21000],[999,21033],[999,21067],[999,21100],[999,21135],[999,21166],[999,21201],[999,21234],[999,21268],[999,21300],[999,21335],[999,21368],[999,21400],[999,21434],[999,21467],[999,21501],[999,21534],[999,21567],[999,21601],[999,21634],[999,21667],[999,21700],[999,21734],[999,21768],[999,21800],[999,21834],[999,21867],[999,21901],[999,21934],[999,21968],[999,22000],[999,22035],[999,22067],[999,22101],[999,22134],[999,22168],[999,22199],[999,22234],[999,22267],[999,22301],[999,22333],[999,22367],[999,22401],[999,22434],[999,22466],[999,22502],[999,22534],[999,22567],[999,22600],[999,22634],[999,22668],[999,22701],[999,22735],[999,22767],[999,22801],[999,22834],[999,22867],[999,22901],[999,22934],[999,22967],[999,23000],[999,23034],[999,23068],[999,23101],[999,23134],[999,23166],[999,23201],[999,23233],[999,23268],[999,23300],[999,23334],[999,23366],[999,23401],[999,23434],[999,23468],[999,23500],[999,23535],[999,23567],[999,23601],[999,23633],[999,23668],[999,23701],[999,23734],[999,23767],[999,23801],[999,23834],[999,23867],[999,23900],[999,23934],[999,23967],[999,24001],[999,24034],[999,24066],[999,24101],[999,24134],[999,24167],[999,24200],[999,24234],[999,24266],[999,24301],[999,24333],[999,24368],[999,24400],[999,24434],[999,24466],[999,24501],[999,24533],[999,24568],[999,24600],[999,24634],[999,24667],[999,24701],[999,24734],[999,24768],[999,24800],[999,24835],[999,24868],[999,24900],[999,24933],[999,24966],[999,25002],[999,25034],[999,25067],[999,25100],[999,25134],[999,25167],[999,25201],[999,25234],[999,25268],[999,25301],[999,25335],[999,25366],[999,25402],[999,25433],[999,25467],[999,25500],[999,25535],[999,25566],[999,25601],[999,25634],[999,25668],[999,25700],[999,25734],[999,25768],[999,25801],[999,25833],[999,25868],[999,25901],[999,25934],[999,25967],[999,26001],[999,26035],[999,26067],[999,26100],[999,26134],[999,26167],[999,26201],[999,26234],[999,26267],[999,26301],[999,26334],[999,26367],[999,26401],[999,26434],[999,26467],[999,26500],[999,26533],[999,26566],[999,26600],[999,26634],[999,26667],[999,26700],[999,26734],[999,26768],[999,26801],[999,26835],[999,26867],[999,26901],[999,26934],[999,26967],[999,27000],[999,27035],[999,27068],[999,27101],[999,27134],[999,27167],[999,27202],[999,27234],[999,27267],[999,27300],[999,27335],[999,27368],[999,27402],[999,27434],[999,27468],[999,27500],[999,27534],[999,27568],[999,27600],[999,27634],[999,27668],[999,27701],[999,27735],[999,27767],[999,27801],[999,27835],[999,27868],[999,27900],[999,27935],[999,27968],[999,28001],[999,28033],[999,28068],[999,28101],[999,28133],[999,28169],[999,28200],[999,28235],[999,28269],[69.1,28302],[67.8,28336],[67.1,28369],[66.9,28401],[66.9,28434],[67.3,28466],[67.5,28502]]",1,0,699.6653,702.9806,70.53916931,2.5619,"[{""rating"":70.53916931152344,""responseTime"":2.5618999999984453}]",space,2.7706,,702.9808,Not at all,0,702.9835,,,[],,0,2,2,2,1,audio/Narrative7Situation2.wav,audio/Narrative8Situation2.wav,audio/Narrative5Situation2.wav,audio/Narrative6Situation2.wav,3,3,3,3,,,,,,,,,,,,,,,,,,,,,,,,,,,,,,,,,,,,,,,
,,,,,,65fc6ca12b8b3852fbea77f1,2024-05-13_11h35.07.311,group3.1-3.2-social-tom,2023.2.2,MacIntel,29.94011976,65c5074098b851296ff0b7ed,664232faca0532c64a7eb6e2,,,,,,,,,,,,,,,,,,,,,,,,,,,,,702.9838,2,audio/Narrative6Situation3.wav,707.9965,,707.9966,720.6165,[],1,0,720.6166,722.9479,99.87625122,1.5326,"[{""rating"":99.87625122070312,""responseTime"":1.5326000000015938}]",space,1.7894,,722.948,Half the time,50,722.9537,,,[],,0,3,3,3,1,audio/Narrative7Situation3.wav,audio/Narrative8Situation3.wav,audio/Narrative5Situation3.wav,audio/Narrative6Situation3.wav,8,4,3,5,,,,,,,,,,,,,,,,,,,,,,,,,,,,,,,,,,,,,,,
,,,,,,65fc6ca12b8b3852fbea77f1,2024-05-13_11h35.07.311,group3.1-3.2-social-tom,2023.2.2,MacIntel,29.94011976,65c5074098b851296ff0b7ed,664232faca0532c64a7eb6e2,,,,,,,,,,,,,,,,,,,,,,,,,,,,,722.954,2,audio/Narrative6Situation4.wav,724.9652,,724.9653,737.5665,"[[999,0],[999,33],[999,66],[999,99],[999,133],[999,167],[999,199],[999,233],[999,266],[999,300],[999,333],[999,366],[999,400],[999,433],[999,467],[999,499],[999,533],[999,566],[999,600],[999,632],[999,667],[999,699],[999,734],[999,766],[999,800],[999,833],[999,867],[999,899],[999,933],[999,965],[999,1000],[999,1032],[999,1067],[999,1100],[999,1133],[999,1165],[999,1200],[999,1233],[999,1266],[999,1299],[999,1333],[999,1366],[999,1399],[999,1433],[999,1466],[999,1500],[999,1533],[999,1566],[999,1598],[999,1633],[999,1666],[999,1699],[999,1731],[999,1766],[999,1798],[999,1833],[999,1865],[999,1901],[999,1932],[999,1966],[999,1999],[999,2034],[999,2065],[999,2100],[999,2132],[999,2166],[999,2199],[999,2233],[999,2266],[999,2300],[999,2332],[999,2366],[999,2400],[999,2433],[999,2467],[999,2500],[999,2533],[999,2566],[999,2600],[999,2633],[999,2667],[999,2700],[999,2733],[999,2766],[999,2800],[999,2833],[999,2866],[999,2899],[999,2932],[999,2965],[999,3000],[999,3032],[999,3067],[999,3099],[999,3132],[999,3165],[999,3200],[999,3232],[999,3267],[999,3300],[999,3333],[999,3365],[999,3400],[999,3433],[999,3467],[999,3499],[999,3533],[999,3566],[999,3600],[999,3633],[999,3666],[999,3700],[999,3733],[999,3766],[999,3800],[999,3833],[999,3866],[999,3900],[999,3933],[999,3967],[999,4000],[999,4033],[999,4066],[999,4100],[999,4132],[999,4166],[999,4199],[999,4232],[999,4265],[999,4299],[999,4332],[999,4366],[999,4399],[999,4433],[999,4466],[999,4499],[999,4532],[999,4567],[999,4600],[999,4634],[999,4666],[999,4700],[999,4733],[999,4766],[999,4799],[999,4833],[999,4867],[999,4901],[999,4933],[999,4965],[999,5001],[999,5033],[999,5067],[999,5100],[999,5134],[999,5165],[999,5200],[999,5232],[999,5267],[999,5299],[999,5333],[999,5366],[999,5400],[999,5432],[999,5467],[999,5499],[999,5533],[999,5566],[999,5600],[999,5633],[999,5665],[999,5699],[999,5734],[999,5766],[999,5800],[999,5833],[999,5867],[999,5899],[999,5933],[999,5965],[999,6000],[999,6033],[999,6067],[999,6099],[999,6133],[999,6167],[999,6200],[999,6233],[999,6267],[999,6301],[999,6333],[999,6366],[999,6399],[999,6434],[999,6465],[999,6500],[999,6533],[999,6566],[999,6599],[999,6634],[999,6671],[999,6701],[999,6732],[999,6767],[999,6800],[999,6833],[999,6866],[999,6900],[999,6933],[999,6967],[999,6999],[999,7033],[999,7067],[999,7100],[999,7133],[999,7167],[999,7199],[999,7234],[999,7266],[999,7299],[999,7334],[999,7366],[999,7400],[999,7433],[999,7467],[999,7499],[999,7533],[999,7567],[999,7599],[999,7632],[999,7667],[999,7700],[999,7732],[999,7766],[999,7801],[999,7833],[999,7867],[999,7900],[999,7933],[999,7966],[999,8000],[999,8033],[999,8066],[999,8100],[999,8132],[999,8166],[999,8200],[999,8235],[999,8267],[999,8301],[999,8332],[999,8367],[999,8400],[999,8433],[999,8467],[999,8500],[999,8532],[999,8567],[999,8600],[999,8633],[999,8666],[999,8700],[999,8733],[999,8766],[999,8799],[999,8834],[999,8866],[999,8900],[999,8933],[999,8967],[999,9000],[999,9034],[999,9066],[999,9101],[999,9133],[999,9166],[999,9200],[999,9233],[999,9268],[999,9300],[999,9333],[999,9367],[999,9401],[999,9433],[999,9466],[999,9500],[999,9534],[999,9567],[999,9599],[999,9632],[999,9668],[999,9699],[999,9734],[999,9766],[999,9800],[999,9832],[999,9867],[999,9900],[999,9934],[999,9966],[999,10000],[999,10034],[999,10066],[999,10099],[999,10134],[999,10167],[999,10200],[999,10233],[999,10267],[999,10301],[999,10333],[999,10366],[999,10400],[999,10434],[999,10467],[999,10500],[999,10533],[999,10567],[999,10600],[999,10633],[999,10666],[999,10701],[999,10734],[999,10767],[999,10799],[999,10834],[999,10866],[999,10901],[999,10933],[999,10967],[999,10999],[999,11034],[999,11067],[999,11101],[999,11133],[999,11168],[999,11200],[999,11234],[999,11266],[999,11301],[999,11334],[999,11367],[999,11400],[999,11433],[999,11467],[999,11500],[999,11533],[999,11567],[999,11600],[999,11634],[999,11667],[999,11700],[999,11733],[999,11767],[999,11800],[999,11833],[999,11867],[999,11900],[999,11933],[999,11966],[999,12001],[999,12033],[999,12067],[999,12100],[999,12132],[999,12166],[999,12201],[999,12233],[999,12268],[999,12299],[999,12334],[999,12367],[999,12400],[999,12433],[999,12468],[999,12501],[999,12534],[999,12566],[999,12600]]",1,0,737.5667,741.5164,99.88223606,3.1815,"[{""rating"":99.88223605685764,""responseTime"":3.1814999999999145}]",space,3.4084,,741.5165,Half the time,50,741.5197,,,[],,0,4,4,4,1,audio/Narrative7Situation4.wav,audio/Narrative8Situation4.wav,audio/Narrative5Situation4.wav,audio/Narrative6Situation4.wav,3,3,1,2,,,,,,,,,,,,,,,,,,,,,,,,,,,,,,,,,,,,,,,
,,,,,,65fc6ca12b8b3852fbea77f1,2024-05-13_11h35.07.311,group3.1-3.2-social-tom,2023.2.2,MacIntel,29.94011976,65c5074098b851296ff0b7ed,664232faca0532c64a7eb6e2,,,,,,,,,,,,,,,,,,,,,,,,,,,,,741.52,2,audio/Narrative6Situation5.wav,743.5327,,743.5327,751.5173,[],1,0,751.5174,754.3841,99.6506585,2.4658,"[{""rating"":99.65065850151909,""responseTime"":2.4658000000007405}]",space,2.3174,,754.3842,All the time,100,754.3903,,,[],,0,5,5,5,1,audio/Narrative7Situation5.wav,audio/Narrative8Situation5.wav,audio/Narrative5Situation5.wav,audio/Narrative6Situation5.wav,5,2,5,2,,,,,,,,,,,,,,,,,,,,,,,,,,,,,,,,,,,,,,,
,,,,,,65fc6ca12b8b3852fbea77f1,2024-05-13_11h35.07.311,group3.1-3.2-social-tom,2023.2.2,MacIntel,29.94011976,65c5074098b851296ff0b7ed,664232faca0532c64a7eb6e2,,,,,,,,,,,,,,,,,,,,,,,,,,,,,754.3909,2,audio/Narrative6Situation6.wav,756.4153,,756.4153,767.4847,"[[97.1,10619],[96,10653],[95.9,10685],[96.2,10718],[99.4,10753],[100,10786],[100,11053]]",1,0,767.4848,769.202,98.29840766,1.0295,"[{""rating"":98.29840766059029,""responseTime"":1.0294999999999845}]",space,1.1885,,769.2021,All the time,100,769.2052,,,[],,0,6,6,6,1,audio/Narrative7Situation6.wav,audio/Narrative8Situation6.wav,audio/Narrative5Situation6.wav,audio/Narrative6Situation6.wav,3,2,3,2,,,,,,,,,,,,,,,,,,,,,,,,,,,,,,,,,,,,,,,
,,,,,,65fc6ca12b8b3852fbea77f1,2024-05-13_11h35.07.311,group3.1-3.2-social-tom,2023.2.2,MacIntel,29.94011976,65c5074098b851296ff0b7ed,664232faca0532c64a7eb6e2,,,,,,,,,,,,,,,,,,,,,,,,,,,,,769.2056,2,audio/Narrative6Situation7.wav,774.2178,,774.2178,799.0708,[],1,0,799.071,801.4206,99.15722317,2.0503,"[{""rating"":99.15722317165799,""responseTime"":2.050299999997037}]",space,1.8218,,801.4207,All the time,100,801.4238,,,[],,0,7,7,7,1,audio/Narrative7Situation7.wav,audio/Narrative8Situation7.wav,audio/Narrative5Situation7.wav,audio/Narrative6Situation7.wav,5,3,4,5,,,,,,,,,,,,,,,,,,,,,,,,,,,,,,,,,,,,,,,
,,,,,,65fc6ca12b8b3852fbea77f1,2024-05-13_11h35.07.311,group3.1-3.2-social-tom,2023.2.2,MacIntel,29.94011976,65c5074098b851296ff0b7ed,664232faca0532c64a7eb6e2,,,,,,,,,,,,,,,,,,,,,,,,,,,,,801.4242,2,audio/Narrative6Situation8.wav,806.4375,,806.4375,813.3061,"[[100,6768],[100,6800]]",1,0,813.3062,814.6722,99.50312297,0.9449,"[{""rating"":99.5031229654948,""responseTime"":0.9449000000022352}]",space,0.8241,,814.6723,Half the time,50,814.6819,,,[],,0,8,8,8,1,audio/Narrative7Situation8.wav,audio/Narrative8Situation8.wav,audio/Narrative5Situation8.wav,audio/Narrative6Situation8.wav,2,3,3,5,,,,,,,,,,,,,,,,,,,,,,,,,,,,,,,,,,,,,,,
,,,,,,65fc6ca12b8b3852fbea77f1,2024-05-13_11h35.07.311,group3.1-3.2-social-tom,2023.2.2,MacIntel,29.94011976,65c5074098b851296ff0b7ed,664232faca0532c64a7eb6e2,,,,,,,,,,,,,,,,,,,,,,,,,,,,,814.6822,2,audio/Narrative6Situation9.wav,818.6889,,818.689,828.6396,"[[100,9636]]",1,0,828.6396,830.4227,98.5744222,0.9957,"[{""rating"":98.57442220052084,""responseTime"":0.9956999999992604}]",space,1.2347,,830.4228,Not at all,0,830.4286,,,[],,0,9,9,9,1,audio/Narrative7Situation9.wav,audio/Narrative8Situation9.wav,audio/Narrative5Situation9.wav,audio/Narrative6Situation9.wav,2,3,3,4,,,,,,,,,,,,,,,,,,,,,,,,,,,,,,,,,,,,,,,
,,,,,,65fc6ca12b8b3852fbea77f1,2024-05-13_11h35.07.311,group3.1-3.2-social-tom,2023.2.2,MacIntel,29.94011976,65c5074098b851296ff0b7ed,664232faca0532c64a7eb6e2,,,,,,,,,,,,,,,,,,,,,,,,,,,,,830.4291,2,audio/Narrative5Situation1.wav,835.4394,,835.4395,848.7399,[],1,0,848.74,851.9727,38.6241489,2.2141,"[{""rating"":38.62414889865452,""responseTime"":2.2141000000015083}]",space,2.6846,,851.9727,Not at all,0,851.9745,,,[],,0,10,10,10,1,audio/Narrative8Situation1.wav,audio/Narrative7Situation1.wav,audio/Narrative6Situation1.wav,audio/Narrative5Situation1.wav,5,2,2,5,,,,,,,,,,,,,,,,,,,,,,,,,,,,,,,,,,,,,,,
,,,,,,65fc6ca12b8b3852fbea77f1,2024-05-13_11h35.07.311,group3.1-3.2-social-tom,2023.2.2,MacIntel,29.94011976,65c5074098b851296ff0b7ed,664232faca0532c64a7eb6e2,,,,,,,,,,,,,,,,,,,,,,,,,,,,,851.9747,2,audio/Narrative5Situation2.wav,854.9903,,854.9904,884.4597,"[[37,7866],[35.1,7900],[34.2,7933],[33.4,7967],[33.1,8000],[33.1,8033],[33,8066],[32.5,8100],[32.1,8133],[31.9,8167],[31.8,8200],[31.4,8234],[31,8267],[30.3,8300],[29.8,8333],[29.3,8366],[28.9,8400],[28.9,8433],[28.9,8467],[28.9,8500],[28.9,8534],[28.9,8569],[28.9,8600],[28.9,8634],[28.9,8666],[28.9,8700],[28.9,8733],[28.9,8767],[28.9,8799],[28.9,8833],[28.9,8866],[28.9,8899],[28.9,8933],[28.9,8967],[28.9,9000],[28.9,9034],[28.9,9066],[28.9,9099],[28.9,9133],[28.9,9166],[28.9,9200],[28.9,9234],[28.9,9267],[28.9,9300],[28.9,9334],[28.9,9367],[28.9,9400],[28.9,9433],[28.9,9467],[28.9,9500],[28.9,9533],[28.9,9566],[28.9,9600],[28.9,9633],[28.9,9667],[28.9,9700],[28.9,9734],[28.9,9767],[28.9,9799],[28.9,9833],[28.9,9866],[28.9,9899],[28.9,9933],[28.9,9966],[28.9,10000],[28.9,10033],[28.9,10066],[28.9,10100],[28.9,10133],[28.9,10166],[28.9,10199],[28.9,10233],[28.9,10267],[28.9,10300],[28.9,10333],[28.9,10367],[28.9,10399],[28.9,10434],[28.9,10466],[28.9,10500],[28.9,10533],[28.9,10567],[28.9,10600],[28.9,10638],[28.9,10666],[28.9,10701],[28.9,10733],[28.9,10767],[28.9,10800],[28.9,10833],[28.9,10866],[28.9,10900],[28.9,10933],[28.9,10966],[28.9,11000],[28.9,11033],[28.9,11067],[28.9,11100],[28.9,11134],[28.9,11166],[28.9,11201],[28.9,11233],[28.9,11267],[28.9,11300],[28.9,11334],[28.9,11367],[28.9,11401],[28.9,11434],[28.9,11467],[28.9,11500],[28.9,11534],[28.9,11567],[28.9,11601],[28.9,11634],[28.9,11667],[28.9,11700],[28.9,11734],[28.9,11766],[28.9,11800],[28.9,11834],[28.9,11868],[28.9,11900],[28.9,11933],[28.9,11967],[28.9,12001],[28.9,12033],[28.9,12067],[28.9,12100],[28.9,12134],[28.9,12167],[28.9,12200],[28.9,12233],[28.9,12267],[28.9,12300],[28.9,12334],[28.9,12367],[28.9,12399],[28.9,12434],[28.9,12467],[28.9,12500],[28.9,12533],[28.9,12567],[28.9,12600],[28.9,12634],[28.9,12667],[28.9,12700],[28.9,12733],[28.9,12768],[28.9,12801],[28.9,12834],[28.9,12866],[28.9,12900],[28.9,12933],[28.9,12967],[28.9,13000],[28.9,13034],[28.9,13066],[28.9,13100],[28.9,13133],[28.9,13167],[28.9,13200],[28.9,13233],[28.9,13266],[28.9,13300],[28.9,13333],[28.9,13367],[28.9,13401],[28.9,13434],[28.9,13466],[28.9,13501],[28.9,13534],[28.9,13568],[28.9,13600],[28.9,13633],[28.9,13667],[28.9,13701],[28.9,13734],[28.9,13767],[28.9,13801],[28.9,13834],[28.9,13867],[28.9,13900],[28.9,13934],[28.9,13968],[28.9,14001],[28.9,14034],[28.9,14066],[28.9,14100],[28.9,14134],[28.9,14167],[28.9,14200],[28.9,14233],[28.9,14267],[28.9,14301],[28.9,14334],[28.9,14367],[28.9,14400],[28.9,14434],[28.9,14467],[28.9,14500],[28.9,14533],[28.9,14567],[28.9,14601],[28.9,14634],[28.9,14667],[28.9,14700],[28.9,14734],[28.9,14767],[28.9,14801],[28.9,14834],[28.9,14868],[28.9,14901],[28.9,14934],[28.9,14968],[28.9,15000],[28.9,15034],[28.9,15066],[28.9,15100],[28.9,15133],[28.9,15168],[28.9,15200],[28.9,15234],[28.9,15268],[28.9,15300],[28.9,15334],[28.9,15366],[28.9,15400],[28.9,15434],[28.9,15467],[28.9,15501],[28.9,15533],[28.9,15567],[28.9,15601],[28.9,15634],[28.9,15667],[28.9,15701],[28.9,15733],[28.9,15768],[28.9,15800],[28.9,15833],[28.9,15867],[28.9,15900],[28.9,15934],[28.9,15966],[28.9,16001],[28.9,16033],[28.9,16066],[28.9,16101],[28.9,16134],[28.9,16168],[28.9,16201],[28.9,16233],[28.9,16267],[28.9,16301],[28.9,16334],[28.9,16367],[28.9,16401],[28.9,16434],[28.9,16467],[28.9,16500],[28.9,16533],[28.9,16567],[28.9,16601],[28.9,16633],[28.9,16667],[28.9,16700],[28.9,16734],[28.9,16767],[28.9,16800],[28.9,16834],[28.9,16867],[28.9,16900],[28.9,16934],[28.9,16966],[28.9,17000],[28.9,17034],[28.9,17067],[28.9,17101],[28.9,17134],[28.9,17167],[28.9,17200],[28.9,17234],[28.9,17268],[28.9,17301],[28.9,17334],[28.9,17368],[28.9,17401],[28.9,17433],[28.9,17468],[28.9,17500],[28.9,17533],[28.9,17567],[28.9,17600],[28.9,17634],[28.9,17667],[28.9,17701],[28.9,17733],[28.9,17767],[28.9,17801],[28.9,17835],[28.9,17867],[28.9,17900],[28.9,17933],[28.9,17967],[28.9,18000],[28.9,18034],[28.9,18067],[28.9,18101],[28.9,18134],[28.9,18167],[28.9,18201],[28.9,18234],[28.9,18267],[28.9,18300],[28.9,18334],[28.9,18367],[28.9,18400],[28.9,18433],[28.9,18467],[28.9,18500],[28.9,18533],[28.9,18567],[28.9,18600],[28.9,18634],[28.9,18668],[28.9,18700],[28.9,18734],[28.9,18767],[28.9,18800],[28.9,18833],[28.9,18867],[28.9,18900],[28.9,18935],[28.9,18968],[28.9,19001],[28.9,19034],[28.9,19068],[28.9,19101],[28.9,19134],[28.9,19168],[28.9,19201],[28.9,19235],[28.9,19268],[28.9,19301],[28.9,19335],[28.9,19368],[28.9,19401],[28.9,19434],[28.9,19467],[28.9,19501],[28.9,19533],[28.9,19567],[28.9,19600],[28.9,19634],[28.9,19667],[28.9,19701],[28.9,19734],[28.9,19768],[28.9,19800],[28.9,19835],[28.9,19867],[28.9,19901],[28.9,19934],[28.9,19968],[28.9,20001],[28.9,20035],[28.9,20067],[28.9,20101],[28.9,20134],[28.9,20168],[28.9,20201],[28.9,20235],[28.9,20268],[28.9,20301],[28.9,20334],[28.9,20367],[28.9,20400],[28.9,20435],[28.9,20468],[28.9,20501],[28.9,20535],[28.9,20568],[28.9,20601],[28.9,20635],[28.9,20668],[28.9,20701],[28.9,20735],[28.9,20767],[28.9,20802],[28.9,20834],[28.9,20868],[28.9,20901],[28.9,20935],[28.9,20967],[28.9,21001],[28.9,21035],[28.9,21068],[28.9,21101],[28.9,21135],[28.9,21167],[28.9,21201],[28.9,21234],[28.9,21267],[28.9,21301],[28.9,21335],[28.9,21368],[28.9,21400],[28.9,21435],[28.9,21468],[28.9,21501],[28.9,21535],[28.9,21568],[28.9,21601],[28.9,21634],[28.9,21667],[28.9,21702],[28.9,21735],[28.9,21767],[28.9,21800],[28.9,21834],[28.9,21868],[28.9,21901],[28.9,21934],[28.9,21968],[28.9,22000],[28.9,22035],[28.9,22067],[28.9,22102],[28.9,22134],[28.9,22168],[28.9,22201],[28.9,22235],[28.9,22267],[28.9,22301],[28.9,22335],[28.9,22368],[28.9,22401],[28.9,22435],[28.9,22468],[28.9,22500],[28.9,22534],[28.9,22568],[28.9,22601],[28.9,22635],[28.9,22668],[28.9,22701],[28.9,22734],[28.9,22768],[28.9,22801],[28.9,22835],[28.9,22868],[28.9,22901],[28.9,22935],[28.9,22967],[28.9,23002],[28.9,23034],[28.9,23068],[28.9,23101],[28.9,23135],[28.9,23167],[28.9,23201],[28.9,23234],[28.9,23268],[28.9,23301],[28.9,23335],[28.9,23368],[28.9,23402],[28.9,23434],[28.9,23469],[28.9,23501],[28.9,23535],[28.9,23568],[28.9,23602],[28.9,23634],[28.9,23668],[28.9,23701],[28.9,23735],[28.9,23768],[28.9,23802],[28.9,23835],[28.9,23868],[28.9,23902],[28.9,23935],[28.9,23968],[28.9,24002],[28.9,24035],[28.9,24067],[28.9,24101],[28.9,24134],[28.9,24168],[28.9,24200],[28.9,24235],[28.9,24268],[28.9,24302],[28.9,24334],[28.9,24368],[28.9,24401],[28.9,24435],[28.9,24467],[28.9,24502],[28.9,24535],[28.9,24568],[28.9,24601],[28.9,24636],[28.9,24668],[28.9,24701],[28.9,24734],[28.9,24768],[28.9,24802],[28.9,24835],[28.9,24868],[28.9,24902],[28.9,24934],[28.9,24968],[28.9,25001],[28.9,25034],[28.9,25069],[28.9,25101],[28.9,25134],[28.9,25167],[28.9,25202],[28.9,25234],[28.9,25268],[28.9,25301],[28.9,25335],[28.9,25368],[28.9,25401],[28.9,25434],[28.9,25468],[28.9,25501],[28.9,25535],[28.9,25567],[28.9,25602],[28.9,25634],[28.9,25668],[28.9,25701],[28.9,25735],[28.9,25768],[28.9,25802],[28.9,25835],[28.9,25869],[28.9,25901],[28.9,25935],[28.9,25969],[28.9,26002],[28.9,26035],[28.9,26068],[28.9,26102],[28.9,26134],[28.9,26167],[28.9,26202],[28.9,26235],[28.9,26268],[28.9,26301],[28.9,26334],[28.9,26368],[28.9,26401],[28.9,26435],[28.9,26468],[28.9,26502],[28.9,26534],[28.9,26567],[28.9,26601],[28.9,26635],[28.9,26667],[28.9,26702],[28.9,26734],[28.9,26768],[28.9,26801],[28.9,26835],[28.9,26868],[28.9,26902],[28.9,26934],[28.9,26969],[28.9,27001],[28.9,27035],[28.9,27068],[28.9,27101],[28.9,27134],[28.9,27168],[28.9,27201],[28.9,27235],[28.9,27269],[28.9,27302],[28.9,27335],[28.9,27368],[28.9,27402],[28.9,27435],[28.9,27468],[28.9,27501],[28.9,27535],[28.9,27567],[28.9,27602],[28.9,27634],[28.9,27669],[28.9,27701],[28.9,27735],[28.9,27768],[28.9,27801],[28.9,27834],[28.9,27869],[28.9,27901],[28.9,27935],[28.9,27968],[28.9,28002],[28.9,28035],[28.9,28069],[28.9,28101],[28.9,28135],[28.9,28168],[28.9,28202],[28.9,28235],[28.9,28269],[28.9,28302],[28.9,28335],[28.9,28369],[28.9,28401],[28.9,28435],[28.9,28469],[28.9,28501],[28.9,28534],[28.9,28569],[28.9,28601],[28.9,28655],[28.9,28670],[28.9,28702],[28.9,28734],[28.9,28769],[28.9,28802],[28.9,28835],[28.9,28868],[28.9,28902],[28.9,28935],[28.9,28969],[28.9,29002],[28.9,29036],[28.9,29069],[28.9,29102],[28.9,29135],[28.9,29169],[28.9,29202],[29.5,29236]]",1,0,884.4599,889.392,54.96264988,4.5132,"[{""rating"":59.3365732828776,""responseTime"":3.463200000002985},{""rating"":54.96264987521702,""responseTime"":4.513200000003053}]",space,4.3902,,889.3921,All the time,100,889.3965,,,[],,0,11,11,11,1,audio/Narrative8Situation2.wav,audio/Narrative7Situation2.wav,audio/Narrative6Situation2.wav,audio/Narrative5Situation2.wav,3,3,3,3,,,,,,,,,,,,,,,,,,,,,,,,,,,,,,,,,,,,,,,
,,,,,,65fc6ca12b8b3852fbea77f1,2024-05-13_11h35.07.311,group3.1-3.2-social-tom,2023.2.2,MacIntel,29.94011976,65c5074098b851296ff0b7ed,664232faca0532c64a7eb6e2,,,,,,,,,,,,,,,,,,,,,,,,,,,,,889.3967,2,audio/Narrative5Situation3.wav,892.4094,,892.4095,906.3112,"[[53.9,13824],[53.7,13850],[53.8,13886]]",1,0,906.3114,908.2603,98.95224677,1.4125,"[{""rating"":98.95224677191841,""responseTime"":1.4125000000000227}]",space,1.4193,,908.2604,Half the time,50,908.2658,,,[],,0,12,12,12,1,audio/Narrative8Situation3.wav,audio/Narrative7Situation3.wav,audio/Narrative6Situation3.wav,audio/Narrative5Situation3.wav,4,8,5,3,,,,,,,,,,,,,,,,,,,,,,,,,,,,,,,,,,,,,,,
,,,,,,65fc6ca12b8b3852fbea77f1,2024-05-13_11h35.07.311,group3.1-3.2-social-tom,2023.2.2,MacIntel,29.94011976,65c5074098b851296ff0b7ed,664232faca0532c64a7eb6e2,,,,,,,,,,,,,,,,,,,,,,,,,,,,,908.2661,2,audio/Narrative5Situation4.wav,909.2789,,909.2789,929.6798,[],1,0,929.6799,938.4301,42.90882534,3.2131,"[{""rating"":42.90882534450955,""responseTime"":3.2130999999977803}]",space,8.2253,,938.4301,Half the time,50,938.4443,,,[],,0,13,13,13,1,audio/Narrative8Situation4.wav,audio/Narrative7Situation4.wav,audio/Narrative6Situation4.wav,audio/Narrative5Situation4.wav,3,3,2,1,,,,,,,,,,,,,,,,,,,,,,,,,,,,,,,,,,,,,,,
,,,,,,65fc6ca12b8b3852fbea77f1,2024-05-13_11h35.07.311,group3.1-3.2-social-tom,2023.2.2,MacIntel,29.94011976,65c5074098b851296ff0b7ed,664232faca0532c64a7eb6e2,,,,,,,,,,,,,,,,,,,,,,,,,,,,,938.4445,2,audio/Narrative5Situation5.wav,943.4469,,943.4471,958.8818,"[[999,14],[999,33],[999,66],[999,99],[999,133],[999,217],[999,250],[999,283],[999,316],[999,348],[999,382],[999,416],[999,449],[999,483],[999,516],[999,549],[999,583],[999,616],[999,649],[999,682],[999,716],[999,750],[999,782],[999,815],[999,850],[999,882],[999,916],[999,949],[999,983],[999,1015],[999,1049],[999,1082],[999,1116],[999,1148],[999,1182],[999,1216],[999,1250],[999,1282],[999,1316],[999,1349],[999,1383],[999,1415],[999,1450],[999,1483],[999,1516],[999,1549],[999,1582],[999,1616],[999,1649],[999,1682],[999,1716],[999,1750],[999,1783],[999,1815],[999,1849],[999,1883],[999,1916],[999,1949],[999,1982],[999,2016],[999,2048],[999,2082],[999,2115],[999,2150],[999,2182],[999,2216],[999,2249],[999,2283],[999,2315],[999,2349],[999,2383],[999,2416],[999,2449],[999,2483],[999,2516],[999,2549],[999,2582],[999,2616],[999,2649],[999,2683],[999,2715],[999,2749],[999,2782],[999,2816],[999,2850],[999,2883],[999,2916],[999,2950],[999,2982],[999,3015],[999,3049],[999,3082],[999,3120],[999,3150],[999,3183],[999,3215],[999,3250],[999,3282],[999,3316],[999,3349],[999,3383],[999,3416],[999,3449],[999,3482],[999,3516],[999,3549],[999,3582],[999,3615],[999,3649],[999,3682],[999,3716],[999,3749],[999,3783],[999,3816],[999,3850],[999,3883],[999,3916],[999,3950],[999,3983],[999,4016],[999,4049],[999,4083],[999,4116],[999,4149],[999,4183],[999,4216],[999,4248],[999,4282],[999,4315],[999,4350],[999,4382],[999,4416],[999,4449],[999,4483],[999,4515],[999,4550],[999,4583],[999,4616],[999,4649],[999,4683],[999,4716],[999,4749],[999,4782],[999,4816],[999,4850],[999,4883],[999,4915],[999,4950],[999,4983],[999,5016],[999,5049],[999,5082],[999,5117],[999,5150],[999,5183],[999,5215],[999,5250],[999,5282],[999,5316],[999,5349],[999,5383],[999,5415],[999,5450],[999,5482],[999,5517],[999,5549],[999,5583],[999,5616],[999,5650],[999,5682],[999,5716],[999,5750],[999,5783],[999,5816],[999,5850],[999,5883],[999,5917],[999,5949],[999,5983],[999,6016],[999,6050],[999,6083],[999,6116],[999,6150],[999,6182],[999,6215],[999,6250],[999,6283],[999,6316],[999,6350],[999,6382],[999,6417],[999,6449],[999,6483],[999,6516],[999,6550],[999,6582],[999,6616],[999,6649],[999,6683],[999,6716],[999,6750],[999,6783],[999,6817],[999,6849],[999,6883],[999,6916],[999,6950],[999,6982],[999,7016],[999,7050],[999,7083],[999,7116],[999,7150],[999,7186],[999,7216],[999,7250],[999,7283],[999,7317],[999,7350],[999,7383],[999,7417],[999,7451],[999,7483],[999,7517],[999,7549],[999,7584],[999,7615],[999,7650],[999,7682],[999,7717],[999,7749],[999,7783],[999,7816],[999,7850],[999,7883],[999,7917],[999,7949],[999,7985],[999,8016],[999,8049],[999,8083],[999,8117],[999,8150],[999,8183],[999,8217],[999,8250],[999,8283],[999,8317],[999,8351],[999,8384],[999,8416],[999,8450],[999,8485],[999,8517],[999,8550],[999,8582],[999,8617],[999,8649],[999,8683],[999,8716],[999,8751],[999,8782],[999,8816],[999,8850],[999,8884],[999,8916],[999,8949],[999,8983],[999,9017],[999,9049],[999,9084],[999,9116],[999,9150],[999,9183],[999,9217],[999,9250],[999,9284],[999,9317],[999,9350],[999,9383],[999,9417],[999,9450],[999,9483],[999,9517],[999,9550],[999,9583],[999,9616],[999,9651],[999,9683],[999,9717],[999,9749],[999,9783],[999,9816],[999,9851],[999,9882],[999,9917],[999,9949],[999,9984],[999,10017],[999,10050],[999,10083],[999,10116],[999,10150],[999,10183],[999,10216],[999,10251],[999,10284],[999,10316],[999,10350],[999,10383],[999,10417],[999,10450],[999,10483],[999,10517],[999,10551],[999,10584],[999,10617],[999,10650],[999,10684],[999,10717],[999,10750],[999,10783],[999,10817],[999,10850],[999,10884],[999,10916],[999,10951],[999,10983],[999,11016],[999,11049],[999,11084],[999,11116],[999,11150],[999,11184],[999,11218],[999,11249],[999,11284],[999,11316],[999,11350],[999,11383],[999,11417],[999,11451],[999,11484],[999,11516],[999,11550],[999,11584],[999,11617],[999,11650],[999,11683],[999,11718],[50.3,11756],[50.9,11784],[51.6,11817],[52,11852],[52.2,11883],[52.3,11917],[52.4,11951],[52.5,11985],[52.7,12017],[52.9,12052],[53.1,12085],[54.2,12117],[56.7,12150],[59.4,12183],[61.3,12217],[62.7,12251],[63.4,12283],[64,12317],[64.4,12350],[64.6,12384],[64.6,12416],[64.6,12451],[64.6,12484],[64.6,12517],[64.6,12549],[64.6,12584],[64.6,12617],[64.6,12650],[64.6,12683],[64.6,12717],[64.6,12750],[64.6,12784],[64.6,12817],[64.6,12850],[64.6,12884],[64.6,12917],[64.6,12950],[64.6,12984],[64.6,13017],[64.6,13051],[64.6,13083],[64.6,13116],[64.6,13151],[64.6,13182],[64.6,13217],[64.6,13251],[64.6,13284],[64.6,13316],[64.6,13350],[64.6,13384],[64.6,13418],[64.6,13449],[64.6,13484],[64.6,13517],[64.6,13551],[64.6,13583],[64.6,13617],[64.6,13650],[64.6,13684],[64.6,13716],[64.6,13751],[64.6,13784],[64.6,13817],[64.6,13850],[64.6,13884],[64.6,13917],[64.6,13950],[64.6,13983],[64.6,14017],[64.6,14051],[64.6,14084],[64.6,14117],[64.6,14149],[64.6,14187],[64.6,14217],[64.6,14250],[64.6,14283],[64.6,14318],[64.6,14349],[64.6,14384],[64.6,14416],[64.6,14449],[64.6,14483],[64.6,14517],[64.6,14551],[64.6,14584],[64.6,14617],[64.6,14651],[64.6,14684],[64.6,14717],[64.6,14750],[64.6,14784],[64.6,14817],[64.6,14851],[64.6,14883],[64.6,14916],[64.6,14951],[64.6,14984],[64.6,15017],[64.6,15051],[64.6,15085],[64.6,15116],[64.6,15150],[64.6,15184],[64.6,15217],[64.6,15250],[64.6,15283],[64.6,15317],[64.6,15351],[64.6,15383],[64.6,15418]]",1,0,958.882,963.1988,74.42785475,2.5461,"[{""rating"":74.42785474989148,""responseTime"":2.546100000001502}]",space,3.7849,,963.1989,All the time,100,963.2055,,,[],,0,14,14,14,1,audio/Narrative8Situation5.wav,audio/Narrative7Situation5.wav,audio/Narrative6Situation5.wav,audio/Narrative5Situation5.wav,2,5,2,5,,,,,,,,,,,,,,,,,,,,,,,,,,,,,,,,,,,,,,,
,,,,,,65fc6ca12b8b3852fbea77f1,2024-05-13_11h35.07.311,group3.1-3.2-social-tom,2023.2.2,MacIntel,29.94011976,65c5074098b851296ff0b7ed,664232faca0532c64a7eb6e2,,,,,,,,,,,,,,,,,,,,,,,,,,,,,963.2058,2,audio/Narrative5Situation6.wav,966.2142,,966.2142,971.8819,[],1,0,971.8821,974.55,87.60731167,1.9507,"[{""rating"":79.40432230631511,""responseTime"":1.084600000001501},{""rating"":87.60731167263455,""responseTime"":1.9506999999993013}]",space,2.1395,,974.55,Not at all,0,974.5551,,,[],,0,15,15,15,1,audio/Narrative8Situation6.wav,audio/Narrative7Situation6.wav,audio/Narrative6Situation6.wav,audio/Narrative5Situation6.wav,2,3,2,3,,,,,,,,,,,,,,,,,,,,,,,,,,,,,,,,,,,,,,,
,,,,,,65fc6ca12b8b3852fbea77f1,2024-05-13_11h35.07.311,group3.1-3.2-social-tom,2023.2.2,MacIntel,29.94011976,65c5074098b851296ff0b7ed,664232faca0532c64a7eb6e2,,,,,,,,,,,,,,,,,,,,,,,,,,,,,974.5554,2,audio/Narrative5Situation7.wav,978.5664,,978.5664,999.6018,"[[87.6,13901],[87.1,13939],[86.9,13967],[86.8,14001],[86.8,14033],[86.7,14077],[86.6,14101],[86.4,14133],[86.2,14168],[86,14201],[85.9,14234],[85.8,14267],[85.7,14300],[85.6,14333],[85.6,14367],[85.6,14400],[85.6,14433],[85.6,14466],[85.6,14501],[85.6,14534],[85.6,14567],[85.6,14600],[85.6,14633],[85.6,14667],[85.6,14700],[85.6,14734],[85.6,14767],[85.6,14801],[85.6,14834],[85.6,14867],[85.6,14899],[85.6,14933],[85.6,14967],[85.6,15000],[85.6,15034],[85.6,15066],[85.6,15100],[85.6,15133],[85.6,15167],[85.6,15200],[85.6,15233],[85.6,15267],[85.6,15300],[85.6,15333],[85.6,15366],[85.6,15399],[85.6,15433],[85.6,15470],[85.6,15500],[85.6,15534],[85.6,15567],[85.6,15600],[85.6,15633],[85.6,15668],[85.6,15701],[85.6,15734],[85.6,15767],[85.6,15800],[85.6,15834],[85.6,15867],[85.6,15900],[85.6,15933],[85.6,15968],[85.6,16000],[85.6,16033],[85.6,16067],[85.6,16101],[85.6,16134],[85.6,16167],[85.6,16200],[85.6,16234],[85.6,16266],[85.6,16300],[85.6,16333],[85.6,16367],[85.6,16399],[85.6,16433],[85.6,16466],[85.6,16501],[85.6,16533],[85.6,16567],[85.6,16600],[85.6,16634],[85.6,16666],[85.6,16700],[85.6,16734],[85.6,16767],[85.6,16800],[85.6,16834],[85.6,16868],[85.6,16900],[85.6,16933],[85.6,16967],[85.6,17000],[85.6,17033],[85.6,17067],[85.6,17101],[85.6,17137],[85.6,17167],[85.6,17201],[85.6,17234],[85.6,17266],[85.6,17299],[85.6,17334],[85.6,17366],[85.6,17401],[85.6,17433],[85.6,17468],[85.6,17500],[85.6,17534],[85.6,17566],[85.6,17600],[85.6,17633],[85.6,17667],[85.6,17700],[85.6,17734],[85.6,17767],[85.6,17801],[85.6,17833],[85.6,17868],[85.6,17901],[85.6,17934],[85.6,17966],[85.6,18001],[85.6,18034],[85.6,18067],[85.6,18100],[85.6,18134],[85.6,18167],[85.6,18201],[85.6,18234],[85.6,18267],[85.6,18300],[85.6,18334],[85.6,18367],[85.6,18400],[85.6,18435],[85.6,18467],[85.6,18500],[85.6,18533],[85.6,18568],[85.6,18599],[85.6,18634],[85.6,18667],[85.6,18700],[85.6,18733],[85.6,18768],[85.6,18800],[85.6,18835],[85.6,18866],[85.6,18901],[85.6,18934],[85.6,18968],[85.6,19000],[85.6,19034],[85.6,19068],[85.6,19101],[85.6,19134],[85.6,19168],[85.6,19201],[85.6,19234],[85.6,19266],[85.6,19299],[85.6,19333],[85.6,19367],[85.6,19400],[85.6,19434],[85.6,19467],[85.6,19500],[85.6,19534],[85.6,19566],[85.6,19601],[85.6,19633],[85.6,19668],[85.6,19700],[85.6,19734],[85.6,19766],[85.6,19801],[85.6,19834],[85.6,19867],[85.6,19900],[85.6,19934],[85.6,19966],[85.6,20001],[85.6,20033],[85.6,20068],[85.6,20100],[85.6,20134],[85.6,20167],[85.6,20201],[85.6,20234],[85.6,20267],[85.6,20300],[85.6,20333],[85.6,20368],[85.6,20401],[85.6,20434],[85.6,20467],[85.6,20501],[85.6,20534],[85.6,20567],[85.6,20601],[85.6,20633],[85.6,20668],[85.6,20702],[85.6,20734],[85.6,20768],[85.6,20799],[85.6,20834],[85.6,20867],[85.6,20901],[85.6,20934],[85.6,20967],[85.6,21000],[85.6,21035]]",1,0,999.6021,1000.8004,85.58026632,0.2968,"[{""rating"":85.58026631673177,""responseTime"":0.2968000000007578}]",space,0.6552,,1000.8005,Not at all,0,1000.8022,,,[],,0,16,16,16,1,audio/Narrative8Situation7.wav,audio/Narrative7Situation7.wav,audio/Narrative6Situation7.wav,audio/Narrative5Situation7.wav,3,5,5,4,,,,,,,,,,,,,,,,,,,,,,,,,,,,,,,,,,,,,,,
,,,,,,65fc6ca12b8b3852fbea77f1,2024-05-13_11h35.07.311,group3.1-3.2-social-tom,2023.2.2,MacIntel,29.94011976,65c5074098b851296ff0b7ed,664232faca0532c64a7eb6e2,,,,,,,,,,,,,,,,,,,,,,,,,,,,,1000.8024,2,audio/Narrative5Situation8.wav,1003.8184,,1003.8184,1012.669,[],1,0,1012.6691,1015.1849,99.80226305,2.2142,"[{""rating"":99.80226304796007,""responseTime"":2.2141999999992095}]",space,1.9721,,1015.1849,Half the time,50,1015.1901,,,[],,0,17,17,17,1,audio/Narrative8Situation8.wav,audio/Narrative7Situation8.wav,audio/Narrative6Situation8.wav,audio/Narrative5Situation8.wav,3,2,5,3,,,,,,,,,,,,,,,,,,,,,,,,,,,,,,,,,,,,,,,
,,,,,,65fc6ca12b8b3852fbea77f1,2024-05-13_11h35.07.311,group3.1-3.2-social-tom,2023.2.2,MacIntel,29.94011976,65c5074098b851296ff0b7ed,664232faca0532c64a7eb6e2,,,,,,,,,,,,,,,,,,,,,,,,,,,,,1015.1903,2,audio/Narrative5Situation9.wav,1018.2022,,1018.2023,1057.7384,"[[100,7401],[100,7599],[100,7633],[95.8,7934],[96.3,7967],[96.4,8000],[96.4,8033],[96.4,8066],[96.4,8099],[96.4,8135],[96.4,8166],[96.4,8201],[96.4,8232],[96.4,8267],[96.4,8299],[96.4,8333],[96.4,8366],[96.4,8400],[96.4,8433],[96.4,8465],[96.4,8499],[96.3,8535],[96,8567],[95.3,8599],[94.2,8634],[93,8667],[91.4,8701],[89.5,8734],[88.5,8767],[87.8,8800],[87.6,8834],[87.5,8867],[87.5,8899],[87.5,8933],[87.5,8967],[87.5,9000],[87.5,9033],[87.5,9066],[87.5,9101],[87.5,9134],[87.5,9166],[87.5,9199],[87.5,9234],[87.5,9266],[87.5,9300],[87.5,9333],[87.5,9367],[87.5,9399],[87.5,9434],[87.5,9467],[87.5,9500],[87.5,9535],[87.5,9567],[87.5,9599],[87.5,9633],[87.5,9666],[87.2,9699],[85.4,9733],[82.8,9766],[80.5,9800],[79.2,9835],[78.4,9867],[78.3,9901],[78.3,9933],[78.3,9967],[78.4,10002],[78.5,10034],[78.7,10067],[78.7,10100],[78.7,10134],[78.7,10167],[78.7,10200],[78.7,10234],[78.7,10267],[78.7,10299],[78.7,10333],[78.7,10366],[78.7,10401],[78.7,10432],[78.7,10468],[78.7,10499],[78.7,10534],[78.7,10566],[78.7,10600],[78.7,10633],[78.7,10667],[78.7,10699],[78.7,10734],[78.7,10767],[78.7,10800],[78.7,10833],[78.7,10868],[78.7,10900],[78.7,10933],[78.7,10966],[78.7,11000],[78.7,11034],[78.7,11067],[78.7,11100],[78.7,11132],[78.7,11167],[78.7,11200],[78.7,11233],[78.7,11266],[78.7,11301],[78.7,11333],[78.7,11367],[78.7,11400],[78.7,11434],[78.7,11466],[78.7,11500],[78.7,11533],[78.7,11567],[78.7,11599],[78.7,11634],[78.7,11667],[78.7,11702],[78.7,11733],[78.7,11767],[78.7,11800],[78.7,11834],[78.7,11866],[78.7,11901],[78.7,11934],[78.7,11967],[78.7,11999],[78.7,12034],[78.7,12067],[78.7,12100],[78.7,12133],[78.7,12167],[78.7,12200],[78.7,12233],[78.7,12266],[78.7,12300],[78.7,12333],[78.7,12367],[78.7,12399],[78.7,12432],[78.7,12467],[78.7,12501],[78.7,12534],[78.7,12566],[78.7,12599],[78.7,12632],[78.7,12666],[78.7,12699],[78.7,12734],[78.7,12766],[78.7,12800],[78.7,12833],[78.7,12868],[78.7,12899],[78.7,12934],[78.7,12967],[78.7,13000],[78.7,13033],[78.7,13067],[78.7,13101],[78.7,13134],[78.7,13166],[78.7,13200],[78.7,13233],[78.7,13267],[78.7,13299],[78.7,13334],[78.7,13367],[78.7,13400],[78.7,13436],[78.7,13467],[78.7,13501],[78.7,13534],[78.7,13567],[78.7,13599],[78.7,13634],[78.7,13667],[78.7,13701],[78.7,13732],[78.7,13767],[78.7,13799],[78.7,13834],[78.7,13866],[78.7,13899],[78.7,13933],[78.7,13967],[78.7,14000],[78.7,14034],[78.7,14066],[78.7,14100],[78.7,14134],[78.7,14167],[78.7,14200],[78.7,14234],[78.7,14267],[78.7,14300],[78.7,14333],[78.7,14367],[78.7,14401],[78.7,14434],[78.7,14467],[78.7,14500],[78.7,14534],[78.7,14567],[78.7,14599],[78.7,14634],[78.7,14668],[78.7,14701],[78.7,14733],[78.7,14766],[78.7,14801],[78.7,14834],[78.7,14867],[78.7,14900],[78.7,14933],[78.7,14966],[78.7,15000],[78.7,15034],[78.7,15067],[78.7,15100],[78.7,15135],[78.7,15167],[78.7,15200],[78.7,15233],[78.7,15268],[78.7,15300],[78.7,15334],[78.7,15366],[78.7,15400],[78.7,15434],[78.7,15467],[78.7,15501],[78.7,15534],[78.7,15567],[78.7,15602],[78.7,15634],[78.7,15667],[78.7,15701],[78.7,15734],[78.7,15767],[78.7,15800],[78.7,15833],[78.7,15868],[78.7,15900],[78.7,15933],[78.7,15967],[78.7,15999],[78.7,16034],[78.7,16067],[78.7,16101],[78.7,16133],[78.7,16167],[78.7,16201],[78.7,16234],[78.7,16266],[78.7,16301],[78.7,16334],[78.7,16367],[78.7,16400],[78.7,16434],[78.7,16467],[78.7,16500],[78.7,16533],[78.7,16568],[78.7,16601],[78.7,16634],[78.7,16667],[78.7,16702],[78.7,16734],[78.7,16767],[78.7,16800],[78.7,16834],[78.7,16868],[78.7,16901],[78.7,16934],[78.7,16966],[78.7,17001],[78.7,17034],[78.7,17067],[78.7,17099],[78.7,17134],[78.7,17166],[78.7,17200],[78.7,17233],[78.7,17268],[78.7,17300],[78.7,17334],[78.7,17367],[78.7,17401],[78.7,17433],[78.7,17467],[78.7,17501],[78.7,17534],[78.7,17566],[78.7,17601],[78.7,17634],[78.7,17667],[78.7,17700],[78.7,17734],[78.7,17768],[78.7,17800],[78.7,17834],[78.7,17867],[78.7,17900],[78.7,17934],[78.7,17968],[78.7,18000],[78.7,18035],[78.7,18067],[78.7,18101],[78.7,18133],[78.7,18168],[78.7,18201],[78.7,18233],[78.7,18267],[78.7,18301],[78.7,18333],[78.7,18368],[78.7,18400],[78.7,18434],[78.7,18466],[78.7,18501],[78.7,18534],[78.7,18567],[78.7,18600],[78.7,18635],[78.7,18667],[78.7,18701],[78.7,18733],[78.7,18767],[78.7,18801],[78.7,18834],[78.7,18866],[78.7,18901],[78.7,18934],[78.7,18967],[78.7,19000],[78.7,19034],[78.7,19068],[78.7,19101],[78.7,19134],[78.7,19167],[78.7,19201],[78.7,19234],[78.7,19267],[78.7,19300],[78.7,19334],[78.7,19366],[78.7,19401],[78.7,19433],[78.7,19468],[78.7,19500],[78.7,19534],[78.7,19568],[78.7,19602],[78.7,19633],[78.7,19668],[78.7,19700],[78.7,19734],[78.7,19767],[78.7,19800],[78.7,19834],[78.7,19867],[78.7,19900],[78.7,19934],[78.7,19968],[78.7,20001],[78.7,20034],[78.7,20067],[78.7,20101],[78.7,20134],[78.7,20167],[78.7,20201],[78.7,20234],[78.7,20267],[78.7,20301],[78.7,20333],[78.7,20368],[78.7,20401],[78.7,20434],[78.7,20467],[78.7,20501],[78.7,20533],[78.7,20568],[78.7,20601],[78.7,20635],[78.7,20667],[78.7,20702],[78.7,20734],[78.7,20768],[78.7,20800],[78.7,20834],[78.7,20868],[78.7,20901],[78.7,20933],[78.7,20968],[78.7,21001],[78.7,21034],[78.7,21067],[78.7,21101],[78.7,21134],[78.7,21167],[78.7,21201],[78.7,21234],[78.7,21268],[78.7,21300],[78.7,21333],[78.7,21367],[78.7,21401],[78.7,21434],[78.7,21468],[78.7,21501],[78.7,21535],[78.7,21566],[78.7,21601],[78.7,21634],[78.7,21668],[78.7,21700],[78.7,21734],[78.7,21767],[78.7,21801],[78.7,21833],[78.7,21867],[78.7,21900],[78.7,21935],[78.7,21967],[78.7,22001],[78.7,22034],[78.7,22069],[78.7,22101],[78.7,22135],[78.7,22168],[78.7,22201],[78.7,22234],[78.7,22268],[78.7,22301],[78.7,22334],[78.7,22367],[78.7,22401],[78.7,22435],[78.7,22468],[78.7,22501],[78.7,22534],[78.7,22567],[78.7,22601],[78.7,22634],[78.7,22666],[78.7,22702],[78.7,22733],[78.7,22768],[78.7,22800],[78.7,22835],[78.7,22867],[78.7,22901],[78.7,22934],[78.7,22968],[78.7,23000],[78.7,23034],[78.7,23067],[78.7,23101],[78.7,23134],[78.7,23168],[78.7,23201],[78.7,23234],[78.7,23267],[78.7,23300],[78.7,23335],[78.7,23368],[78.7,23401],[78.7,23434],[78.7,23468],[78.7,23501],[78.7,23534],[78.7,23568],[78.7,23601],[78.7,23634],[78.7,23667],[78.7,23700],[78.7,23735],[78.7,23768],[78.7,23801],[78.7,23833],[78.7,23868],[78.7,23900],[78.7,23934],[78.7,23968],[78.7,24000],[78.7,24033],[78.7,24067],[78.7,24101],[78.7,24135],[78.7,24167],[78.7,24201],[78.7,24234],[78.7,24268],[78.7,24300],[78.7,24335],[78.7,24368],[78.7,24402],[78.7,24434],[78.7,24468],[78.7,24502],[78.7,24534],[78.7,24568],[78.7,24601],[78.7,24635],[78.7,24668],[78.7,24701],[78.7,24734],[78.7,24768],[78.7,24801],[78.7,24834],[78.7,24867],[78.7,24902],[78.7,24933],[78.7,24968],[78.7,25001],[78.7,25034],[78.7,25067],[78.7,25101],[78.7,25134],[78.7,25169],[78.7,25200],[78.7,25235],[78.7,25268],[78.7,25301],[78.7,25334],[78.7,25368],[78.7,25401],[78.7,25434],[78.7,25467],[78.7,25501],[78.7,25535],[78.7,25568],[78.7,25601],[78.7,25634],[78.7,25668],[78.7,25701],[78.7,25734],[78.7,25768],[78.7,25801],[78.7,25835],[78.7,25868],[78.7,25901],[78.7,25935],[78.7,25967],[78.7,26001],[78.7,26033],[78.7,26068],[78.7,26100],[78.7,26134],[78.7,26167],[78.7,26202],[78.7,26233],[78.7,26267],[78.7,26301],[78.7,26335],[78.7,26367],[78.7,26401],[78.7,26433],[78.7,26468],[78.7,26500],[78.7,26535],[78.7,26568],[78.7,26601],[78.7,26634],[78.7,26669],[78.7,26702],[78.7,26735],[78.7,26767],[78.7,26801],[78.7,26835],[78.7,26867],[78.7,26901],[78.7,26935],[78.7,26968],[78.7,27001],[78.7,27035],[78.7,27067],[78.7,27102],[78.7,27134],[78.7,27168],[78.7,27201],[78.7,27235],[78.7,27267],[78.7,27301],[78.7,27335],[78.7,27368],[78.7,27400],[78.7,27435],[78.7,27467],[78.7,27501],[78.7,27534],[78.7,27568],[78.7,27602],[78.7,27635],[78.7,27667],[78.7,27702],[78.7,27734],[78.7,27769],[78.7,27801],[78.7,27835],[78.7,27868],[78.7,27901],[78.7,27934],[78.7,27968],[78.7,28002],[78.7,28035],[78.7,28068],[78.7,28101],[78.7,28135],[78.7,28168],[78.7,28202],[78.7,28234],[78.7,28267],[78.7,28300],[78.7,28335],[78.7,28367],[78.7,28402],[78.7,28434],[78.7,28468],[78.7,28501],[78.7,28535],[78.7,28567],[78.7,28601],[78.7,28635],[78.7,28669],[78.7,28700],[78.7,28735],[78.7,28768],[78.7,28801],[78.7,28834],[78.7,28868],[78.7,28902],[78.7,28935],[78.7,28968],[78.7,29001],[78.7,29035],[78.7,29068],[78.7,29100],[78.7,29135],[78.7,29168],[78.7,29202],[78.7,29236],[78.7,29268],[78.7,29302],[78.7,29335],[78.7,29367],[78.7,29400],[78.7,29435],[78.7,29467],[78.7,29502],[78.7,29534],[78.7,29568],[78.7,29600],[78.7,29635],[78.7,29667],[78.7,29700],[78.7,29734],[78.7,29768],[78.7,29801],[78.7,29835],[78.7,29867],[78.7,29902],[78.7,29935],[78.7,29968],[78.7,30001],[78.7,30035],[78.7,30068],[78.7,30101],[78.7,30134],[78.7,30168],[78.7,30202],[78.7,30234],[78.7,30269],[78.7,30301],[78.7,30335],[78.7,30368],[78.7,30401],[78.7,30434],[78.7,30468],[78.7,30501],[78.7,30535],[78.7,30567],[78.7,30602],[78.7,30638],[78.7,30668],[78.7,30701],[78.7,30735],[78.7,30767],[78.7,30801],[78.7,30835],[78.7,30869],[78.7,30901],[78.7,30936],[78.7,30968],[78.7,31001],[78.7,31034],[78.7,31069],[78.7,31101],[78.7,31135],[78.7,31168],[78.7,31201],[78.7,31235],[78.7,31268],[78.7,31301],[78.7,31334],[78.7,31369],[78.7,31402],[78.7,31434],[78.7,31468],[78.7,31502],[78.7,31535],[78.7,31568],[78.7,31602],[78.7,31634],[78.7,31667],[78.7,31703],[78.7,31734],[78.7,31768],[78.7,31801],[78.7,31835],[78.7,31868],[78.7,31903],[78.7,31934],[78.7,31968],[78.7,32002],[78.7,32035],[78.7,32067],[78.7,32102],[78.7,32135],[78.7,32169],[78.7,32201],[78.7,32235],[78.7,32268],[78.7,32301],[78.7,32334],[78.7,32368],[78.7,32402],[78.7,32435],[78.7,32468],[78.7,32502],[78.7,32535],[78.7,32568],[78.7,32602],[78.7,32635],[78.7,32669],[78.7,32702],[78.7,32735],[78.7,32768],[78.7,32800],[78.7,32834],[78.7,32868],[78.7,32901],[78.7,32935],[78.7,32967],[78.7,33002],[78.7,33034],[78.7,33069],[78.7,33101],[78.7,33135],[78.7,33167],[78.7,33201],[78.7,33234],[78.7,33269],[78.7,33302],[78.7,33334],[78.7,33368],[78.7,33402],[78.7,33434],[78.7,33468],[78.7,33501],[78.7,33535],[78.7,33569],[78.7,33602],[78.7,33634],[78.7,33668],[78.7,33702],[78.7,33735],[78.7,33768],[78.7,33801],[78.7,33836],[78.7,33868],[78.7,33902],[78.7,33935],[78.7,33969],[78.7,34001],[78.7,34035],[78.7,34068],[78.7,34103],[78.7,34134],[78.7,34169],[78.7,34202],[78.7,34237],[78.7,34268],[78.7,34302],[78.7,34335],[78.7,34368],[78.7,34401],[78.7,34435],[78.7,34468],[78.7,34501],[78.7,34535],[78.7,34568],[78.7,34601],[78.7,34634],[78.7,34669],[78.7,34702],[78.7,34736],[78.7,34769],[78.7,34802],[78.7,34834],[78.7,34868],[78.7,34902],[78.7,34934],[78.7,34969],[78.7,35003],[78.7,35034],[78.7,35069],[78.7,35102],[78.7,35136],[78.7,35167],[78.7,35202],[78.7,35234],[78.7,35269],[78.7,35301],[78.7,35335],[78.7,35368],[78.7,35402],[78.7,35434],[78.7,35470],[78.7,35502],[78.7,35535],[78.7,35568],[78.7,35601],[78.7,35635],[78.7,35669],[78.7,35701],[78.7,35734],[78.7,35769],[78.7,35802],[78.7,35835],[78.7,35868],[78.7,35903],[78.7,35935],[78.7,35968],[78.7,36002],[78.7,36036],[78.7,36069],[78.7,36102],[78.7,36134],[78.7,36169],[78.7,36202],[78.7,36235],[78.7,36268],[78.7,36302],[78.7,36335],[78.7,36369],[78.7,36401],[78.7,36436],[78.7,36468],[78.7,36502],[78.7,36535],[78.7,36569],[78.7,36601],[78.7,36636],[78.7,36668],[78.7,36703],[78.7,36735],[78.7,36769],[78.7,36802],[78.7,36834],[78.7,36868],[78.7,36902],[78.7,36934],[78.7,36968],[78.7,37001],[78.7,37035],[78.7,37069],[78.7,37102],[78.7,37135],[78.7,37169],[78.7,37202],[78.7,37235],[78.7,37268],[78.7,37301],[78.7,37336],[78.7,37367],[78.7,37402],[78.7,37435],[78.7,37469],[78.7,37501],[78.7,37536],[78.7,37568],[78.7,37603],[78.7,37634],[78.7,37669],[78.7,37702],[78.7,37735],[78.7,37768],[78.7,37803],[78.7,37836],[78.7,37867],[78.7,37902],[78.7,37935],[78.7,37969],[78.7,38002],[78.7,38035],[78.7,38069],[78.7,38103],[78.7,38135],[78.7,38168],[78.7,38201],[78.7,38236],[78.7,38269],[78.7,38302],[78.7,38335],[78.7,38369],[78.7,38402],[78.7,38436],[78.7,38468],[78.7,38503],[78.7,38534],[78.7,38568],[78.7,38602],[78.7,38636],[78.7,38668],[78.7,38702],[78.7,38735],[78.7,38769],[78.7,38801],[78.7,38836],[78.7,38869],[78.7,38902],[78.7,38935],[78.7,38969],[78.7,39002],[78.7,39035],[78.7,39068],[78.7,39102],[78.7,39136],[78.7,39169],[78.7,39202],[78.7,39235],[78.7,39269],[78.7,39303],[78.7,39335],[78.7,39368],[78.7,39403],[78.7,39436],[78.7,39469],[78.7,39502],[78.7,39536]]",1,0,1057.7387,1060.4884,100,2.4508,"[{""rating"":97.77647230360242,""responseTime"":1.6681000000016866},{""rating"":100,""responseTime"":2.450800000000754}]",space,2.2235,,1060.4884,All the time,100,1064.6054,100,3.6123,"[{""rating"":99.73990546332465,""responseTime"":2.711900000002288},{""rating"":100,""responseTime"":3.612300000000687}]",space,0,18,18,18,1,audio/Narrative8Situation9.wav,audio/Narrative7Situation9.wav,audio/Narrative6Situation9.wav,audio/Narrative5Situation9.wav,3,2,4,3,,,3.5898,,,,,,,,,,,,,,,,,,,,,,,,,,,,,,,,,,,,
,,,,,,65fc6ca12b8b3852fbea77f1,2024-05-13_11h35.07.311,group3.1-3.2-social-tom,2023.2.2,MacIntel,29.94011976,65c5074098b851296ff0b7ed,664232faca0532c64a7eb6e2,,,,,,,,,,,,,,,,,,,,,,,,,,,,,,,,,,,,,,,,,,,,,,,,,,,,,,,,,,,,,,,,,,,,,,,,1064.6057,1088.8075,space,23.6665,,1088.8086,1099.5406,space,10.4081,,,,,,,,,,,,,,,,,,,,,,,,,,
,,,,,,65fc6ca12b8b3852fbea77f1,2024-05-13_11h35.07.311,group3.1-3.2-social-tom,2023.2.2,MacIntel,29.94011976,65c5074098b851296ff0b7ed,664232faca0532c64a7eb6e2,,,,,,,,,,,,,,,,,,,,,,,,,,,,,1102.1432,1,audio/Narrative7Situation9.wav,1104.157,,,,,,,1136.0466,1160.3124,50.44425117,7.7608,"[{""rating"":50.44425116644965,""responseTime"":7.7608000000007}]",space,23.7228,,1136.0279,Not at all,0,1136.0465,,,[],,,,,,,,,,,2,2,2,2,,,,,,,,,,,,,,,1099.5528,1102.1249,1104.1574,3,1136.0277,"[[100,12202],[100,12235],[100,12270],[100,12301],[100,12335],[100,12367],[100,12401],[100,12434],[100,12469],[100,12502],[100,12535],[100,12568]]",0,0,0,0,1,"Larry had recently lost his family, job and home, and was now living on his own in the park. He had most of his belongings, including some clothes, a blanket, and his mother’s special necklace. His family had been very important to him and he felt as though he did not have much going for him. One of his first days in the park he came across a family that did not have much food and looked very cold. He decided to give them some of his food and his blanket.","Larry had recently lost his family, job and home, and was now living on his own in the park. He had most of his belongings, including some clothes, a blanket, and his mother’s special necklace. His family had been very important to him and he felt as though he did not have much going for him. One of his first days in the park he came across a family that did not have much food and looked very cold. He decided to give them some of his food and his blanket.","Larry had recently lost his family, job and home, and was now living on his own in the park. He had most of his belongings, including some clothes, a blanket, and his mother’s special necklace. His family had been very important to him and he felt as though he did not have much going for him. One of his first days in the park he came across a family that did not have much food and looked very cold. He decided to give them some of his food and his blanket.","Larry had recently lost his family, job and home, and was now living on his own in the park. He had most of his belongings, including some clothes, a blanket, and his mother’s special necklace. His family had been very important to him and he felt as though he did not have much going for him. One of his first days in the park he came across a family that did not have much food and looked very cold. He decided to give them some of his food and his blanket.",,,,,,,,,,
