exp_question,consent.started,consent.stopped,consentResponse.keys,consentResponse.rt,consentResponse.duration,participantID,date,expName,psychopyVersion,OS,frameRate,STUDY_ID,SESSION_ID,opening1.started,opening1.stopped,keyEndingOpening1.keys,keyEndingOpening1.rt,keyEndingOpening1.duration,volumeAdjust.started,volumeAdjust.stopped,endingAdjust.keys,endingAdjust.rt,endingAdjust.duration,opening2.started,opening2.stopped,keyEndingOpening.keys,keyEndingOpening.rt,keyEndingOpening.duration,mouse.x,mouse.y,mouse.leftButton,mouse.midButton,mouse.rightButton,mouse.time,instructionLoop.thisRepN,instructionLoop.thisTrialN,instructionLoop.thisN,instructionLoop.thisIndex,instructionLoop.ran,readyForAudio.started,readyForAudio.stopped,fixation.started,run,audio_played,fixation.stopped,endPractice.keys,audioPre.started,audioPre.stopped,continuousResponses_audio,continuousSlider.response,continuousSlider.rt,intRating.started,intRating.stopped,intQuestionSlider.response,intQuestionSlider.rt,intQuestionSlider.history,confirmResponse.keys,confirmResponse.rt,confirmResponse.duration,catchQuestion.started,catch_label,catch_value,catchQuestion.stopped,catchQuestionSlider.response,catchQuestionSlider.rt,catchQuestionSlider.history,confirmResponse_2.keys,audioRunLoop.thisRepN,audioRunLoop.thisTrialN,audioRunLoop.thisN,audioRunLoop.thisIndex,audioRunLoop.ran,conditions1_1,conditions2_1,conditions1_2,conditions2_2,dur1_1,dur2_1,dur1_2,dur2_2,endPractice.rt,endPractice.duration,confirmResponse_2.rt,confirmResponse_2.duration,runIntervalBreak.started,runIntervalBreak.stopped,endingBreakKey.keys,endingBreakKey.rt,endingBreakKey.duration,connection.started,connection.stopped,connectionEnding.keys,connectionEnding.rt,connectionEnding.duration,readyForText.started,readyForText.stopped,textPre.started,run_dup,textPre.stopped,continuousResponses_text,textRunLoop.thisRepN,textRunLoop.thisTrialN,textRunLoop.thisN,textRunLoop.thisIndex,textRunLoop.ran,text1_1,text1_2,text2_1,text2_2,runBreakText.started,runBreakText.stopped,endingBreakKey_2.keys,endingBreakKey_2.rt,endingBreakKey_2.duration,ending.started,ending.stopped,endingEnding.keys,endingEnding.rt,endingEnding.duration
social,0.0002,17.9351,y,17.6232,,66060f19dda14ccd05dfcef9,2024-05-13_09h13.54.412,group3.1-3.2-social-tom,2023.2.2,Win32,59.17159763,65c5074098b851296ff0b7ed,66423c1d4c4348830bcab480,,,,,,,,,,,,,,,,,,,,,,,,,,,,,,,,,,,,,,,,,,,,,,,,,,,,,,,,,,,,,,,,,,,,,,,,,,,,,,,,,,,,,,,,,,,,,,,,,,,,,,,,,,
,,,,,,66060f19dda14ccd05dfcef9,2024-05-13_09h13.54.412,group3.1-3.2-social-tom,2023.2.2,Win32,59.17159763,65c5074098b851296ff0b7ed,66423c1d4c4348830bcab480,17.9355,75.6692,space,57.7099,,,,,,,,,,,,,,,,,,,,,,,,,,,,,,,,,,,,,,,,,,,,,,,,,,,,,,,,,,,,,,,,,,,,,,,,,,,,,,,,,,,,,,,,,,,,,,,,,,,,,,
,,,,,,66060f19dda14ccd05dfcef9,2024-05-13_09h13.54.412,group3.1-3.2-social-tom,2023.2.2,Win32,59.17159763,65c5074098b851296ff0b7ed,66423c1d4c4348830bcab480,,,,,,75.6695,88.4356,space,12.4446,,,,,,,,,,,,,,,,,,,,,,,,,,,,,,,,,,,,,,,,,,,,,,,,,,,,,,,,,,,,,,,,,,,,,,,,,,,,,,,,,,,,,,,,,,,,,,,,,
,,,,,,66060f19dda14ccd05dfcef9,2024-05-13_09h13.54.412,group3.1-3.2-social-tom,2023.2.2,Win32,59.17159763,65c5074098b851296ff0b7ed,66423c1d4c4348830bcab480,,,,,,,,,,,88.4449,103.2572,space,14.7997,,[],[],[],[],[],[],0,0,0,0,1,,,,,,,,,,,,,,,,,,,,,,,,,,,,,,,,,,,,,,,,,,,,,,,,,,,,,,,,,,,,,,,,,,,,,,,,,,,,,,,,
,,,,,,66060f19dda14ccd05dfcef9,2024-05-13_09h13.54.412,group3.1-3.2-social-tom,2023.2.2,Win32,59.17159763,65c5074098b851296ff0b7ed,66423c1d4c4348830bcab480,,,,,,,,,,,103.2635,140.7509,space,37.4245,,[],[],[],[],[],[],1,0,1,0,1,,,,,,,,,,,,,,,,,,,,,,,,,,,,,,,,,,,,,,,,,,,,,,,,,,,,,,,,,,,,,,,,,,,,,,,,,,,,,,,,
,,,,,,66060f19dda14ccd05dfcef9,2024-05-13_09h13.54.412,group3.1-3.2-social-tom,2023.2.2,Win32,59.17159763,65c5074098b851296ff0b7ed,66423c1d4c4348830bcab480,,,,,,,,,,,140.7589,172.2342,space,31.4443,,[],[],[],[],[],[],2,0,2,0,1,,,,,,,,,,,,,,,,,,,,,,,,,,,,,,,,,,,,,,,,,,,,,,,,,,,,,,,,,,,,,,,,,,,,,,,,,,,,,,,,
,,,,,,66060f19dda14ccd05dfcef9,2024-05-13_09h13.54.412,group3.1-3.2-social-tom,2023.2.2,Win32,59.17159763,65c5074098b851296ff0b7ed,66423c1d4c4348830bcab480,,,,,,,,,,,172.2424,220.1843,space,47.9171,,[],[],[],[],[],[],3,0,3,0,1,,,,,,,,,,,,,,,,,,,,,,,,,,,,,,,,,,,,,,,,,,,,,,,,,,,,,,,,,,,,,,,,,,,,,,,,,,,,,,,,
,,,,,,66060f19dda14ccd05dfcef9,2024-05-13_09h13.54.412,group3.1-3.2-social-tom,2023.2.2,Win32,59.17159763,65c5074098b851296ff0b7ed,66423c1d4c4348830bcab480,,,,,,,,,,,220.1934,234.024,space,13.8165,,[],[],[],[],[],[],4,0,4,0,1,,,,,,,,,,,,,,,,,,,,,,,,,,,,,,,,,,,,,,,,,,,,,,,,,,,,,,,,,,,,,,,,,,,,,,,,,,,,,,,,
,,,,,,66060f19dda14ccd05dfcef9,2024-05-13_09h13.54.412,group3.1-3.2-social-tom,2023.2.2,Win32,59.17159763,65c5074098b851296ff0b7ed,66423c1d4c4348830bcab480,,,,,,,,,,,,,,,,,,,,,,,,,,,234.0329,236.6061,236.6206,1,audio/Narrative13Situation2.wav,238.6232,,238.6234,268.3906,"[[999,1],[999,83],[999,166],[999,249],[999,333],[999,410],[999,499],[999,581],[999,664],[999,745],[999,832],[999,916],[999,999],[999,1081],[999,1166],[999,1249],[999,1332],[999,1415],[999,1499],[999,1576],[999,1664],[999,1749],[999,1832],[999,1916],[20.5,2000],[15.1,2082],[15.1,2166],[14.2,2249],[13.8,2333],[12.4,2416],[11.3,2500],[11.3,2582],[10,2666],[9.8,2749],[9.5,2832],[9,2916],[9,2999],[8.9,3083],[8.9,3165],[8.9,3249],[8.9,3332],[8.9,3414],[8.9,3499],[9.4,3583],[9.4,3665],[9.4,3748],[9.4,3831],[9.4,3915],[9.4,3996],[9.4,4082],[9.4,4165],[9.4,4249],[9.4,4332],[9.4,4416],[9.4,4499],[9.4,4582],[9.4,4666],[9.4,4749],[9.4,4832],[9.4,4910],[9.4,4993],[9.4,5082],[9.4,5165],[9,5248],[9.1,5332],[9.2,5416],[9.5,5499],[13.8,5582],[15.6,5665],[18.1,5748],[18.5,5832],[21.3,5915],[26.8,5999],[29.4,6083],[32.5,6166],[32.5,6248],[32.5,6332],[32.5,6415],[37.7,6499],[41.8,6584],[47.3,6666],[52.1,6750],[52.8,6832],[58.4,6916],[61.4,7000],[61.4,7082],[62.5,7166],[63.9,7249],[63.9,7332],[64.3,7416],[64.5,7493],[64.5,7576],[64.5,7665],[64.5,7749],[64.6,7827],[64.7,7916],[64.7,7998],[64.9,8082],[65.1,8166],[65.1,8249],[65.1,8332],[65.1,8415],[65.1,8499],[65.7,8583],[65.8,8660],[66,8749],[66,8832],[69.3,8916],[70.4,8999],[74.7,9083],[79,9166],[79.9,9249],[79.9,9332],[79.9,9415],[79.9,9499],[80.3,9584],[82.4,9666],[84,9749],[88,9832],[89.5,9910],[90.2,9998],[91.4,10082],[91.8,10165],[92.5,10249],[93.2,10332],[93.4,10416],[93.4,10498],[93.4,10582],[93.4,10665],[93.4,10749],[93.4,10827],[93.4,10915],[93.4,10999],[93.4,11082],[93.4,11163],[93.4,11243],[93.4,11329],[93.4,11415],[93.4,11498],[93.4,11582],[93.4,11666],[93.4,11749],[93.4,11833],[93.4,11915],[93.4,11994],[93.4,12082],[93.4,12165],[93.4,12249],[93.4,12332],[93.4,12415],[93.4,12498],[93.6,12582],[93.6,12665],[93.6,12749],[93.6,12832],[93.6,12914],[94.6,12998],[94.6,13082],[95.3,13167],[95.4,13249],[95.4,13331],[95.5,13410],[95.6,13499],[95.6,13583],[95.6,13666],[95.6,13749],[95.6,13831],[95.6,13916],[95.6,13999],[95.6,14082],[95.6,14165],[95.6,14249],[95.6,14326],[95.6,14415],[95.6,14499],[95.8,14582],[98.3,14667],[98.5,14743],[98.5,14832],[98.5,14910],[98.5,14999],[98.5,15082],[98.5,15165],[98.5,15249],[98.5,15332],[98.5,15415],[98.5,15499],[98.5,15581],[98.5,15665],[98.5,15749],[98.5,15826],[98.5,15915],[98.5,15998],[98.5,16082],[98.5,16165],[98.5,16249],[98.5,16332],[98.5,16415],[98.5,16493],[98.5,16577],[98.5,16665],[98.5,16749],[98.5,16832],[98.5,16915],[98.5,16999],[98.5,17082],[98.5,17165],[98.5,17244],[98.5,17327],[98.5,17410],[98.5,17499],[98.5,17583],[98.5,17666],[98.5,17743],[98.5,17833],[98.5,17916],[98.5,17999],[98.5,18082],[98.5,18163],[98.5,18249],[98.5,18327],[98.5,18410],[98.5,18494],[98.5,18582],[98.5,18666],[98.5,18749],[98.5,18832],[98.4,18912],[88,18999],[86.9,19083],[83.2,19165],[76.7,19249],[69.2,19333],[58.8,19415],[52.6,19493],[48.5,19582],[45.2,19665],[38.8,19749],[31.5,19833],[30.2,19916],[29.6,20000],[27,20083],[23.8,20166],[22,20249],[21.1,20333],[19.9,20415],[18.3,21583],[19.4,21666],[19.6,21749],[19.6,21833],[18.5,21916],[14.8,21999],[13.1,22082],[12.6,22166],[12.2,22250],[12.1,22327],[12.1,22410],[12.1,22493],[12.1,22582],[11.8,22667],[11.4,22749],[10.9,22833],[10.9,22915],[10.9,22999],[10.9,23082],[10.9,23166],[10.9,23249],[13.2,23333],[16,23416],[18.5,23499],[22.4,23583],[22.8,23665],[23,23749],[25.9,23834],[28.5,23916],[32.9,23999],[33.1,24083],[34.1,24166],[38.5,24249],[40.2,24332],[41.1,24415],[42.3,24500],[42.5,24582],[42.5,24666],[42.5,24749],[42.5,24829],[44.6,24916],[47.3,25000],[49.5,25082],[51.1,25166],[51.6,25249],[52.2,25333],[53.2,25416],[53.2,25493],[53.2,25581],[53.2,25665],[53.3,25748],[53.9,25832],[53.9,25915],[53.9,25993],[53.9,26082],[53.6,26166],[50,26250],[49.4,26332],[49.3,26415],[49.3,26496],[53.1,26582],[57.5,26666],[61.4,26749],[66.5,26833],[67.1,26916],[67.5,26999],[67.6,27082],[67.6,27164],[67.6,27249],[67.6,27332],[67.1,27417],[67.3,27499],[67.3,27582],[67.3,27660],[67.3,27749],[67.5,27833],[61.7,27916],[60.9,28000],[59.4,28083],[58.3,28166],[57.5,28249],[55.6,28333],[53.5,28417],[51.4,28499],[45.3,28583],[44.4,28666],[44.4,28749],[42.9,28833],[29.8,28916],[27.9,28999],[27.9,29076],[27.9,29165],[27.9,29249],[28.9,29333],[29.5,29410],[29.5,29499],[29.5,29576],[29.5,29665],[29.5,29749]]",1,0,268.3909,278.741,73.95833333,6.5819,"[{""rating"":73.95833333333334,""responseTime"":6.5818999999761445}]",space,9.8009,,278.7469,Partially,50,278.7488,,,[],,0,0,0,0,1,audio/Narrative13Situation2.wav,audio/Narrative13Situation2.wav,audio/Narrative13Situation2.wav,audio/Narrative13Situation2.wav,2,2,2,2,,,,,,,,,,,,,,,,,,,,,,,,,,,,,,,,,,,,,,,
,,,,,,66060f19dda14ccd05dfcef9,2024-05-13_09h13.54.412,group3.1-3.2-social-tom,2023.2.2,Win32,59.17159763,65c5074098b851296ff0b7ed,66423c1d4c4348830bcab480,,,,,,,,,,,,,,,,,,,,,,,,,,,,,278.7491,1,audio/Narrative8Situation1.wav,281.44,space,281.4401,297.3727,"[[999,1],[999,82],[999,166],[999,249],[999,333],[999,415],[999,499],[999,582],[999,665],[999,749],[999,832],[999,915],[999,999],[999,1081],[999,1160],[999,1243],[999,1332],[999,1416],[999,1499],[999,1582],[999,1660],[999,1749],[999,1833],[999,1915],[999,1999],[999,2082],[999,2166],[43.4,2249],[35.5,2416],[35.4,2499],[35.4,2582],[35.4,2665],[35.7,2748],[36.1,2832],[36.8,2915],[37.1,2998],[39.4,3082],[46,3166],[56.9,3249],[58.2,3332],[61.3,3416],[64.8,3500],[64.8,3577],[64.8,3665],[65.2,3749],[65.5,3830],[66.1,3916],[68.9,4000],[68.9,4081],[68.9,4166],[68.9,4248],[67.8,4333],[67.9,4416],[67.9,4498],[67.9,4582],[67.9,4666],[67.9,4747],[67.9,4832],[67.9,4915],[67.9,4996],[69.5,5083],[74.4,5166],[79.6,5250],[79.9,5332],[81.6,5416],[81.8,5499],[82.2,5582],[82.4,5666],[82.8,5750],[83.9,5833],[85.4,5916],[87.3,5999],[87.3,6081],[87.3,6163],[87.5,6250],[87.5,6333],[87.8,6415],[88,6499],[89.7,6582],[89.7,6665],[89.7,6748],[89.7,6832],[89.7,6916],[89.7,6999],[89.7,7082],[89.7,7166],[89.7,7249],[89.7,7332],[89.8,7415],[89.8,7499],[89.8,7582],[89.8,7665],[89.8,7743],[89.8,7831],[89.8,7915],[89.8,7998],[89.8,8082],[89.8,8166],[89.8,8249],[89.8,8332],[89.8,8412],[89.8,8499],[89.8,8582],[89.8,8665],[89.8,8749],[89.8,8832],[89.5,8916],[88.6,8998],[88.6,9081],[88.6,9165],[88.6,9249],[88.6,9326],[88.6,9415],[88.6,9497],[88.6,9579],[88.3,9666],[88.5,9750],[88.5,9832],[90.5,9917],[94.1,9999],[94.4,10082],[96.5,10166],[98.1,10249],[99.5,10332],[99.5,10415],[99.5,10498],[99.5,10582],[99.5,10660],[99.5,10748],[99.5,10827],[99.5,10910],[99.5,10999],[99.5,11079],[99.5,11165],[99.5,11248],[99.5,11332],[99.5,11415],[99.5,11499],[99.5,11581],[99.5,11665],[99.5,11748],[99.5,11832],[99.5,11910],[99.5,11999],[99.5,12082],[99.5,12166],[99.5,12249],[99.5,12332],[99.5,12415],[99.5,12499],[99.5,12582],[99.5,12666],[99.5,12743],[99.5,12832],[99.5,12910],[99.5,12996],[99.5,13081],[99.5,13165],[99.5,13249],[99.5,13326],[99.5,13415],[99.5,13499],[99.5,13582],[99.5,13665],[99.5,13749],[99.5,13832],[99.5,13915],[99.5,13999],[99.5,14082],[99.5,14165],[99.5,14243],[99.5,14332],[99.5,14415],[99.5,14493],[99.5,14582],[99.5,14666],[99.5,14743],[99.5,14832],[99.5,14915],[99.5,14999],[99.5,15080],[99.5,15165],[99.5,15249],[99.5,15331],[99.5,15416],[99.5,15499],[99.5,15582],[99.5,15665],[99.5,15744],[99.5,15832],[99.5,15915]]",1,0,297.3729,303.6065,99.58333333,3.809,"[{""rating"":99.58333333333333,""responseTime"":3.809000000000026}]",space,5.6809,,303.6065,Definitely yes,100,303.6108,,,[],,0,1,1,1,1,audio/Narrative7Situation1.wav,audio/Narrative8Situation1.wav,audio/Narrative5Situation1.wav,audio/Narrative6Situation1.wav,2,5,5,2,2.6816,,,,,,,,,,,,,,,,,,,,,,,,,,,,,,,,,,,,,,
,,,,,,66060f19dda14ccd05dfcef9,2024-05-13_09h13.54.412,group3.1-3.2-social-tom,2023.2.2,Win32,59.17159763,65c5074098b851296ff0b7ed,66423c1d4c4348830bcab480,,,,,,,,,,,,,,,,,,,,,,,,,,,,,303.6111,1,audio/Narrative8Situation2.wav,306.6178,,306.618,316.723,"[[999,1],[999,87],[999,171],[999,253],[999,338],[999,421],[999,504],[999,588],[999,671],[999,754],[999,837],[999,921],[999,1004],[999,1088],[999,1171],[999,1254],[999,1337],[999,1420],[999,1504],[999,1585],[999,1665],[999,1754],[38,1838],[36,1921],[33.5,2004],[31.6,2087],[28.5,2171],[23.6,2254],[21.8,2338],[20.2,2421],[20.2,2504],[20.2,2588],[20.2,2671],[18.3,2754],[17.3,2838],[12.3,2921],[10.1,3005],[9.7,3087],[6.6,3171],[5.7,3254],[5.5,3332],[5.5,3421],[5.5,3504],[5.5,3587],[5.5,3670],[5.2,3754],[4.3,3837],[4,3921],[3.2,4005],[3,4087],[2.8,4171],[2.8,4249],[2.8,4337],[2.8,4421],[2.8,4499],[2.8,4582],[2.8,4671],[2.7,4754],[2.2,4838],[2.2,4921],[1.9,5004],[1.7,5088],[1.5,5171],[0.9,5255],[0.6,5337],[0.6,5421],[0.4,5504],[0.1,5588]]",1,0,316.7233,321.0232,0.104166667,2.1575,"[{""rating"":0.1041666666666663,""responseTime"":2.1575000000000273}]",space,3.7666,,321.0234,Partially,50,321.0274,,,[],,0,2,2,2,1,audio/Narrative7Situation2.wav,audio/Narrative8Situation2.wav,audio/Narrative5Situation2.wav,audio/Narrative6Situation2.wav,3,3,3,3,,,,,,,,,,,,,,,,,,,,,,,,,,,,,,,,,,,,,,,
,,,,,,66060f19dda14ccd05dfcef9,2024-05-13_09h13.54.412,group3.1-3.2-social-tom,2023.2.2,Win32,59.17159763,65c5074098b851296ff0b7ed,66423c1d4c4348830bcab480,,,,,,,,,,,,,,,,,,,,,,,,,,,,,321.0276,1,audio/Narrative8Situation3.wav,325.0391,,325.0393,347.4229,"[[999,7],[999,83],[999,166],[999,244],[999,333],[999,417],[999,500],[999,583],[999,666],[999,744],[999,832],[999,916],[999,994],[999,1083],[999,1166],[999,1249],[999,1327],[999,1416],[999,1494],[999,1582],[999,1665],[999,1746],[999,1833],[999,1913],[999,2000],[999,2077],[999,2165],[999,2250],[999,2333],[999,2416],[999,2501],[999,2583],[999,2661],[999,2750],[999,2833],[999,2916],[999,3000],[999,3083],[999,3165],[999,3249],[45.1,3333],[48.3,3417],[49.9,3500],[49.9,3583],[49.9,3666],[49.9,3749],[49.9,3833],[50.5,3917],[50.5,3999],[50.5,4083],[50.5,4167],[50.5,4250],[50.5,4332],[50.8,4416],[54.1,4500],[62.1,4583],[67.8,4667],[75.1,4750],[78.3,4833],[79.1,4917],[79.1,4999],[79.1,5083],[79.1,5166],[79.1,5250],[78.4,5333],[77,5416],[76.3,5501],[75.8,5583],[75.8,5666],[75.8,5749],[75.8,5833],[75.8,5916],[75.8,5999],[75.8,6083],[75.8,6166],[75.8,6244],[75.8,6333],[75.8,6416],[75.8,6497],[75.8,6583],[75.8,6666],[75.8,6749],[75.8,6833],[75.8,6916],[75.9,7000],[77.6,7084],[77.6,7165],[77.6,7249],[77.6,7327],[77.6,7416],[77.6,7499],[77,7583],[77,7666],[77,7749],[77,7834],[77.3,7916],[77.3,7999],[77.3,8082],[77.3,8166],[77.3,8250],[77.3,8333],[77.3,8417],[79.3,8500],[81.3,8583],[83,8667],[83.9,8750],[86.5,8834],[86.7,8915],[86.7,9000],[86.7,9083],[86.7,9165],[86.7,9244],[86.7,9330],[86.7,9415],[86.9,9494],[89.1,9583],[90.3,9667],[92.5,9751],[92.5,9833],[94.2,9916],[94.9,9999],[95,10081],[97.7,10166],[98,10250],[98,10333],[99.2,10417],[99.2,10499],[99.2,10582],[99.5,10666],[99.5,10750],[99.5,10833],[99.5,10917],[99.5,10999],[99.5,11083],[99.5,11166],[99.5,11249],[99.5,11327],[99.5,11416],[99.5,11500],[99.5,11578],[99.5,11666],[99.5,11744],[99.5,11827],[99.5,11916],[99.5,12000],[99.5,12078],[99.5,12166],[99.5,12247],[99.5,12328],[99.5,12416],[99.5,12500],[99.5,12581],[99.5,12665],[99.5,12744],[99.5,12833],[99.5,12916],[99.5,12999],[99.5,13082],[99.5,13166],[99.5,13249],[99.5,13333],[99.5,13416],[99.5,13500],[99.5,13583],[99.5,13667],[99.5,13750],[99.5,13833],[99.5,13916],[99.5,13999],[99.5,14083],[99.5,14166],[99.5,14249],[99.5,14333],[99.5,14416],[99.5,14500],[99.5,14583],[99.5,14663],[99.5,14750],[99.5,14833],[99.5,14916],[99.5,15000],[99.5,15083],[99.5,15166],[99.5,15250],[99.5,15333],[99.5,15416],[99.5,15499],[99.5,15582],[99.5,15661],[99.5,15750],[99.5,15833],[99.5,15915],[99.5,15994],[99.5,16082],[99.5,16163],[99.5,16249],[99.5,16330],[99.5,16415],[99.5,16500],[99.5,16577],[99.5,16666],[99.5,16749],[99.5,16832],[99.5,16916],[99.5,17000],[99.5,17083],[99.5,17166],[99.5,17250],[99.5,17328],[99.5,17411],[99.5,17500],[99.5,17583],[99.5,17666],[99.5,17750],[99.5,17833],[99.5,17916],[99.5,18000],[99.5,18082],[99.5,18166],[99.5,18250],[99.5,18333],[99.5,18416],[99.5,18500],[99.5,18583],[99.5,18666],[99.5,18750],[99.5,18833],[99.5,18916],[99.5,18999],[99.5,19083],[99.5,19166],[99.5,19244],[99.5,19332],[99.5,19411],[99.5,19494],[99.5,19583],[99.5,19666],[99.5,19749],[99.5,19833],[99.5,19914],[99.5,19999],[99.5,20083],[99.5,20161],[99.5,20249],[99.5,20333],[99.5,20415],[99.5,20499],[99.5,20583],[99.5,20666],[99.5,20749],[99.5,20832],[99.5,20915],[99.5,21000],[99.5,21080],[99.5,21161],[99.5,21244],[99.5,21333],[99.5,21416],[99.5,21494],[99.5,21583],[99.5,21666],[99.5,21749],[99.5,21832],[99.5,21917],[99.5,21994],[99.5,22083],[99.5,22166],[99.5,22249],[99.5,22333]]",1,0,347.4232,350.8069,99.47916667,1.0102,"[{""rating"":99.47916666666667,""responseTime"":1.0102000000476892}]",space,2.834,,350.807,Definitely yes,100,350.8109,,,[],,0,3,3,3,1,audio/Narrative7Situation3.wav,audio/Narrative8Situation3.wav,audio/Narrative5Situation3.wav,audio/Narrative6Situation3.wav,8,4,3,5,,,,,,,,,,,,,,,,,,,,,,,,,,,,,,,,,,,,,,,
,,,,,,66060f19dda14ccd05dfcef9,2024-05-13_09h13.54.412,group3.1-3.2-social-tom,2023.2.2,Win32,59.17159763,65c5074098b851296ff0b7ed,66423c1d4c4348830bcab480,,,,,,,,,,,,,,,,,,,,,,,,,,,,,350.8111,1,audio/Narrative8Situation4.wav,353.8225,,353.8226,368.0049,"[[999,5],[999,83],[999,166],[999,249],[999,333],[999,411],[999,494],[999,577],[999,661],[999,744],[999,832],[999,916],[999,994],[999,1083],[999,1166],[999,1250],[999,1328],[999,1416],[999,1499],[999,1578],[999,1666],[999,1750],[999,1833],[999,1917],[999,1994],[999,2083],[999,2166],[999,2248],[999,2328],[999,2416],[999,2499],[999,2583],[999,2667],[999,2750],[999,2833],[999,2916],[999,3000],[33,3083],[31,3167],[31,3250],[31,3333],[29.5,3417],[29.7,3500],[45.8,3584],[57.6,3667],[62.6,3750],[64.7,3834],[69.7,3917],[68.9,4000],[68.9,4077],[68.9,4166],[68.9,4249],[68.9,4332],[70.1,4416],[70.2,4500],[73.5,4584],[73.6,4665],[75,4751],[76,4833],[76.1,4911],[76.4,5000],[77.5,5083],[78.4,5167],[78.5,5244],[78.6,5333],[78.8,5417],[77.4,5500],[77.4,5583],[77.4,5667],[77.4,5744],[77.4,5833],[77.4,5911],[77.4,5999],[77.4,6077],[77.4,6166],[77.5,6250],[77.7,6328],[78.1,6416],[81.5,6500],[86.7,6583],[87.5,6667],[92.7,6750],[95,6834],[96.7,6917],[98.2,7000],[99.9,7084],[100,7167],[100,7247],[100,7328],[100,7416],[100,7500],[100,7583],[100,7667],[100,7749],[100,7833],[100,7917],[100,8000],[100,8077],[100,8161],[100,8244],[100,8333],[100,8416],[100,8499],[100,8583],[100,8666],[100,8749],[100,8833],[100,8915],[100,8999],[100,9078],[100,9166],[100,9250],[100,9332],[100,9416],[100,9500],[100,9583],[100,9666],[100,9750],[100,9833],[100,9917],[100,10000],[100,10083],[100,10167],[100,10244],[100,10333],[100,10411],[100,10499],[100,10583],[100,10666],[100,10744],[100,10830],[100,10911],[100,10999],[100,11080],[100,11166],[100,11249],[100,11333],[100,11414],[100,11500],[100,11583],[100,11666],[100,11749],[100,11830],[100,11916],[100,11994],[100,12077],[100,12166],[100,12244],[100,12327],[100,12416],[100,12494],[100,12583],[100,12666],[100,12747],[100,12833],[100,12916],[100,12995],[100,13083],[100,13166],[100,13249],[100,13333],[100,13416],[100,13499],[100,13583],[100,13665],[100,13750],[100,13833],[100,13911],[100,14000],[100,14083],[100,14166]]",1,0,368.0052,377.2735,99.6875,4.8409,"[{""rating"":99.6875,""responseTime"":4.840899999976159}]",space,8.734,,377.2736,Not at all,0,377.2837,,,[],,0,4,4,4,1,audio/Narrative7Situation4.wav,audio/Narrative8Situation4.wav,audio/Narrative5Situation4.wav,audio/Narrative6Situation4.wav,3,3,1,2,,,,,,,,,,,,,,,,,,,,,,,,,,,,,,,,,,,,,,,
,,,,,,66060f19dda14ccd05dfcef9,2024-05-13_09h13.54.412,group3.1-3.2-social-tom,2023.2.2,Win32,59.17159763,65c5074098b851296ff0b7ed,66423c1d4c4348830bcab480,,,,,,,,,,,,,,,,,,,,,,,,,,,,,377.2839,1,audio/Narrative8Situation5.wav,379.2887,,379.2888,387.54,"[[53,1334],[53,1416],[53,1500],[53,1583],[53,1666],[58,1751],[70.9,1834],[72.1,1917],[73.2,2000],[80.5,2083],[80.5,2161],[80.5,2245],[80.5,2333],[79.9,2417],[79.7,2500],[79.7,2583],[77.4,2668],[76.9,2744],[76.9,2828],[76.9,2916],[76.9,3000],[76.9,3084],[76.9,3161],[76.9,3250],[76.9,3328],[76.9,3417],[76.9,3500],[77.7,3584],[77.8,3667],[77.9,3750],[77.9,3833],[77.9,3917],[78,4000],[78,4083],[78,4167],[78,4250],[77.8,4333],[77.8,4417],[77.6,4501],[77.6,4583],[77.6,4661],[77.6,4750],[77.6,4834],[77.6,4911],[77.6,5000],[77.6,5078],[77.6,5166],[77.6,5249],[77.6,5334],[77.6,5416],[77.6,5500],[77.6,5583],[77.6,5666],[77.6,5745],[77.6,5834],[77.6,5916],[79.2,6001],[81.8,6083],[81.8,6167],[81.8,6250],[81.8,6331],[81.8,6417],[81.8,6500],[81.8,6584],[81.8,6666],[79.1,6750],[78.2,6833],[78.2,6916],[77.7,7001],[77.8,7078],[77.8,7167],[77.8,7250],[77.8,7333],[77.8,7417],[77.8,7500],[77.9,7578],[79.3,7667],[79.4,7750],[80.1,7834],[81.1,7917],[84.3,8001],[87.9,8084],[91.1,8168],[98.5,8250]]",1,0,387.5401,389.89,99.79166667,1.5816,"[{""rating"":99.79166666666667,""responseTime"":1.5815999999642258}]",space,1.7993,,389.89,Partially,50,404.7673,49.89583333,11.5205,"[{""rating"":49.895833333333336,""responseTime"":11.52049999999997}]",space,0,5,5,5,1,audio/Narrative7Situation5.wav,audio/Narrative8Situation5.wav,audio/Narrative5Situation5.wav,audio/Narrative6Situation5.wav,5,2,5,2,,,14.3224,,,,,,,,,,,,,,,,,,,,,,,,,,,,,,,,,,,,
,,,,,,66060f19dda14ccd05dfcef9,2024-05-13_09h13.54.412,group3.1-3.2-social-tom,2023.2.2,Win32,59.17159763,65c5074098b851296ff0b7ed,66423c1d4c4348830bcab480,,,,,,,,,,,,,,,,,,,,,,,,,,,,,404.7679,1,audio/Narrative8Situation6.wav,406.7839,,406.7841,413.2678,"[[49.2,2916],[49.1,2999],[49.1,3083],[49.1,3166],[49.1,3249],[49.1,3333],[49.1,3416],[49.1,3500],[55.3,5083],[54,5166],[52.2,5249],[51.9,5333],[51.9,5416],[51.9,5499],[52,5583],[52.1,5666],[52.1,5750],[52.1,5833],[52.1,5917],[52,5999],[51.9,6083],[51.9,6166],[51.9,6249],[51.9,6333],[51.9,6416]]",1,0,413.2681,418.3337,61.5625,3.0644,"[{""rating"":61.5625,""responseTime"":3.0643999999761604}]",space,4.5165,,418.3338,Partially,50,418.3353,,,[],,0,6,6,6,1,audio/Narrative7Situation6.wav,audio/Narrative8Situation6.wav,audio/Narrative5Situation6.wav,audio/Narrative6Situation6.wav,3,2,3,2,,,,,,,,,,,,,,,,,,,,,,,,,,,,,,,,,,,,,,,
,,,,,,66060f19dda14ccd05dfcef9,2024-05-13_09h13.54.412,group3.1-3.2-social-tom,2023.2.2,Win32,59.17159763,65c5074098b851296ff0b7ed,66423c1d4c4348830bcab480,,,,,,,,,,,,,,,,,,,,,,,,,,,,,418.3355,1,audio/Narrative8Situation7.wav,421.3507,,421.3507,433.4505,"[[999,8],[999,83],[999,166],[999,249],[999,332],[999,416],[999,499],[999,583],[999,667],[999,750],[999,833],[999,916],[999,999],[999,1083],[999,1166],[999,1250],[999,1333],[999,1416],[999,1500],[999,1582],[999,1666],[999,1749],[999,1833],[999,1916],[999,2000],[999,2083],[999,2166],[999,2250],[999,2333],[999,2416],[999,2499],[999,2583],[999,2666],[999,2749],[999,2832],[999,2916],[999,2999],[999,3083],[999,3166],[999,3249],[999,3332],[999,3416],[999,3499],[999,3583],[999,3666],[999,3749],[999,3833],[999,3916],[999,3999],[999,4083],[999,4166],[999,4249],[999,4333],[999,4416],[999,4499],[999,4583],[999,4666],[999,4749],[999,4832],[999,4916],[999,4999],[999,5083],[999,5166],[999,5249],[999,5333],[999,5416],[999,5499],[999,5583],[999,5666],[999,5749],[999,5833],[999,5916],[999,6000],[999,6083],[999,6166],[999,6249],[999,6333],[999,6416],[999,6499],[999,6583],[999,6666],[999,6749],[999,6833],[999,6916],[999,6999],[999,7082],[999,7166],[999,7249],[999,7333],[999,7416],[999,7499],[999,7583],[999,7666],[999,7749],[999,7833],[999,7916],[999,8000],[999,8083],[999,8166],[999,8249],[999,8333],[999,8416],[999,8499],[999,8583],[999,8666],[999,8749],[999,8833],[999,8916],[999,8999],[999,9082],[999,9166],[999,9249],[999,9333],[999,9416],[999,9499],[999,9583],[999,9666],[999,9749],[999,9833],[999,9916],[999,9999],[999,10083],[999,10166],[999,10249],[999,10333],[999,10416],[999,10500],[999,10583],[999,10666],[999,10749],[999,10833],[999,10916],[999,10999],[999,11083],[999,11166],[999,11250],[999,11333],[999,11416],[999,11500],[999,11583],[999,11666],[999,11750],[999,11833],[999,11916],[999,11999],[999,12083]]",1,0,433.4507,437.9674,49.89583333,3.1685,"[{""rating"":49.895833333333336,""responseTime"":3.1684999999999945}]",space,3.9717,,437.9675,Not at all,0,437.9717,,,[],,0,7,7,7,1,audio/Narrative7Situation7.wav,audio/Narrative8Situation7.wav,audio/Narrative5Situation7.wav,audio/Narrative6Situation7.wav,5,3,4,5,,,,,,,,,,,,,,,,,,,,,,,,,,,,,,,,,,,,,,,
,,,,,,66060f19dda14ccd05dfcef9,2024-05-13_09h13.54.412,group3.1-3.2-social-tom,2023.2.2,Win32,59.17159763,65c5074098b851296ff0b7ed,66423c1d4c4348830bcab480,,,,,,,,,,,,,,,,,,,,,,,,,,,,,437.9721,1,audio/Narrative8Situation8.wav,440.984,,440.9841,453.8504,"[[999,0],[999,83],[999,166],[999,249],[999,333],[999,416],[999,499],[999,583],[999,667],[999,750],[999,833],[999,916],[999,999],[999,1083],[999,1166],[999,1250],[999,1333],[999,1416],[999,1499],[999,1583],[999,1666],[999,1750],[999,1833],[999,1916],[999,1999],[999,2083],[999,2166],[999,2250],[999,2333],[999,2416],[999,2499],[999,2583],[999,2666],[999,2749],[999,2833],[999,2916],[999,2999],[999,3083],[999,3166],[999,3249],[999,3333],[999,3416],[999,3499],[999,3582],[999,3666],[999,3749],[999,3833],[999,3916],[999,4000],[999,4083],[999,4166],[999,4249],[999,4333],[999,4416],[999,4499],[999,4583],[999,4666],[999,4749],[999,4833],[999,4916],[999,4999],[999,5083],[999,5166],[999,5249],[999,5333],[999,5416],[999,5499],[999,5583],[999,5666],[999,5749],[999,5832],[999,5916],[999,5999],[999,6083],[999,6166],[999,6249],[999,6333],[999,6416],[999,6499],[999,6583],[999,6666],[999,6749],[999,6833],[999,6916],[999,6999],[999,7083],[999,7166],[999,7250],[999,7333],[999,7416],[999,7499],[999,7582],[999,7666],[999,7750],[999,7833],[999,7916],[999,7999],[999,8083],[999,8166],[999,8249],[999,8333],[999,8416],[999,8499],[999,8583],[999,8666],[999,8750],[999,8833],[999,8916],[999,8999],[999,9083],[999,9166],[999,9249],[999,9333],[999,9416],[999,9499],[999,9583],[999,9668],[999,9749],[999,9832],[999,9916],[999,9999],[999,10083],[999,10166],[999,10249],[999,10333],[999,10416],[999,10499],[999,10583],[999,10666],[999,10749],[999,10833],[999,10916],[999,10999],[999,11083],[999,11166],[999,11249],[999,11333],[999,11416],[999,11499],[999,11583],[999,11666],[999,11749],[999,11833],[999,11916],[999,11999],[999,12083],[999,12166],[999,12249],[999,12333],[999,12416],[999,12499],[999,12583],[999,12666],[999,12749],[999,12832]]",1,0,453.8506,461.5508,25.3125,6.0662,"[{""rating"":25.3125,""responseTime"":6.066200000047672}]",space,7.1678,,461.5509,Partially,50,461.5548,,,[],,0,8,8,8,1,audio/Narrative7Situation8.wav,audio/Narrative8Situation8.wav,audio/Narrative5Situation8.wav,audio/Narrative6Situation8.wav,2,3,3,5,,,,,,,,,,,,,,,,,,,,,,,,,,,,,,,,,,,,,,,
,,,,,,66060f19dda14ccd05dfcef9,2024-05-13_09h13.54.412,group3.1-3.2-social-tom,2023.2.2,Win32,59.17159763,65c5074098b851296ff0b7ed,66423c1d4c4348830bcab480,,,,,,,,,,,,,,,,,,,,,,,,,,,,,461.555,1,audio/Narrative8Situation9.wav,464.567,,464.567,475.8842,"[[999,7],[999,83],[999,166],[999,250],[999,333],[999,416],[999,500],[999,583],[999,667],[999,750],[999,834],[999,917],[999,1000],[999,1083],[999,1166],[999,1250],[999,1333],[999,1416],[999,1500],[999,1583],[999,1667],[999,1750],[999,1833],[999,1916],[999,2000],[999,2083],[999,2166],[999,2250],[999,2333],[999,2416],[999,2500],[999,2583],[999,2666],[999,2750],[999,2833],[999,2916],[999,3000],[999,3083],[999,3166],[999,3250],[999,3333],[999,3416],[999,3500],[999,3583],[999,3666],[999,3749],[999,3833],[999,3916],[999,4000],[999,4083],[999,4166],[999,4250],[999,4333],[999,4416],[999,4500],[999,4583],[999,4666],[999,4750],[999,4833],[999,4916],[999,5000],[999,5083],[999,5166],[999,5250],[999,5333],[999,5416],[999,5500],[999,5583],[999,5666],[999,5750],[999,5833],[999,5916],[999,6000],[999,6083],[999,6166],[999,6250],[999,6333],[999,6416],[999,6500],[999,6583],[999,6666],[999,6750],[999,6833],[999,6916],[999,7000],[999,7083],[999,7166],[999,7250],[999,7333],[999,7416],[999,7500],[999,7583],[999,7666],[999,7750],[999,7833],[999,7916],[999,8000],[999,8083],[999,8166],[999,8250],[999,8333],[999,8416],[999,8500],[999,8583],[999,8666],[999,8750],[999,8833],[999,8916],[999,9000],[999,9083],[999,9166],[999,9250],[999,9333],[999,9416],[999,9500],[999,9583],[999,9666],[999,9750],[999,9833],[999,9916],[999,9999],[999,10083],[999,10166],[999,10250],[999,10333],[999,10416],[999,10501],[999,10583],[999,10666],[50.1,10750],[50.2,10833],[50.2,10916],[50.2,11000],[50.2,11083],[50.2,11166],[50.2,11250]]",1,0,475.8843,478.5336,49.89583333,1.4142,"[{""rating"":49.895833333333336,""responseTime"":1.4141999999880568}]",space,2.1062,,478.5337,Partially,50,478.535,,,[],,0,9,9,9,1,audio/Narrative7Situation9.wav,audio/Narrative8Situation9.wav,audio/Narrative5Situation9.wav,audio/Narrative6Situation9.wav,2,3,3,4,,,,,,,,,,,,,,,,,,,,,,,,,,,,,,,,,,,,,,,
,,,,,,66060f19dda14ccd05dfcef9,2024-05-13_09h13.54.412,group3.1-3.2-social-tom,2023.2.2,Win32,59.17159763,65c5074098b851296ff0b7ed,66423c1d4c4348830bcab480,,,,,,,,,,,,,,,,,,,,,,,,,,,,,478.5353,1,audio/Narrative7Situation1.wav,480.5506,,480.5507,536.4506,"[[57.8,1083],[56.4,1166],[55.2,1250],[49.1,2583],[49.1,2666],[49.1,2749],[49.1,2833],[49.2,2916],[49.6,2999],[50.1,3083],[50.1,3166],[50.1,3249],[50.1,3333],[50.1,3416],[50.1,3499],[50.1,3583],[50.1,3666],[50.1,3749],[50,3833],[50.1,3916],[50.1,3999],[50.1,4083],[50.1,4166],[50.1,4249],[50.1,4333],[50.1,4416],[50.1,4499],[49.7,4583],[48,4666],[48,4749],[48,4832],[48.1,4916],[48.3,4999],[48.3,5082],[49.1,5166],[49.2,5249],[49.2,5332],[49.3,5416],[49.4,5499],[49.4,5582],[49.4,5666],[49.4,5749],[49.4,5832],[49.4,5916],[49.4,5999],[49.4,6083],[49.8,6166],[49.8,6249],[49.8,6333],[49.8,6416],[49.8,6499],[49.8,6583],[49.8,6666],[49.8,6749],[49.6,6833],[49.9,6916],[49.9,6999],[49.9,7083],[49.9,7166],[49.9,7249],[49.9,7333],[49.9,7416],[50,7499],[52.9,7583],[53.5,7666],[53.5,7749],[57.5,7833],[66.7,7916],[69.9,7999],[72.4,8083],[75.2,8166],[75.2,8249],[75.5,8333],[77.3,8416],[77.3,8499],[77.4,8583],[77.4,8666],[79.1,8750],[79.1,8833],[79.1,8916],[79.1,8999],[79.6,9083],[79.7,9166],[79.7,9249],[79.7,9333],[80.9,9416],[81,9499],[81,9583],[81,9666],[81,9749],[81,9833],[81,9916],[81,9999],[81,10083],[81,10166],[81,10249],[81,10333],[81,10416],[81,10499],[81,10583],[81,10666],[81,10749],[81,10833],[81,10916],[81,10999],[81,11083],[81,11166],[81,11249],[81,11333],[81.4,11416],[81.9,11499],[81.9,11583],[81.9,11666],[81.9,11749],[81.9,11833],[81.9,11916],[81.9,11999],[81.9,12083],[81.9,12166],[81.9,12249],[81.9,12333],[81.9,12416],[81.8,12500],[81.5,12583],[81.3,12666],[80.9,12749],[80.2,12833],[79.6,12917],[77.9,12999],[76.6,13083],[75.4,13166],[75.3,13249],[75.3,13333],[75.3,13416],[75.3,13499],[75.3,13583],[75.3,13666],[75.3,13749],[75.3,13833],[75.3,13916],[75.3,13999],[75.3,14083],[75.3,14167],[75.3,14249],[75.3,14333],[75.3,14416],[75.3,14499],[75.3,14583],[75.3,14666],[75.3,14749],[75.3,14833],[75.3,14916],[75.3,14999],[75.3,15083],[75.3,15166],[75.3,15249],[75.3,15333],[75.3,15416],[75.3,15499],[75.3,15583],[75.3,15666],[75.3,15749],[75.3,15833],[75.3,15916],[75.3,15999],[75.3,16083],[75.3,16166],[75.3,16249],[75.3,16333],[75.3,16416],[75.3,16499],[75.3,16583],[75.3,16666],[75.3,16749],[75.3,16833],[75.3,16916],[75.3,16999],[75.3,17082],[75.3,17166],[75.3,17249],[75.3,17333],[75.3,17416],[75.3,17499],[75.3,17583],[75.3,17666],[75.3,17749],[75.3,17833],[75.3,17916],[75.3,17999],[75.3,18083],[75.3,18166],[75.3,18249],[75.3,18333],[75.3,18416],[75.3,18499],[75.3,18583],[75.3,18666],[75.3,18749],[75.3,18833],[75.3,18916],[75.3,18999],[75.3,19083],[75.3,19166],[75.3,19250],[75.3,19333],[75.3,19416],[75.3,19499],[75.3,19583],[75.3,19666],[75.3,19749],[75.3,19833],[75.3,19916],[75.3,19999],[75.3,20083],[75.4,20166],[74.9,20249],[74.9,20333],[74.9,20416],[74.9,20499],[74.9,20583],[74.9,20666],[74.8,20749],[75.6,20833],[75.6,20916],[75.6,20999],[75.8,21083],[75.9,21166],[75.9,21249],[75.9,21333],[76.5,21416],[76.6,21500],[76.7,21583],[76.8,21666],[76.9,21749],[77,21833],[77,21916],[77,21999],[75.1,22083],[73.2,22166],[73.1,22249],[73.1,22333],[73.1,22416],[73.1,22499],[73.1,22583],[73.1,22666],[73.1,22749],[73.1,22833],[72.9,22916],[71.8,22999],[71.8,23083],[71.8,23166],[71.8,23249],[71.8,23332],[71.8,23416],[71.8,23499],[71.8,23583],[71.8,23666],[71.8,23749],[70.9,23833],[70.8,23916],[70.8,23999],[70.8,24083],[70.8,24166],[70.8,24249],[70.8,24333],[70.8,24416],[70.8,24499],[70.8,24583],[70.8,24666],[70.7,24749],[69.9,24833],[70.1,24916],[70.1,24999],[70.1,25083],[70.1,25166],[70.1,25249],[69.8,25333],[69.7,25416],[69.7,25499],[69.7,25583],[69.7,25666],[69.7,25749],[69.7,25833],[69.7,25916],[69.7,25999],[69.7,26083],[69.7,26166],[69.7,26249],[70.5,26333],[71.1,26417],[75.4,26499],[75.5,26583],[75.5,26666],[75.5,26749],[75.5,26833],[75.5,26916],[75.5,26999],[75.5,27083],[75.5,27166],[75.5,27249],[75.5,27333],[75.5,27416],[75.5,27499],[75.5,27583],[75.5,27666],[75.5,27749],[75.5,27833],[75.5,27916],[75.5,27999],[75.5,28082],[75.5,28166],[75.5,28249],[75.5,28333],[75.5,28416],[75.5,28499],[75.5,28583],[75.5,28666],[75.5,28749],[75.5,28833],[75.5,28916],[75.5,28999],[75.5,29083],[75.5,29166],[75.5,29249],[75.5,29333],[75.5,29416],[75.5,29499],[75.5,29583],[75.5,29666],[75.5,29749],[75.5,29833],[75.5,29916],[75.6,29999],[74.6,30083],[74.6,30166],[74.6,30249],[74.6,30333],[74.6,30416],[74.6,30499],[74.6,30583],[74.6,30666],[74.6,30749],[74.6,30833],[74.6,30916],[74.6,30999],[74.6,31083],[74.9,31166],[74.9,31249],[74.9,31333],[74.9,31416],[75,31499],[75,31583],[75,31666],[75,31750],[75,31833],[75,31916],[75,31999],[75,32083],[75,32166],[75,32249],[75,32333],[75,32416],[75,32499],[75,32583],[75,32666],[75,32749],[75,32832],[75,32916],[75,32999],[75,33083],[75,33166],[75,33249],[75,33333],[75,33416],[75,33499],[75,33583],[75,33666],[75,33749],[75,33832],[75,33916],[75,33999],[75,34082],[75,34166],[75,34249],[75,34333],[75,34416],[75,34499],[75,34583],[75,34666],[75,34749],[75,34833],[75,34916],[75,34999],[75,35083],[75,35166],[75,35249],[75,35333],[75,35416],[75,35499],[75,35583],[75,35666],[75,35749],[75,35832],[75,35916],[75,35999],[75,36083],[75,36166],[75,36249],[75,36333],[75,36416],[75,36499],[75,36583],[75,36666],[75,36749],[75,36833],[75,36916],[75,36999],[75,37083],[75,37166],[75,37249],[75,37333],[75,37416],[75,37499],[75,37583],[75,37666],[75,37749],[75,37833],[75,37916],[75,37999],[75,38083],[75,38166],[75,38249],[75,38333],[75,38416],[75,38499],[75,38583],[75,38666],[75,38749],[75,38833],[75,38916],[75,38999],[75,39083],[75,39166],[75,39249],[75,39333],[75,39416],[75,39499],[75,39583],[75,39666],[75,39749],[75,39833],[75,39916],[75,39999],[75,40083],[75,40166],[75,40249],[75,40333],[75,40416],[75,40499],[75,40583],[75,40666],[75,40749],[75,40832],[75,40916],[75,40999],[75,41083],[75,41166],[75,41249],[75,41333],[75,41416],[75,41499],[75,41583],[75,41666],[75,41749],[75,41833],[75,41916],[75,41999],[75,42083],[75,42166],[75,42249],[75,42333],[75,42416],[75,42499],[75,42583],[75,42666],[75,42749],[75,42833],[75,42916],[75,42999],[75,43083],[75,43166],[75,43249],[75,43333],[75,43416],[75,43499],[75,43583],[75,43666],[75,43749],[75,43833],[75,43916],[75,43999],[75,44083],[75,44166],[75,44249],[75,44333],[75,44416],[75,44499],[75.1,46166],[75.1,46250],[74.8,46333],[74.8,46416],[74.8,46499],[74.8,46583],[74.8,46666],[74.8,46749],[74.8,46833],[74.8,46916],[74.8,46999],[77.3,47083],[81,47166],[82.5,47249],[82.5,47333],[84.4,47416],[84.5,47499],[84.8,47583],[84.8,47666],[84.8,47749],[84.8,47833],[84.8,47916],[84.8,47999],[84.8,48083],[84.8,48166],[84.8,48249],[84.8,48333],[84.8,48416],[84.8,48499],[84.8,48583],[84.8,48666],[84.8,48749],[84.8,48833],[84.8,48916],[84.9,48999],[85.1,49082],[85.1,49166],[85.1,49249],[85.1,49333],[85.1,49416],[85.1,49499],[85.1,49583],[85.1,49666],[85.1,49750],[85.1,49833],[85.1,49916],[85.1,49999],[85.1,50083],[85.1,50166],[85.1,50249],[85.1,50332],[85.1,50416],[85.1,50499],[85.1,50583],[85.1,50666],[85.1,50749],[85.1,50832],[85.1,50916],[85.1,50999],[85.1,51083],[85.1,51166],[85.1,51249],[85.1,51333],[85.1,51416],[85.1,51499],[85.1,51583],[85.1,51666],[85.1,51749],[85.1,51833],[85.1,51916],[85.1,51999],[85.1,52083],[85.1,52166],[85.1,52249],[85.1,52333],[85.1,52416],[85.1,52499],[85.1,52582],[85.1,52666],[85.1,52749],[85.1,52833],[85.1,52916],[85.1,52999],[85.1,53083],[85.1,53166],[85.1,53249],[85.1,53333],[85.1,53416],[85.1,53499],[85.1,53583],[85.1,53666],[85.1,53749],[85.1,53833],[85.1,53916],[85.1,53999],[85.1,54082],[85.1,54166],[85.1,54249],[85.1,54332],[85.1,54416],[85.1,54499],[85.1,54583],[85.1,54666],[85.1,54749],[85.1,54833],[85.1,54916],[85.1,54999],[85.1,55083],[85.1,55166],[85.1,55249],[85.1,55333],[85.1,55416],[85.1,55499],[85.1,55582],[85.1,55666],[85.1,55749],[85.1,55833]]",1,0,536.4509,539.4174,76.97916667,1.5,"[{""rating"":76.97916666666667,""responseTime"":1.5}]",space,2.4167,,539.4174,Partially,50,539.42,,,[],,0,10,10,10,1,audio/Narrative8Situation1.wav,audio/Narrative7Situation1.wav,audio/Narrative6Situation1.wav,audio/Narrative5Situation1.wav,5,2,2,5,,,,,,,,,,,,,,,,,,,,,,,,,,,,,,,,,,,,,,,
,,,,,,66060f19dda14ccd05dfcef9,2024-05-13_09h13.54.412,group3.1-3.2-social-tom,2023.2.2,Win32,59.17159763,65c5074098b851296ff0b7ed,66423c1d4c4348830bcab480,,,,,,,,,,,,,,,,,,,,,,,,,,,,,539.4203,1,audio/Narrative7Situation2.wav,542.434,,542.4341,549.9173,"[[999,0],[999,82],[999,166],[999,249],[999,333],[999,416],[999,499],[999,582],[999,666],[999,750],[999,833],[999,916],[999,999],[999,1082],[999,1166],[999,1249],[999,1333],[999,1416],[999,1499],[999,1583],[999,1666],[61.4,1749],[65.4,2666],[66.3,2749],[67.6,2833],[67.7,2916],[67.7,2999],[67.7,3082],[67.7,3166],[67.7,3249],[67.7,3333],[67.7,3416],[67.7,3499],[67.7,3583],[69.6,3666],[69.7,3749],[69.7,3832],[69.7,3916],[69.7,3999],[69.7,4082],[69.7,4166],[69.7,4249],[69.9,4333],[69.9,4416],[69.9,4499],[69.9,4582],[70.4,4666],[71.7,4749],[71.8,4832],[72,4916],[73,5000],[74.7,5082],[77.4,5166],[79.6,5249],[83,5333],[85.5,5416],[86.4,5499],[88.1,5582],[91,5666],[93.1,5749],[96.3,5833],[99.9,5916],[100,5999],[100,6082],[100,6166],[100,6249],[100,6332],[100,6416],[100,6499],[100,6583],[100,6666],[100,6749],[100,6833],[100,6916],[100,6999],[100,7082],[100,7166],[100,7249],[100,7332],[100,7416]]",1,0,549.9175,551.8005,99.58333333,0.957,"[{""rating"":99.58333333333333,""responseTime"":0.9569999999999936}]",space,1.3376,,551.8005,Definitely yes,100,551.8034,,,[],,0,11,11,11,1,audio/Narrative8Situation2.wav,audio/Narrative7Situation2.wav,audio/Narrative6Situation2.wav,audio/Narrative5Situation2.wav,3,3,3,3,,,,,,,,,,,,,,,,,,,,,,,,,,,,,,,,,,,,,,,
,,,,,,66060f19dda14ccd05dfcef9,2024-05-13_09h13.54.412,group3.1-3.2-social-tom,2023.2.2,Win32,59.17159763,65c5074098b851296ff0b7ed,66423c1d4c4348830bcab480,,,,,,,,,,,,,,,,,,,,,,,,,,,,,551.8036,1,audio/Narrative7Situation3.wav,559.8171,,559.8172,569.0676,"[[50.8,667],[50.6,750],[50.6,834],[50.6,916],[50.6,1000],[48.4,1083],[48.1,1166],[48.1,1249],[48.1,1333],[48.1,1416],[47.9,1500],[48.4,1583],[48.6,1666],[48.6,1749],[49.1,1833],[49.1,1916],[49.3,1999],[49.5,2083],[49.6,2166],[49.7,2249],[49.8,2333],[49.9,2416],[49.9,2500],[49.9,2583],[49.9,2666],[49.9,2750],[49.9,2833],[49.9,2916],[49.9,2999],[49.9,3083],[49.9,3166],[49.9,3249],[49.9,3333],[49.9,3416],[49.9,3500],[49.9,3583],[49.9,3666],[49.9,3750],[49.9,3833],[49.9,3916],[49.9,3999],[49.9,4083],[49.9,4166],[49.9,4249],[49.9,4333],[49.9,4416],[49.9,4499],[49.9,4583],[49.9,4666],[49.9,4749],[49.9,4833],[49.9,4916],[49.9,5000],[49.9,5084],[49.9,5166],[49.9,5249],[49.9,5333],[49.9,5416],[49.9,5500],[49.9,5583],[49.9,5666],[49.9,5749],[49.9,5833],[49.9,5916],[49.9,5999],[49.9,6083],[49.9,6166],[49.9,6250],[49.9,6333],[49.9,6416],[49.9,6499],[49.9,6583],[49.9,6666],[49.9,6750],[49.9,6833],[49.9,6916],[49.9,7000],[49.9,7083],[49.9,7166],[49.9,7249],[49.9,7333],[49.9,7416],[49.9,7500],[49.9,7583],[49.9,7666],[49.9,7750],[49.9,7833],[49.9,7916],[49.9,8000],[49.9,8083],[49.9,8166],[49.9,8249],[49.9,8333],[49.9,8416],[49.9,8499],[49.9,8583],[49.9,8667],[49.9,8750],[49.9,8833],[49.9,8916],[49.9,9000],[49.9,9083],[49.9,9166],[49.9,9250]]",1,0,569.0678,573.3839,0.104166667,2.2471,"[{""rating"":0.1041666666666663,""responseTime"":2.2471000000238064}]",space,3.7673,,573.3841,Not at all,0,573.3885,,,[],,0,12,12,12,1,audio/Narrative8Situation3.wav,audio/Narrative7Situation3.wav,audio/Narrative6Situation3.wav,audio/Narrative5Situation3.wav,4,8,5,3,,,,,,,,,,,,,,,,,,,,,,,,,,,,,,,,,,,,,,,
,,,,,,66060f19dda14ccd05dfcef9,2024-05-13_09h13.54.412,group3.1-3.2-social-tom,2023.2.2,Win32,59.17159763,65c5074098b851296ff0b7ed,66423c1d4c4348830bcab480,,,,,,,,,,,,,,,,,,,,,,,,,,,,,573.3887,1,audio/Narrative7Situation4.wav,576.4005,,576.4007,588.134,"[[48.2,500],[50.6,582],[50.8,683],[50.8,767],[50.7,850],[47.3,933],[44.9,1016],[44.9,1099],[44.9,1183],[46.4,1266],[46.9,1349],[48.3,1433],[48.6,1516],[48.6,1599],[48.9,1682],[49.3,1766],[49.4,1849],[49.6,1932],[49.6,2016],[49.4,2099],[45.7,2183],[43.5,2266],[41,2349],[39,2433],[37.2,2516],[36.8,2599],[36.8,2683],[36.8,2766],[35.4,2849],[34.9,2933],[33,3016],[28.6,3099],[24.9,3183],[21.1,3266],[17.1,3349],[14.6,3433],[12.6,3516],[9.2,3599],[6.6,3683],[6.1,3766],[4.5,3850],[4,3933],[4,4016],[4,4099],[3.9,4183],[3.8,4266],[3.6,4349],[2.6,4433],[2.5,4516],[2.5,4599],[2.5,4683],[2.5,4766],[2.5,4849],[2.5,4933],[2.5,5016],[2.5,5099],[2.5,5183],[2.5,5266],[2.5,5349],[2.5,5433],[2.5,5516],[2.5,5599],[2.5,5682],[2.5,5766],[2.5,5849],[2.5,5932],[2.5,6016],[2.5,6099],[2.5,6183],[4.7,6266],[10.1,6349],[13.2,6433],[23.2,6516],[28.5,6599],[33,6683],[41.1,6766],[46.8,6849],[48.4,6933],[51.5,7016],[49.8,7100],[49.8,7183],[49.8,7266],[49.8,7349],[49.8,7432],[49.8,7516],[49.8,7599],[49.8,7683],[49.8,7766],[49.8,7849],[49.8,7932],[50.2,8016],[55.1,8099],[62.6,8183],[70.7,8266],[75.1,8350],[78.1,8433],[79.4,8516],[79.4,8599],[79.4,8683],[79.4,8766],[79.1,8849],[78,8933],[77.1,9016],[77.1,9099],[77.1,9183],[77.1,9266],[77.1,9349],[77.1,9433],[77.1,9516],[77.1,9599],[77.1,9683],[77.1,9766],[77.1,9849],[77.1,9932],[77.1,10016],[77.1,10099],[77.1,10183],[77.1,10266],[77.1,10349],[77.1,10432],[77.1,10516],[77.1,10599],[77.1,10683],[77.1,10766],[77.1,10850],[77.8,10933],[87.3,11016],[87.3,11099],[87.3,11183],[87.3,11266],[87.3,11349],[87.3,11433],[87.3,11516],[87.3,11599],[87.3,11683]]",1,0,588.1341,589.8339,87.29166667,0.5395,"[{""rating"":87.29166666666667,""responseTime"":0.5394999999999754}]",space,1.1615,,589.8341,Partially,50,589.839,,,[],,0,13,13,13,1,audio/Narrative8Situation4.wav,audio/Narrative7Situation4.wav,audio/Narrative6Situation4.wav,audio/Narrative5Situation4.wav,3,3,2,1,,,,,,,,,,,,,,,,,,,,,,,,,,,,,,,,,,,,,,,
,,,,,,66060f19dda14ccd05dfcef9,2024-05-13_09h13.54.412,group3.1-3.2-social-tom,2023.2.2,Win32,59.17159763,65c5074098b851296ff0b7ed,66423c1d4c4348830bcab480,,,,,,,,,,,,,,,,,,,,,,,,,,,,,589.8392,1,audio/Narrative7Situation5.wav,594.8504,,594.8504,603.334,"[[999,6],[999,83],[999,166],[999,249],[999,333],[999,416],[50,500],[50,583],[49.9,667],[49.9,750],[49.9,834],[50.4,917],[50.4,1000],[50.4,1083],[50.4,1166],[51.7,1250],[51.9,1333],[51.7,1416],[47.9,1500],[39.3,1583],[29.7,1666],[28,1750],[22.8,1833],[18.8,1916],[13.8,2000],[12.6,2083],[12,2166],[8.8,2250],[6.5,2333],[4.1,2416],[1,2500],[1,2583],[1,2666],[1,2750],[1,2833],[1,2916],[1,3000],[1,3083],[1,3166],[1,3250],[1,3333],[1,3417],[1,3500],[1,3583],[1,3666],[1,3750],[1.1,3833],[1.6,3916],[1.6,4000],[1.6,4083],[1.6,4166],[1.6,4250],[1.6,4333],[1.6,4417],[1.6,4500],[1.6,4583],[1.6,4666],[1.6,4750],[1.6,4833],[1.6,4916],[1.6,5000],[1.6,5083],[1.6,5166],[1.6,5250],[1.6,5333],[1.6,5417],[1.6,5500],[1.6,5583],[1.6,5667],[1.6,5750],[1.6,5833],[1.6,5916],[1.6,6000],[1.6,6083],[1.6,6166],[1.6,6250],[1.6,6333],[1.6,6416],[1.6,6499],[1.6,6583],[1.6,6666],[1.6,6750],[1.6,6833],[1.6,6916],[1.6,6999],[1.6,7083],[1.6,7166],[1.6,7250],[1.6,7333],[1.6,7416],[1.6,7500],[1.6,7583],[1.6,7666],[1.6,7750],[1.6,7833],[1.6,7916],[1.6,7999],[1.6,8083],[1.6,8166],[1.6,8249],[1.6,8333],[1.6,8416]]",1,0,603.3341,606.1839,0.208333333,1.5081,"[{""rating"":0.2083333333333326,""responseTime"":1.5080999999642017}]",space,2.3046,,606.1839,Definitely yes,100,606.1866,,,[],,0,14,14,14,1,audio/Narrative8Situation5.wav,audio/Narrative7Situation5.wav,audio/Narrative6Situation5.wav,audio/Narrative5Situation5.wav,2,5,2,5,,,,,,,,,,,,,,,,,,,,,,,,,,,,,,,,,,,,,,,
,,,,,,66060f19dda14ccd05dfcef9,2024-05-13_09h13.54.412,group3.1-3.2-social-tom,2023.2.2,Win32,59.17159763,65c5074098b851296ff0b7ed,66423c1d4c4348830bcab480,,,,,,,,,,,,,,,,,,,,,,,,,,,,,606.1867,1,audio/Narrative7Situation6.wav,609.2007,,609.2009,619.1841,"[[999,0],[999,82],[999,165],[999,249],[999,332],[43,416],[46.6,499],[46.9,583],[48.5,666],[47.8,749],[47.8,833],[47.8,916],[48.3,999],[49.2,1083],[49.3,1166],[49.3,1249],[49.3,1332],[49.3,1416],[49.3,1499],[49.3,1582],[49.3,1666],[49.3,1749],[49.3,1832],[49.3,1916],[49.3,1999],[49.3,2082],[49.3,2166],[49.3,2249],[49.3,2332],[49.3,2416],[49.3,2499],[49.4,2582],[53.6,2666],[58.5,2749],[60.4,2832],[65.7,2916],[67.6,2999],[69,3082],[71.6,3166],[71.9,3249],[71.9,3332],[71.9,3416],[71.9,3499],[71.9,3582],[71.4,3666],[71.1,3749],[77.3,3832],[80.5,3916],[80.5,3999],[80.5,4082],[80.5,4166],[79.8,4249],[79.6,4332],[79,4416],[78.5,4499],[78.5,4582],[78.5,4666],[78.5,4749],[78.5,4832],[78.5,4916],[78.5,4999],[78.5,5082],[78.5,5166],[78.9,5249],[86.8,5332],[87.2,5415],[87.2,5499],[87.2,5582],[87.2,5666],[89.7,5749],[89.7,5832],[89.7,5915],[89.7,5999],[89.8,6082],[89.8,6166],[89.7,6249],[89.7,6332],[89.7,6416],[89.7,6499],[89.7,6582],[89.7,6666],[89.7,6749],[89.7,6832],[89.7,6915],[89.7,6999],[89.7,7082],[89.7,7166],[89.7,7249],[89.7,7332],[89.7,7416],[89.7,7499],[89.7,7582],[89.7,7665],[89.7,7749],[89.7,7832],[89.7,7916],[89.7,7999],[89.7,8082],[89.7,8165],[89.7,8249],[89.7,8332],[89.7,8416],[89.7,8499],[89.7,8582],[89.7,8666],[89.7,8749],[89.7,8832],[89.7,8915],[89.7,8999],[92.7,9082],[97,9166],[100,9249],[100,9332],[100,9416],[100,9499],[100,9582],[100,9666],[100,9749],[100,9832],[100,9916]]",1,0,619.1842,623.7005,99.89583333,1.3899,"[{""rating"":99.89583333333334,""responseTime"":1.3898999999761372}]",space,3.9673,,623.7006,Not at all,0,623.7036,,,[],,0,15,15,15,1,audio/Narrative8Situation6.wav,audio/Narrative7Situation6.wav,audio/Narrative6Situation6.wav,audio/Narrative5Situation6.wav,2,3,2,3,,,,,,,,,,,,,,,,,,,,,,,,,,,,,,,,,,,,,,,
,,,,,,66060f19dda14ccd05dfcef9,2024-05-13_09h13.54.412,group3.1-3.2-social-tom,2023.2.2,Win32,59.17159763,65c5074098b851296ff0b7ed,66423c1d4c4348830bcab480,,,,,,,,,,,,,,,,,,,,,,,,,,,,,623.7037,1,audio/Narrative7Situation7.wav,628.717,,628.717,645.9057,"[[50.4,83],[50.3,166],[50.3,249],[50.3,333],[50.3,416],[50.3,500],[50.3,583],[50.3,666],[50.3,750],[50.5,834],[50.6,916],[50.7,1018],[50.9,1105],[50.9,1183],[50.9,1271],[50.9,1355],[50.9,1433],[50.9,1521],[50.9,1605],[50.9,1683],[50.8,1771],[50.4,1855],[50.3,1937],[50.2,2021],[50,2104],[50,2188],[50,2271],[50,2354],[50,2438],[50,2516],[50,2605],[50,2688],[50,2766],[50,2850],[50,2938],[50,3021],[50,3100],[50,3188],[50,3271],[50,3349],[50,3433],[50,3516],[50,3604],[50,3688],[50,3771],[50,3854],[50,3933],[50,4016],[50,4102],[50,4188],[50,4271],[50,4354],[50,4438],[50,4521],[50,4604],[50,4683],[50,4771],[50,4854],[50,4933],[50,5016],[50,5099],[50,5188],[50,5266],[50,5349],[50,5438],[50,5516],[50,5604],[50,5683],[50,5766],[50,5855],[50,5937],[50,6016],[50,6104],[50,6188],[50,6266],[50,6355],[50,6435],[50,6521],[50,6599],[50,6688],[50,6771],[50,6849],[50,6937],[50,7021],[50,7099],[50,7187],[50,7271],[50,7354],[50,7433],[50,7521],[50,7604],[50,7683],[50,7771],[50,7854],[50,7933],[50,8021],[50,8104],[50,8183],[50,8271],[50,8350],[50,8438],[50,8521],[50,8599],[50,8683],[50,8766],[50,8854],[50,8933],[50,9018],[50,9105],[50,9188],[50,9271],[50,9354],[50,9437],[50,9521],[50,9605],[50,9688],[50,9766],[50,9854],[50,9933],[50,10021],[50,10104],[50,10187],[50,10270],[50,10355],[50,10438],[50,10521],[50,10604],[50,10683],[50,10771],[50,10854],[50,10937],[50,11016],[50,11104],[50,11185],[50,11271],[50,11349],[50,11438],[50,11516],[50,11604],[50,11683],[50,11766],[50,11854],[50,11933],[50,12018],[50,12104],[50,12183],[50,12266],[50,12354],[50,12438],[50,12516],[50,12599],[50,12687],[50,12771],[50,12855],[50,12938],[50,13021],[50,13104],[50,13187],[50,13266],[50,13354],[50,13433],[50,13519],[50,13604],[50,13688],[50,13766],[50,13855],[50,13933],[50,14016],[50,14104],[50,14183],[50,14271],[50,14355],[50,14433],[50,14521],[50,14604],[50,14688],[51.5,14771],[51.8,14854],[51.8,14938],[51.8,15021],[51.8,15099],[51.6,15188],[51.3,15266],[51,15354],[50.8,15433],[50.7,15522],[50.6,15605],[50.6,15688],[50.5,15771],[50.5,15852],[50.5,15938],[50.5,16021],[50.5,16099],[50.5,16183],[50.5,16271],[50.5,16352],[50.5,16433],[50.5,16521],[50.5,16604],[53,16688],[56.6,16772],[62.4,16855],[65.7,16938],[71.1,17022],[77,17105],[78.4,17188]]",1,0,645.9057,653.322,88.4375,1.1,"[{""rating"":88.4375,""responseTime"":1.1000000000000227}]",space,6.88,,653.3221,Not at all,0,653.3275,,,[],,0,16,16,16,1,audio/Narrative8Situation7.wav,audio/Narrative7Situation7.wav,audio/Narrative6Situation7.wav,audio/Narrative5Situation7.wav,3,5,5,4,,,,,,,,,,,,,,,,,,,,,,,,,,,,,,,,,,,,,,,
,,,,,,66060f19dda14ccd05dfcef9,2024-05-13_09h13.54.412,group3.1-3.2-social-tom,2023.2.2,Win32,59.17159763,65c5074098b851296ff0b7ed,66423c1d4c4348830bcab480,,,,,,,,,,,,,,,,,,,,,,,,,,,,,653.3276,1,audio/Narrative7Situation8.wav,655.3337,,655.3339,665.3553,"[[999,0],[999,87],[999,166],[999,249],[999,332],[999,420],[999,499],[999,585],[999,666],[999,749],[999,832],[999,921],[999,1004],[999,1087],[999,1171],[999,1249],[999,1338],[999,1421],[999,1504],[999,1587],[999,1666],[999,1754],[999,1832],[999,1916],[999,2004],[999,2083],[999,2171],[999,2254],[999,2333],[999,2416],[999,2504],[999,2582],[999,2666],[999,2749],[999,2838],[999,2916],[999,3004],[999,3088],[999,3171],[999,3254],[50.3,3338],[49.8,3421],[49.8,3504],[48.9,3588],[48.9,3668],[48.9,3754],[48.9,3832],[48.9,3921],[48.9,4004],[49.2,4088],[49.2,4171],[49.2,4254],[49.2,4333],[49.2,4416],[49.2,4504],[49.2,4583],[49.3,4671],[49.5,4754],[49.5,4833],[49.7,4921],[49.7,5001],[49.7,5087],[49.8,5166],[50.4,5254],[50.4,5337],[50.4,5421],[50.4,5499],[53.4,5588],[58.3,5671],[69.1,5754],[73.6,5838],[80.4,5921],[81.4,6004],[81.4,6088],[81.8,6171],[82.2,6255],[83.2,6338],[81.8,6421],[81,6504],[81,6583],[81,6671],[81,6754],[79.2,6838],[79.9,6921],[81.8,7005],[87.9,7087],[92.7,7172],[93.2,7249],[93.2,7333],[93.2,7416],[93.2,7499],[93.2,7587],[93.2,7671],[93.2,7754],[93.2,7838],[93.2,7916],[93.2,8005],[93.2,8088],[93.2,8171],[93.2,8249],[93.2,8333],[93.2,8419],[93.2,8503],[93.2,8583],[93.2,8671],[93.2,8754],[93.2,8838],[93.2,8920],[93.4,9005],[100,9083],[100,9166],[100,9249],[100,9338],[100,9416],[100,9504],[100,9588],[100,9671],[100,9753],[100,9835],[100,9921],[100,9999]]",1,0,665.3554,667.4887,99.47916667,0.9,"[{""rating"":99.47916666666667,""responseTime"":0.8999999999999773}]",space,1.576,,667.4888,Partially,50,667.4902,,,[],,0,17,17,17,1,audio/Narrative8Situation8.wav,audio/Narrative7Situation8.wav,audio/Narrative6Situation8.wav,audio/Narrative5Situation8.wav,3,2,5,3,,,,,,,,,,,,,,,,,,,,,,,,,,,,,,,,,,,,,,,
,,,,,,66060f19dda14ccd05dfcef9,2024-05-13_09h13.54.412,group3.1-3.2-social-tom,2023.2.2,Win32,59.17159763,65c5074098b851296ff0b7ed,66423c1d4c4348830bcab480,,,,,,,,,,,,,,,,,,,,,,,,,,,,,667.4904,1,audio/Narrative7Situation9.wav,669.5002,,669.5002,678.123,"[[50.8,672],[50.8,755],[49.5,838],[48.9,921],[48.9,1004],[49,1088],[49.3,1166],[49.4,1255],[50,1338],[50,1421],[50,1504],[50,1588],[50,1671],[50,1755],[50,1838],[52.8,1923],[54,2005],[54,2088],[55.5,2172],[64.3,2256],[74.4,2339],[84.7,2422],[90.6,2500],[97.2,2588],[100,2672],[100,2755],[100,2839],[100,2922],[100,3000],[100,3088],[100,3172],[100,3256],[99.9,3339],[99.9,3422],[99.9,3500],[99.9,3589],[99.9,3672],[99.9,3755],[100,3839],[100,3916],[100,4005],[100,4083],[100,4172],[100,4256],[100,4339],[100,4416],[100,4505],[100,4589],[100,4671],[100,4755],[100,4833],[100,4921],[100,5005],[100,5083],[100,5166],[100,5250],[100,5339],[100,5422],[100,5505],[100,5588],[100,5672],[100,5756],[100,5839],[100,5922],[100,6000],[100,6089],[100,6171],[100,6255],[100,6339],[100,6416],[100,6505],[100,6586],[100,6671],[100,6756],[100,6836],[100,6922],[100,7004],[100,7089],[100,7172],[100,7256],[100,7338],[100,7422],[100,7505],[100,7589],[100,7666],[100,7755],[100,7837],[100,7922],[100,8005],[100,8089],[100,8172],[100,8250],[100,8338],[100,8422],[100,8505],[100,8589]]",1,0,678.1233,679.9902,99.79166667,0.9076,"[{""rating"":99.79166666666667,""responseTime"":0.9075999999643045}]",space,1.3009,,679.9903,Definitely yes,100,679.9943,,,[],,0,18,18,18,1,audio/Narrative8Situation9.wav,audio/Narrative7Situation9.wav,audio/Narrative6Situation9.wav,audio/Narrative5Situation9.wav,3,2,4,3,,,,,,,,,,,,,,,,,,,,,,,,,,,,,,,,,,,,,,,
,,,,,,66060f19dda14ccd05dfcef9,2024-05-13_09h13.54.412,group3.1-3.2-social-tom,2023.2.2,Win32,59.17159763,65c5074098b851296ff0b7ed,66423c1d4c4348830bcab480,,,,,,,,,,,,,,,,,,,,,,,,,,,739.99,742.5675,742.5773,2,audio/Narrative13Situation2.wav,742.5773,,742.5773,772.3559,"[[68.4,18833],[66.1,18911],[62.6,18995],[62.6,19078],[62.6,19156],[62.6,19245],[61.7,19328],[61.7,19411],[53,19495],[49.2,19573],[49.2,19662],[49.2,19739],[49.2,19828],[50,19912],[50.8,19995],[50.9,20078],[50.9,20161],[50.9,20244],[50.9,20328],[50.9,20406],[50.9,20489],[50.9,20577],[50.8,20661],[50.8,20745],[49.8,20823],[49.7,20911],[49.7,20989],[49.7,21078],[49.7,21156],[49.7,21239],[49.7,21328],[49.4,21412],[47.9,21495],[47.9,21578],[47.9,21662],[47.9,21740],[46.9,21828],[46.9,21910],[46.9,21995],[48.4,22078],[51.5,22162],[52.3,22239],[52.3,22323],[51.8,22412],[50.8,22489],[50.4,22578],[50.3,22662],[50.2,22744],[50.2,22823],[50.2,22908],[50.2,22989],[50.1,23073],[50.1,23161],[50.1,23240],[50.1,23323],[51,23412],[51.4,23494],[51.4,23573],[51.4,23656],[51,23744],[50.2,23828],[50,23906],[50,23994],[50,24078],[50,24161],[50,24244],[50,24323],[50,24406],[50,24493],[50,24572],[50,24661],[50,24744],[50,24827],[50,24911],[50,24995],[50,25072],[50,25156],[50,25239],[50,25328],[50,25412],[50,25492],[50,25578],[50,25661],[50,25739],[50,25823],[50,25906],[50,25995],[50,26078],[50,26161],[50,26245],[50,26328],[50.8,26411],[49.9,26495],[49.9,26572],[49.9,26661],[49.9,26739],[49.9,26828],[49.9,26911],[49.1,26995],[48.3,27078],[48.2,27156],[47.8,27244],[47.8,27328],[47.8,27411],[47.8,27495],[47.8,27573],[47.8,27662],[47.8,27739],[48,27828],[48.1,27906],[48.1,27995],[48.4,28078],[48.4,28156],[48.5,28244],[48.5,28325],[49.1,28412],[49.1,28495],[49.7,28578],[49.7,28656],[49.7,28744],[49.7,28828],[49.8,28911],[49.8,28995],[49.8,29075],[49.8,29161],[49.8,29245],[49.8,29323],[49.8,29411],[49.8,29489],[49.8,29575],[49.8,29661],[49.8,29739]]",1,0,772.3561,772.3577,,,[],,,,772.3577,Partially,50,772.3596,,,[],,0,0,0,0,1,audio/Narrative13Situation2.wav,audio/Narrative13Situation2.wav,audio/Narrative13Situation2.wav,audio/Narrative13Situation2.wav,2,2,2,2,,,,,679.9952,739.985,,,,,,,,,,,,,,,,,,,,,,,,,,,,,,,,,
,,,,,,66060f19dda14ccd05dfcef9,2024-05-13_09h13.54.412,group3.1-3.2-social-tom,2023.2.2,Win32,59.17159763,65c5074098b851296ff0b7ed,66423c1d4c4348830bcab480,,,,,,,,,,,,,,,,,,,,,,,,,,,,,772.3598,2,audio/Narrative6Situation1.wav,774.3669,,774.367,800.9395,"[[51.1,172],[48.8,673],[49.9,755],[50.2,833],[50.2,922],[50.2,1004],[50.2,1088],[50.2,1166],[50.2,1249],[50.2,1333],[50.2,1419],[50.2,1505],[50.2,1587],[49.2,1667],[48.4,1756],[48.3,1833],[48.2,1922],[47.1,2006],[47.1,2088],[47.1,2166],[47.1,2249],[47.1,2338],[47.1,2416],[47.1,2505],[47,2588],[48.8,2672],[48.9,2755],[48.9,2838],[49.2,2922],[49.2,3000],[49.2,3083],[49.2,3172],[49.2,3255],[49.2,3333],[49.2,3422],[49.3,3504],[49.3,3588],[49.3,3671],[49.3,3750],[49.3,3833],[49.4,3920],[49.6,4004],[49.6,4088],[50,4173],[49.5,4254],[49.5,4333],[49.5,4422],[49.5,4505],[49.5,4589],[49.5,4671],[49.5,4754],[49.4,4836],[49.9,4919],[47.4,5006],[44.3,5089],[36.1,5172],[22.7,5255],[14.1,5339],[10,5423],[9.9,5506],[9.9,5583],[9.8,5672],[38.5,5756],[45.9,5838],[47.7,5916],[60.8,6004],[76.8,6089],[70.9,6172],[70.4,6250],[92.5,6339],[96.3,6422],[96.3,6506],[95.1,6589],[95.1,6672],[95.1,6755],[97.3,6839],[97.9,6922],[98.5,7005],[99.6,7089],[99.6,7166],[99.6,7254],[99.6,7339],[99.6,7422],[99.6,7502],[99.6,7589],[99.6,7671],[99.6,7755],[99.6,7838],[99.6,7921],[99.6,7999],[99.6,8087],[99.6,8172],[99.6,8252],[99.6,8333],[99.6,8416],[99.6,8504],[99.6,8588],[99.6,8672],[99.6,8755],[99.6,8839],[99.6,8916],[99.6,9005],[99.6,9089],[99.6,9166],[99.6,9254],[99.6,9333],[99.6,9421],[99.6,9505],[99.6,9588],[99.6,9671],[99.6,9754],[99.6,9838],[99.6,9922],[99.6,10004],[99.6,10083],[99.6,10170],[99.6,10254],[99.6,10338],[99.6,10416],[99.6,10505],[99.6,10583],[99.6,10671],[99.6,10755],[99.6,10838],[99.6,10922],[99.6,11000],[99.6,11089],[99.6,11171],[99.6,11254],[99.6,11338],[99.6,11421],[99.6,11505],[99.6,11583],[99.6,11672],[99.6,11749],[99.6,11837],[99.6,11921],[99.6,12005],[99.6,12088],[99.6,12166],[99.6,12250],[99.6,12338],[99.6,12416],[99.6,12505],[99.6,12587],[99.6,12666],[99.6,12755],[99.6,12839],[99.6,12919],[99.6,13005],[99.6,13088],[99.6,13172],[99.6,13255],[99.6,13333],[99.6,13422],[99.6,13499],[99.6,13587],[99.6,13672],[99.6,13756],[99.6,13838],[99.6,13921],[99.6,13999],[99.6,14083],[99.6,14172],[99.6,14250],[99.6,14338],[99.6,14422],[99.6,14505],[99.6,14588],[99.6,14666],[99.6,14750],[99.4,14838],[99.4,14916],[99.4,15000],[99.4,15087],[99.4,15171],[99.4,15252],[99.4,15338],[99.4,15416],[99.4,15499],[99.4,15583],[99.4,15671],[99.4,15750],[99.4,15833],[99.4,15922],[99.4,16000],[99.4,16083],[99.4,16172],[99.4,16256],[99.4,16333],[98.8,16421],[94.9,16505],[96.1,16588],[96.1,16666],[96.1,16755],[96.1,16837],[96.1,16922],[96.3,17004],[96.6,17089],[96.9,17172],[97.6,17255],[99,17339],[99,17416],[99.2,17505],[99.3,17588],[99.3,17671],[99.3,17755],[99,17839],[99,17921],[99,18005],[99,18083],[99,18171],[98.6,18250],[85.8,18339],[82.3,18423],[81.4,18505],[77.3,18589],[76.4,18666],[75.3,18755],[69,18838],[62.6,18922],[56.1,19005],[50.2,19089],[49.9,19166],[49.8,19255],[49.6,19333],[49.6,19422],[49.6,19505],[46.8,19589],[40.9,19672],[38.8,19755],[36.5,19838],[32.8,19922],[30.7,20005],[28.2,20088],[25.9,20172],[25.6,20250],[25.6,20333],[25.6,20416],[25.6,20500],[25.6,20588],[25.6,20671],[25.6,20755],[28,20839],[33.2,20922],[33.4,21005],[37.3,21088],[39.4,21172],[42.1,21256],[45.6,21339],[46.5,21422],[47.5,21505],[47.5,21583],[47.5,21666],[47.5,21755],[47.7,21833],[54,21922],[57.9,22005],[63.8,22088],[65.9,22172],[70.8,22256],[72.8,22333],[73.9,22422],[77.3,22505],[79.3,22589],[79.5,22671],[79.6,22755],[79.6,22833],[79.6,22922],[79.6,23005],[79.6,23083],[79.3,23172],[78.1,23255],[77.7,23338],[77.2,23421],[77,23500],[77,23588],[77,23672],[78.9,23756],[79.1,23833],[79.1,23916],[79.7,24004],[82.2,24088],[82.5,24166],[82.5,24255],[84.7,24339],[85.2,24421],[85.2,24505],[85.2,24583],[85.2,24671],[85.2,24755],[85.2,24838],[85.2,24916],[85.8,25005],[86.8,25088],[86.8,25171],[86.8,25250],[86.8,25338],[86.8,25416],[86.8,25500],[86.8,25587],[86.8,25671],[86.8,25750],[86.8,25833],[87.1,25920],[89.6,26006],[97.5,26089],[98,26166],[98,26256],[98,26333],[98,26420],[98,26506]]",1,0,800.9399,805.0725,92.29166667,3.2074,"[{""rating"":92.29166666666666,""responseTime"":3.2073999999761327}]",space,3.5842,,805.0727,Partially,50,812.3231,50,5.0817,"[{""rating"":49.270833333333336,""responseTime"":3.2660000000000764},{""rating"":50,""responseTime"":4.519800000011969},{""rating"":50,""responseTime"":5.081699999988132}]",space,0,1,1,1,1,audio/Narrative7Situation1.wav,audio/Narrative8Situation1.wav,audio/Narrative5Situation1.wav,audio/Narrative6Situation1.wav,2,5,5,2,,,6.7,,,,,,,,,,,,,,,,,,,,,,,,,,,,,,,,,,,,
,,,,,,66060f19dda14ccd05dfcef9,2024-05-13_09h13.54.412,group3.1-3.2-social-tom,2023.2.2,Win32,59.17159763,65c5074098b851296ff0b7ed,66423c1d4c4348830bcab480,,,,,,,,,,,,,,,,,,,,,,,,,,,,,812.3236,2,audio/Narrative6Situation2.wav,815.3383,,815.3384,843.8394,"[[999,0],[999,83],[999,167],[999,245],[999,334],[999,412],[999,500],[999,584],[999,667],[999,749],[999,828],[999,917],[999,995],[999,1084],[999,1162],[999,1250],[999,1333],[999,1412],[999,1495],[999,1584],[52.6,1668],[49.3,1750],[48.6,1833],[48.6,1912],[48.6,2000],[47.9,2085],[48.5,2167],[48.5,2245],[48.5,2328],[48.5,2411],[48.5,2500],[48.5,2584],[48.5,2667],[48.5,2745],[48.5,2828],[48.5,2917],[48.5,2997],[48.5,3083],[48.5,3167],[48.5,3245],[49.1,3334],[49.5,3417],[49.5,3500],[50.2,3584],[50.3,3667],[50.3,3745],[50.3,3834],[50.3,3917],[50.5,3995],[50.5,4084],[50.5,4167],[50.7,4251],[50.8,4328],[51.5,4417],[51.8,4500],[53.3,4584],[57.9,4667],[60.6,4751],[61.3,4834],[62.7,4917],[63,5000],[63.2,5083],[65,5167],[67.3,5251],[68.2,5334],[70.4,5417],[70.5,5501],[70.5,5578],[70.5,5667],[70.5,5748],[70.5,5828],[70.5,5917],[70.5,6001],[70.9,6084],[74.7,6167],[74.6,6250],[74.6,6334],[74.6,6417],[74.6,6500],[74.6,6584],[75.2,6662],[75.9,6750],[74.8,6833],[66.3,6918],[46.6,7001],[43.8,7084],[34.6,7167],[24.2,7251],[24.2,7328],[21,7418],[18.3,7501],[18.3,7578],[18.3,7667],[18.2,7750],[17.6,7834],[17.6,7912],[17.4,8000],[17.4,8078],[17.4,8166],[17.4,8250],[17.4,8333],[17.4,8417],[17.4,8501],[17.4,8584],[17.4,8667],[17.2,8750],[17.1,8833],[15.8,8917],[15.1,9000],[15.1,9083],[14.8,9166],[14.4,9245],[14.3,9334],[14.3,9412],[14.3,9500],[14.3,9578],[14.3,9667],[14.3,9745],[14.3,9828],[14.3,9917],[14.3,10000],[14.3,10078],[14.3,10162],[14.3,10245],[14.3,10333],[14.3,10417],[14.3,10500],[14.3,10578],[14.3,10661],[14.3,10749],[14.3,10833],[14.3,10917],[14.3,11000],[14.3,11084],[14.3,11167],[14.3,11250],[14.3,11334],[14.3,11417],[14.3,11500],[14.5,11584],[15.5,11667],[15.7,11750],[16,11834],[16.5,11916],[16.7,12000],[16.8,12084],[16.8,12167],[16.8,12250],[16.9,12329],[17.7,12417],[16.8,12501],[16.8,12584],[16.8,12667],[16.8,12750],[16.8,12828],[16.8,12916],[16.8,13000],[16.8,13083],[22.1,13167],[24.9,13250],[26.7,13334],[27.8,13417],[27.8,13495],[27.8,13584],[27.8,13667],[27.7,13751],[27.6,13833],[26.6,13918],[25.9,14000],[25.4,14084],[25.1,14168],[25.1,14250],[25.1,14334],[25.1,14412],[25,14501],[24.7,14584],[24.7,14661],[24.7,14745],[24.7,14828],[24.7,14912],[24.7,15000],[24.7,15084],[24.7,15167],[24.7,15251],[24.7,15328],[24.7,15417],[24.7,15501],[24.7,15584],[24.7,15667],[24.7,15745],[24.7,15828],[24.7,15912],[24.7,16001],[24.7,16078],[24.7,16167],[24.7,16245],[24.7,16334],[24.8,16417],[24.8,16495],[24.8,16584],[24.8,16667],[24.8,16745],[24.8,16828],[24.8,16917],[24.8,16995],[24.8,17078],[24.8,17162],[24.8,17245],[24.8,17334],[24.8,17417],[24.8,17500],[24.9,17584],[29.1,17667],[29.5,17750],[29.5,17828],[37.4,17917],[48.8,18001],[59.1,18084],[71.1,18167],[78.2,18251],[81.9,18333],[82.9,18417],[83.3,18501],[85.1,18584],[87.7,18668],[87.7,18745],[91.1,18834],[92.5,18916],[92.5,18995],[92.5,19083],[92.5,19166],[92.5,19245],[92.5,19328],[92.5,19414],[92.5,19499],[92.5,19583],[92.5,19666],[92.8,19745],[92.8,19828],[92.8,19912],[92.9,19997],[93.3,20084],[93.4,20166],[93.4,20245],[93.4,20333],[93.4,20415],[93.4,20495],[93.4,20578],[93.4,20662],[93.4,20749],[93.4,20828],[93.4,20912],[93.4,20995],[93.4,21083],[93.4,21161],[93.4,21245],[93.5,21333],[95.2,21417],[95.4,21500],[96.1,21584],[97,21667],[97.3,21750],[97.4,21828],[97.7,21911],[98.1,22001],[98.6,22083],[99,22167],[99,22251],[99.1,22328],[99.1,22417],[99.1,22500],[99.1,22584],[99.1,22667],[99.1,22750],[99.1,22833],[99.2,22911],[99.2,22995],[99.2,23083],[99.2,23161],[99.2,23248],[99.3,23334],[99.4,23412],[99.4,23500],[99.4,23584],[99.4,23667],[99.4,23750],[99.5,23833],[99.5,23911],[99.5,23995],[99.5,24078],[99.6,24168],[99.6,24250],[99.6,24328],[99.6,24411],[99.6,24495],[99.6,24583],[99.6,24667],[99.6,24745],[99.6,24828],[99.6,24917],[99.6,24995],[99.6,25084],[99.6,25161],[99.6,25245],[99.6,25334],[99.6,25412],[99.6,25501],[99.6,25578],[99.6,25661],[99.6,25750],[99.6,25834],[99.6,25911],[99.6,26000],[99.6,26078],[99.6,26161],[99.7,26250],[99.7,26328],[99.7,26412],[99.7,26500],[99.7,26584],[99.7,26667],[99.7,26750],[99.7,26833],[99.7,26917],[99.7,27001],[99.7,27083],[99.7,27167],[99.7,27250],[99.7,27333],[99.7,27417],[99.7,27500],[99.7,27578],[99.7,27667],[99.7,27745],[99.7,27833],[99.7,27911],[99.7,27995],[99.7,28084],[99.7,28167],[99.7,28250],[99.7,28334],[99.7,28411],[99.7,28500]]",1,0,843.84,850.7505,99.47916667,2.5211,"[{""rating"":99.47916666666667,""responseTime"":2.5210999999642354}]",space,6.3668,,850.7505,Partially,50,850.7564,,,[],,0,2,2,2,1,audio/Narrative7Situation2.wav,audio/Narrative8Situation2.wav,audio/Narrative5Situation2.wav,audio/Narrative6Situation2.wav,3,3,3,3,,,,,,,,,,,,,,,,,,,,,,,,,,,,,,,,,,,,,,,
,,,,,,66060f19dda14ccd05dfcef9,2024-05-13_09h13.54.412,group3.1-3.2-social-tom,2023.2.2,Win32,59.17159763,65c5074098b851296ff0b7ed,66423c1d4c4348830bcab480,,,,,,,,,,,,,,,,,,,,,,,,,,,,,850.7566,2,audio/Narrative6Situation3.wav,855.7722,,855.7722,868.4053,"[[59.2,417],[57.2,500],[56.5,583],[54.9,667],[54.2,750],[54.2,828],[54.2,917],[54.2,999],[54.2,1078],[54.2,1161],[54.2,1250],[55.1,1333],[56.6,1752],[56.6,1828],[56.6,1916],[56.6,2000],[56.4,2083],[55.3,2167],[53.8,2250],[52.1,2334],[51.1,2417],[51.1,2500],[51.1,2583],[49.2,2667],[44.6,2750],[38.1,2834],[35.6,2917],[35.6,3000],[35.6,3082],[34.9,3166],[30.6,3250],[29.3,3333],[28.3,3417],[26.8,3500],[25.5,3584],[24.4,3667],[23.3,3751],[21.4,3833],[20.4,3917],[20.4,4000],[20.4,4083],[20.4,4166],[20.4,4250],[20.4,4333],[20.4,4417],[20.4,4494],[20.4,4583],[20.4,4661],[20.4,4750],[20.4,4827],[20.4,4916],[20.4,5000],[20.4,5078],[20.4,5166],[20.4,5250],[20.4,5328],[20.4,5417],[20.4,5500],[20.4,5583],[20.4,5666],[20.4,5748],[20.4,5828],[20.4,5916],[20.4,6001],[20.4,6083],[20.4,6167],[20.4,6245],[20.4,6333],[20.4,6411],[20.4,6500],[20.4,6583],[20.4,6661],[20.4,6750],[20.4,6828],[20.4,6916],[20.4,7000],[20.4,7078],[20.4,7166],[20.4,7244],[20.4,7333],[20.4,7411],[20.4,7500],[21.7,7583],[21.9,7662],[23.4,7750],[23.4,7833],[23.4,7917],[23.4,8000],[23.4,8083],[21.8,8168],[86.6,8750],[85.7,8833],[85.7,8916],[85.7,9000],[85.7,9083],[89.3,9167],[90,9251],[93.2,9334],[93.4,9411],[94.1,9501],[94.1,9583],[94.1,9666],[94.1,9750],[94.1,9833],[94.1,9911],[94.1,10000],[94.1,10083],[94.1,10164],[94.1,10245],[94.1,10334],[94.1,10417],[94.1,10500],[94.1,10582],[94.1,10666],[94.1,10750],[94.1,10833],[94.1,10911],[94.1,10997],[94.1,11078],[94.1,11164],[94.1,11244],[94.1,11334],[94.1,11413],[94.1,11499],[94.1,11583],[94.1,11666],[94.1,11750],[94.1,11833],[94.1,11916],[94.1,12000],[94.1,12083],[94.1,12167],[94.1,12251],[94.1,12333],[94.1,12411],[94.1,12494],[94.1,12583]]",1,0,868.4055,872.2563,99.79166667,1.5914,"[{""rating"":99.79166666666667,""responseTime"":1.5914000000358328}]",space,3.3177,,872.2565,Definitely yes,100,872.2604,,,[],,0,3,3,3,1,audio/Narrative7Situation3.wav,audio/Narrative8Situation3.wav,audio/Narrative5Situation3.wav,audio/Narrative6Situation3.wav,8,4,3,5,,,,,,,,,,,,,,,,,,,,,,,,,,,,,,,,,,,,,,,
,,,,,,66060f19dda14ccd05dfcef9,2024-05-13_09h13.54.412,group3.1-3.2-social-tom,2023.2.2,Win32,59.17159763,65c5074098b851296ff0b7ed,66423c1d4c4348830bcab480,,,,,,,,,,,,,,,,,,,,,,,,,,,,,872.2607,2,audio/Narrative6Situation4.wav,874.2717,,874.2718,886.8881,"[[999,0],[999,78],[999,165],[999,245],[999,334],[999,412],[999,500],[999,583],[999,661],[999,745],[999,834],[999,917],[999,995],[999,1083],[999,1167],[999,1250],[999,1333],[999,1417],[999,1495],[999,1583],[999,1662],[999,1745],[999,1834],[999,1914],[999,1999],[999,2082],[999,2161],[999,2250],[999,2333],[999,2411],[999,2500],[999,2584],[999,2667],[999,2750],[999,2833],[999,2917],[50,3001],[49.7,3084],[50,3167],[50.2,3245],[50.3,3333],[50.3,3417],[51.3,3500],[51.3,3583],[51.3,3667],[51.3,3750],[51.3,3828],[51.3,3916],[51.3,4000],[49.9,4084],[37.8,4168],[29.4,4251],[21.8,4334],[13.6,4417],[13.1,4500],[12.6,4583],[11.8,4667],[11.5,4751],[10.8,4833],[10.5,4911],[10,5001],[9.5,5083],[9.3,5167],[9,5250],[8.9,5334],[8.9,5416],[8.6,5500],[8.5,5584],[8.4,5667],[8.3,5750],[8.3,5833],[8.3,5912],[8.3,6000],[8.3,6078],[8.3,6167],[8.3,6245],[8.4,6334],[8.9,6416],[9.4,6501],[9.4,6583],[9.4,6661],[9.4,6745],[9.4,6830],[9.4,6917],[9.4,6995],[9.4,7083],[9.4,7167],[9.4,7250],[9.4,7333],[9.4,7417],[9.4,7495],[9.4,7583],[9.4,7666],[9.4,7750],[10,7834],[10.4,7915],[10.5,8000],[10.5,8083],[10.5,8167],[10.5,8249],[10.5,8333],[10.2,8418],[10.2,8500],[9,8584],[7.8,8668],[7.6,8750],[7.5,8828],[11.6,8918],[13.5,9000],[16.5,9083],[20.1,9167],[21.3,9250],[22.5,9334],[22.7,9417],[24.3,9500],[25.7,9583],[27.3,9662],[33.9,9750],[39.1,9834],[39.9,9917],[40.9,10000],[43.4,10084],[45.8,10167],[47,10250],[47.5,10333],[48.2,10417],[49,10501],[49.4,10584],[49.6,10666],[49.8,10748],[49.8,10828],[48,10917],[47.9,10995],[47.9,11078],[47.9,11167],[47.9,11250],[47.9,11328],[47.9,11411],[47.9,11500],[47.9,11583],[49.4,11667],[50.2,11750],[50.2,11833],[50.4,11912],[50.4,12000],[50.4,12078],[50.4,12162],[50.4,12249],[50.4,12333],[50.4,12411],[50.4,12500],[50.4,12583]]",1,0,886.8882,890.7563,8.854166667,2.2311,"[{""rating"":8.854166666666668,""responseTime"":2.231099999964158}]",space,3.3339,,890.7564,Definitely yes,100,890.7579,,,[],,0,4,4,4,1,audio/Narrative7Situation4.wav,audio/Narrative8Situation4.wav,audio/Narrative5Situation4.wav,audio/Narrative6Situation4.wav,3,3,1,2,,,,,,,,,,,,,,,,,,,,,,,,,,,,,,,,,,,,,,,
,,,,,,66060f19dda14ccd05dfcef9,2024-05-13_09h13.54.412,group3.1-3.2-social-tom,2023.2.2,Win32,59.17159763,65c5074098b851296ff0b7ed,66423c1d4c4348830bcab480,,,,,,,,,,,,,,,,,,,,,,,,,,,,,890.7582,2,audio/Narrative6Situation5.wav,892.7725,,892.7725,900.7393,"[[999,0],[999,77],[999,167],[999,244],[999,332],[999,416],[999,494],[999,582],[999,666],[999,749],[999,832],[999,915],[999,996],[999,1080],[999,1167],[45.2,1249],[46.4,1333],[47.4,1415],[47.4,1499],[47.2,1583],[47.3,1666],[47.9,1749],[49.3,1833],[51,1917],[51,1998],[51,2083],[51,2165],[51,2249],[51,2332],[51,2416],[51,2500],[51,2577],[49.6,2666],[49.4,2754],[49.4,2827],[49.4,2916],[50.4,3000],[54.3,3083],[57.4,3166],[60.1,3250],[67.2,3333],[75.4,3417],[75.8,3500],[79.1,3582],[79.4,3666],[80.6,3750],[80.6,3833],[80.8,3916],[80.8,3999],[80.8,4077],[80.8,4166],[80.8,4250],[80.8,4333],[79,4417],[76.4,4499],[68.2,4583],[64,4666],[63.9,4750],[61.6,4833],[61.1,4916],[61.1,5000],[61.1,5082],[61.1,5163],[61,5248],[60.9,5331],[60.9,5413],[60.9,5499],[60.9,5582],[60.9,5666],[60.9,5749],[60.9,5833],[60.9,5916],[60.9,6000],[60.9,6082],[60.9,6165],[60.9,6250],[60.9,6327],[60.9,6416],[60.9,6494],[60.9,6582],[60.9,6666],[60.9,6744],[60.9,6832],[60.9,6910],[60.9,6994],[60.9,7082],[60.9,7161],[60.9,7249],[60.9,7332],[60.9,7415],[60.9,7500],[60.9,7583],[60.9,7661],[60.9,7750],[58.6,7833],[58.6,7916]]",1,0,900.7395,904.3053,48.75,2.0992,"[{""rating"":48.75,""responseTime"":2.099199999988059}]",space,3.0165,,904.3054,Partially,50,904.3068,,,[],,0,5,5,5,1,audio/Narrative7Situation5.wav,audio/Narrative8Situation5.wav,audio/Narrative5Situation5.wav,audio/Narrative6Situation5.wav,5,2,5,2,,,,,,,,,,,,,,,,,,,,,,,,,,,,,,,,,,,,,,,
,,,,,,66060f19dda14ccd05dfcef9,2024-05-13_09h13.54.412,group3.1-3.2-social-tom,2023.2.2,Win32,59.17159763,65c5074098b851296ff0b7ed,66423c1d4c4348830bcab480,,,,,,,,,,,,,,,,,,,,,,,,,,,,,904.3069,2,audio/Narrative6Situation6.wav,906.3227,,906.3228,917.4064,"[[999,0],[999,82],[999,166],[999,248],[999,333],[999,416],[999,499],[999,582],[999,666],[999,749],[999,833],[999,911],[999,1000],[999,1083],[48.8,1166],[49.2,1249],[49.2,1333],[49.1,1416],[42.8,1499],[29.2,1583],[22.7,1667],[17.9,1750],[17.6,1827],[17.6,1910],[17.7,2000],[17.7,2082],[17.7,2165],[17.7,2249],[17.7,2327],[17.7,2416],[17.7,2500],[17.7,2582],[17.7,2663],[17.7,2744],[18,2833],[19.4,2916],[19.6,2999],[19.6,3077],[19.6,3160],[20.5,3250],[22,3333],[26.9,3416],[29.1,3499],[29.1,3582],[29.1,3666],[29.1,3749],[29.1,3832],[29.1,3910],[29.1,3994],[29.7,4082],[32.6,4166],[32.7,4249],[32.7,4332],[32.7,4415],[32.7,4498],[32.7,4582],[32.7,4666],[32.8,4749],[32.8,4827],[32.8,4913],[32.8,4999],[32.8,5083],[32.8,5160],[32.8,5248],[32.8,5327],[32.8,5410],[32.8,5499],[32.8,5583],[32.8,5660],[32.8,5749],[32.8,5832],[32.8,5916],[32.8,5999],[32.8,6080],[32.8,6166],[32.8,6249],[32.8,6332],[32.8,6416],[32.8,6494],[32.8,6582],[32.8,6665],[32.8,6744],[32.8,6831],[32.8,6916],[32.8,7000],[34.5,7083],[35,7166],[36.6,7250],[36.7,7327],[36.7,7416],[36.7,7494],[36.7,7582],[36.7,7660],[34.1,7750],[33.6,7832],[33.6,7915],[33.5,7999],[33.2,8077],[33.2,8164],[33.2,8249],[33.2,8333],[33.2,8413],[33.2,8499],[33.2,8577],[33.2,8665],[33.2,8749],[33.2,8832],[34.2,8917],[34.6,8994],[34.6,9082],[34.6,9165],[34.7,9249],[34.7,9332],[34.7,9410],[34.7,9494],[36.4,9584],[40.4,9667],[40.4,9744],[41.5,9832],[44.9,9916],[44.9,9999],[44.9,10077],[44.9,10166],[44.9,10249],[44.9,10332],[44.9,10415],[44.9,10499],[44.9,10577],[44.9,10666],[44.9,10750],[44.9,10832],[44.6,10916],[44.6,10994],[44.2,11083]]",1,0,917.4067,923.1066,27.39583333,1.1655,"[{""rating"":27.39583333333333,""responseTime"":1.1655000000000655}]",space,5.1566,,923.1067,Definitely yes,100,923.1184,,,[],,0,6,6,6,1,audio/Narrative7Situation6.wav,audio/Narrative8Situation6.wav,audio/Narrative5Situation6.wav,audio/Narrative6Situation6.wav,3,2,3,2,,,,,,,,,,,,,,,,,,,,,,,,,,,,,,,,,,,,,,,
,,,,,,66060f19dda14ccd05dfcef9,2024-05-13_09h13.54.412,group3.1-3.2-social-tom,2023.2.2,Win32,59.17159763,65c5074098b851296ff0b7ed,66423c1d4c4348830bcab480,,,,,,,,,,,,,,,,,,,,,,,,,,,,,923.1185,2,audio/Narrative6Situation7.wav,928.1374,,928.1374,952.9898,"[[999,5],[999,85],[999,168],[999,252],[999,333],[999,412],[999,501],[42.3,585],[42.9,668],[42.9,746],[42.9,833],[43.2,918],[43.2,1001],[43.2,1085],[43.2,1167],[43.2,1246],[43.2,1334],[43.2,1418],[43.2,1496],[43.5,1585],[45.4,1668],[45.4,1746],[45.5,1830],[46.8,1919],[48.3,2001],[49.2,2086],[49.5,2168],[49.8,2251],[49.9,2335],[49.9,2417],[49.9,2501],[49.9,2585],[49.9,2667],[49.9,2751],[49.9,2835],[49.9,2918],[49.9,2996],[49.9,3085],[49.9,3168],[49.9,3246],[49.9,3334],[49.9,3419],[49.9,3500],[49.9,3584],[49.9,3667],[43.6,3751],[35.7,3835],[35.7,3913],[33,4002],[27.6,4085],[24.8,4169],[24.6,4251],[24.6,4329],[24.6,4417],[24.6,4501],[24.6,4585],[24.6,4668],[24.6,4746],[24.6,4833],[24.6,4918],[24.6,5001],[24.6,5084],[24.6,5168],[24.6,5251],[24.6,5334],[21.1,5419],[14.4,5501],[14.2,5584],[12.3,5669],[9.6,5752],[7.5,5835],[5.6,5918],[5.6,6001],[4.9,6079],[4.5,6167],[4.3,6251],[4.3,6334],[4.3,6414],[4.3,6501],[4.3,6584],[4.9,6668],[20.4,6753],[52.1,6834],[64.2,6918],[69.7,7001],[74.4,7079],[76.9,7169],[79.8,7253],[82.8,7335],[83.9,7419],[85.4,7502],[87.3,7585],[88.2,7668],[89.8,7752],[90,7829],[90.9,7919],[92.5,8001],[93.9,8085],[93.9,8168],[94,8251],[94.3,8335],[94.5,8418],[94.6,8496],[94.6,8585],[94.6,8667],[94.6,8746],[94.6,8834],[94.6,8918],[94.6,9001],[94.6,9084],[91.1,9168],[91,9251],[91,9332],[91,9418],[91,9500],[91,9585],[91,9668],[91,9751],[91,9834],[91.9,9918],[92.1,10001],[93,10085],[94.2,10168],[94.9,10252],[96.9,10335],[97,10418],[97,10496],[97,10584],[97.1,10665],[97.1,10751],[97.1,10831],[97.4,10913],[97.7,11001],[97.8,11085],[98,11168],[98,11245],[98.4,11335],[98.4,11413],[98.4,11498],[98.4,11585],[98.4,11668],[98.6,11752],[99.1,11835],[99.4,11919],[99.9,12001],[100,12079],[100,12168],[100,12251],[100,12329],[100,12418],[100,12502],[100,12579],[100,12668],[100,12750],[100,12834],[100,12919],[100,13001],[100,13082],[100,13168],[100,13250],[100,13334],[100,13419],[100,13496],[100,13584],[100,13667],[100,13751],[100,13829],[100,13918],[100,14001],[100,14084],[100,14162],[100,14252],[100,14335],[100,14418],[100,14501],[100,14579],[100,14668],[100,14746],[100,14835],[100,14918],[100,15001],[100,15079],[100,15168],[100,15246],[100,15335],[100,15418],[100,15501],[100,15584],[100,15668],[100,15746],[100,15829],[100,15918],[100,16001],[100,16079],[100,16167],[100,16248],[100,16329],[100,16412],[100,16502],[100,16584],[100,16663],[100,16751],[100,16832],[100,16917],[100,17000],[100,17082],[100,17167],[100,17251],[100,17332],[100,17418],[100,17501],[100,17584],[100,17667],[100,17750],[100,17834],[100,17918],[100,18001],[100,18079],[100,18168],[100,18251],[100,18335],[100,18412],[100,18496],[100,18585],[100,18668],[100,18746],[100,18829],[100,18913],[100,19002],[100,19085],[100,19162],[100,19252],[100,19334],[100,19417],[100,19501],[100,19584],[100,19668],[100,19751],[100,19829],[100,19918],[100,20001],[100,20079],[100,20162],[100,20245],[100,20334],[100,20418],[100,20496],[100,20584],[100,20668],[100,20746],[100,20834],[100,20917],[100,21001],[100,21079],[100,21163],[100,21251],[100,21335],[100,21418],[100,21501],[100,21585],[100,21662],[100,21746],[100,21835],[100,21917],[100,22001],[100,22079],[100,22168],[100,22252],[100,22335],[100,22417],[100,22496],[100,22579],[100,22668],[100,22751],[100,22829],[100,22918],[100,22996],[100,23085],[100,23168],[100,23251],[100,23335],[100,23418],[100,23496],[100,23579],[100,23668],[100,23751],[100,23835],[100,23912],[100,24000],[100,24084],[100,24162],[100,24251],[100,24335],[100,24417],[100,24501],[100,24584],[100,24668],[100,24751],[100,24835]]",1,0,952.9901,955.4897,99.89583333,1.662,"[{""rating"":99.89583333333334,""responseTime"":1.6619999999999209}]",space,1.9509,,955.4898,Not at all,0,955.4934,,,[],,0,7,7,7,1,audio/Narrative7Situation7.wav,audio/Narrative8Situation7.wav,audio/Narrative5Situation7.wav,audio/Narrative6Situation7.wav,5,3,4,5,,,,,,,,,,,,,,,,,,,,,,,,,,,,,,,,,,,,,,,
,,,,,,66060f19dda14ccd05dfcef9,2024-05-13_09h13.54.412,group3.1-3.2-social-tom,2023.2.2,Win32,59.17159763,65c5074098b851296ff0b7ed,66423c1d4c4348830bcab480,,,,,,,,,,,,,,,,,,,,,,,,,,,,,955.4937,2,audio/Narrative6Situation8.wav,960.5061,,960.5062,967.3898,"[[87.1,83],[58.3,166],[49.4,250],[49,327],[49,415],[49,499],[49,582],[49,666],[49,744],[49,827],[49,910],[29,1083],[2.4,1582],[2.1,1666],[1.3,1750],[1.1,1832],[1.1,1915],[0.9,1999],[0.9,2082],[0.9,2160],[0.9,2249],[0.9,2329],[0.9,2416],[0.9,2499],[0.9,2582],[0.9,2666],[0.9,2744],[0.9,2832],[0.9,2916],[0.9,2999],[0.9,3082],[0.9,3160],[0.9,3248],[0.9,3327],[0.9,3410],[0.9,3499],[0.9,3582],[0.9,3665],[4.1,3749],[4.7,3832],[11.9,3916],[22.7,3999],[31,4083],[41.5,4165],[48,4249],[50.3,4333],[50.6,4416],[50.6,4499],[48.5,4583],[45,4665],[34.4,4749],[9.6,4832],[0.7,4916]]",1,0,967.3899,970.6225,0.416666667,1.8819,"[{""rating"":0.4166666666666652,""responseTime"":1.881899999976099}]",space,2.6836,,970.6226,Definitely yes,100,970.6249,,,[],,0,8,8,8,1,audio/Narrative7Situation8.wav,audio/Narrative8Situation8.wav,audio/Narrative5Situation8.wav,audio/Narrative6Situation8.wav,2,3,3,5,,,,,,,,,,,,,,,,,,,,,,,,,,,,,,,,,,,,,,,
,,,,,,66060f19dda14ccd05dfcef9,2024-05-13_09h13.54.412,group3.1-3.2-social-tom,2023.2.2,Win32,59.17159763,65c5074098b851296ff0b7ed,66423c1d4c4348830bcab480,,,,,,,,,,,,,,,,,,,,,,,,,,,,,970.6252,2,audio/Narrative6Situation9.wav,974.6337,,974.6338,984.5887,"[[32.1,505],[34.8,589],[35.5,671],[35.5,755],[34.4,838],[19.9,922],[9.4,1005],[7.3,1089],[5.5,1172],[4.7,1255],[4.7,1338],[4.3,1422],[4.2,1504],[4.1,1583],[3.8,1672],[3.8,1755],[3.8,1838],[3.8,1921],[3.8,2005],[3.8,2089],[3.8,2166],[3.8,2254],[3.8,2338],[3.8,2421],[3.8,2504],[3.8,2585],[3.8,2672],[3.8,2755],[3.8,2838],[3.8,2921],[3.8,3000],[3.8,3088],[3.8,3172],[3.8,3249],[3.8,3338],[3.8,3422],[3.8,3500],[3.8,3587],[3.8,3671],[3.8,3755],[3.8,3838],[3.8,3921],[3.8,4002],[3.8,4088],[3.8,4166],[3.8,4255],[3.8,4338],[3.8,4421],[3.8,4504],[3.8,4583],[3.8,4666],[3.8,4755],[3.8,4839],[3.8,4922],[3.8,5004],[3.8,5087],[3.8,5172],[3.8,5255],[3.8,5333],[3.8,5416],[3.8,5504],[3.8,5587],[3.8,5672],[3.8,5749],[3.8,5838],[3.8,5920],[3.8,6000],[3.8,6088],[3.8,6171],[3.8,6254],[3.8,6339],[3.8,6421],[3.8,6500],[3.8,6588],[3.8,6671],[3.8,6755],[3.8,6838],[3.8,6922],[3.8,7004],[3.8,7088],[3.8,7168],[3.8,7255],[3.8,7339],[3.8,7421],[3.8,7499],[3.8,7583],[3.8,7671],[3.8,7755],[3.8,7839],[3.8,7922],[3.8,8005],[3.8,8087],[3.8,8168],[3.8,8254],[3.8,8338],[3.8,8421],[3.8,8499],[3.8,8588],[3.8,8671],[3.8,8749],[3.8,8832],[3.8,8916],[3.8,9005],[3.8,9083],[3.8,9171],[3.8,9254],[3.8,9337],[3.8,9416],[3.8,9505],[3.8,9582],[3.8,9672],[3.8,9754],[3.3,9844],[2.6,9921]]",1,0,984.5887,986.789,0,1.1669,"[{""rating"":0,""responseTime"":1.1669000000357528}]",space,1.6673,,986.789,Definitely yes,100,986.79,,,[],,0,9,9,9,1,audio/Narrative7Situation9.wav,audio/Narrative8Situation9.wav,audio/Narrative5Situation9.wav,audio/Narrative6Situation9.wav,2,3,3,4,,,,,,,,,,,,,,,,,,,,,,,,,,,,,,,,,,,,,,,
,,,,,,66060f19dda14ccd05dfcef9,2024-05-13_09h13.54.412,group3.1-3.2-social-tom,2023.2.2,Win32,59.17159763,65c5074098b851296ff0b7ed,66423c1d4c4348830bcab480,,,,,,,,,,,,,,,,,,,,,,,,,,,,,986.7901,2,audio/Narrative5Situation1.wav,991.806,,991.8061,1005.1062,"[[0.1,2911],[19.7,2999],[34.1,3166],[33.9,3249],[33.8,3333],[34.2,3416],[39.5,3500],[39.6,3577],[40.3,3666],[41.8,3749],[41.8,3833],[41.8,3915],[41.8,3999],[41.8,4082],[41.7,4166],[33.3,4250],[32.5,4333],[30.4,4416],[30.4,4499],[30.3,4583],[30.2,4667],[30,4750],[28.6,4833],[27.7,4916],[27.7,4999],[27.5,5083],[27.3,5166],[27.3,5249],[27.3,5331],[27.3,5416],[27.3,5494],[27.3,5582],[27.3,5665],[27.3,5749],[27.3,5832],[27.3,5915],[27.4,5999],[28.4,6083],[29.5,6166],[32.9,6249],[33,6332],[33.3,6411],[37.1,6499],[38.6,6582],[38.9,6666],[37.5,6749],[27.2,6832],[24.4,6916],[20.7,7000],[18.2,7083],[15.4,7166],[14.3,7249],[13.1,7332],[12.8,7416],[12.6,7499],[12.4,7582],[12.4,7666],[12.4,7746],[12.4,7832],[12.4,7916],[12.4,7999],[12.4,8077],[12.4,8166],[12.4,8249],[12.4,8331],[12.4,8410],[12.4,8499],[12.4,8583],[12.4,8667],[12.4,8747],[12.4,8833],[12.4,8916],[12.4,8999],[12.4,9077],[12.4,9160],[12.4,9249],[12.4,9332],[12.4,9415],[12.5,9498],[13.6,9582],[13.6,9661],[14,9749],[14.2,9833],[15.1,9916],[16.3,9999],[18.2,10083],[18.6,10163],[18.9,10249],[17.3,10332],[11.7,10416],[10.9,10499],[10,10584],[9.3,10666],[8.5,10750],[8.1,10832],[8.1,10916],[8.1,10994],[8.1,11083],[8.1,11166],[8.1,11250],[8.1,11327],[8.1,11410],[8.1,11499],[8.1,11583],[9.2,11666],[9.3,11744],[9.3,11832],[9.3,11916],[9.3,11999],[9.3,12083],[9.3,12165],[9.3,12249],[9.3,12327],[9.3,12415],[11.6,12499],[11.6,12577],[12.9,12666],[16.7,12743],[16.7,12832],[16.7,12916],[16.7,12994],[16.5,13083],[17.1,13166],[18.5,13249]]",1,0,1005.1064,1009.2565,50,2.3489,"[{""rating"":50,""responseTime"":2.3489000000356555}]",space,3.5948,,1009.2565,Partially,50,1009.2597,,,[],,0,10,10,10,1,audio/Narrative8Situation1.wav,audio/Narrative7Situation1.wav,audio/Narrative6Situation1.wav,audio/Narrative5Situation1.wav,5,2,2,5,,,,,,,,,,,,,,,,,,,,,,,,,,,,,,,,,,,,,,,
,,,,,,66060f19dda14ccd05dfcef9,2024-05-13_09h13.54.412,group3.1-3.2-social-tom,2023.2.2,Win32,59.17159763,65c5074098b851296ff0b7ed,66423c1d4c4348830bcab480,,,,,,,,,,,,,,,,,,,,,,,,,,,,,1009.2603,2,audio/Narrative5Situation2.wav,1012.2727,,1012.2728,1041.7392,"[[999,0],[999,83],[999,166],[999,249],[999,333],[999,416],[999,500],[999,582],[999,665],[999,749],[999,832],[999,910],[999,998],[999,1082],[999,1164],[999,1244],[999,1332],[999,1416],[999,1499],[999,1582],[999,1661],[999,1749],[999,1832],[999,1915],[999,1998],[999,2077],[999,2160],[999,2249],[999,2327],[999,2410],[999,2499],[999,2577],[999,2666],[999,2749],[999,2832],[999,2916],[999,3000],[999,3082],[999,3160],[999,3244],[999,3333],[999,3415],[999,3493],[999,3582],[999,3661],[999,3749],[999,3832],[999,3916],[999,3999],[58.5,4082],[54.7,4164],[53,4249],[52.8,4333],[52.7,4416],[52.7,4499],[52.7,4583],[52.7,4666],[52.7,4749],[52.6,4832],[52.6,4910],[52.6,5000],[52.6,5082],[52.6,5166],[52.6,5249],[53,5330],[53,5416],[53,5499],[53.3,5583],[53.5,5665],[53.6,5749],[53.6,5827],[53.6,5916],[53.6,5994],[53.6,6082],[53.6,6165],[53.6,6244],[53.6,6333],[53.6,6416],[53.6,6499],[53.6,6583],[53.6,6666],[53.6,6750],[53.6,6833],[53.6,6916],[53.6,6999],[53.6,7077],[53.6,7160],[53.6,7249],[53.6,7327],[53.6,7416],[53.6,7499],[53.6,7582],[53.6,7663],[53.6,7748],[53.6,7832],[53.6,7916],[53.6,7999],[53.6,8082],[53.6,8165],[53.6,8244],[53.6,8332],[53.6,8410],[53.6,8499],[53.6,8582],[53.6,8666],[53.6,8749],[53.6,8827],[53.6,8915],[53.6,8999],[53.6,9083],[53.6,9166],[53.6,9249],[53.6,9332],[53.6,9415],[53.6,9499],[53.6,9577],[53.6,9666],[53.6,9749],[53.6,9832],[53.6,9916],[53.6,9994],[53.6,10082],[53.6,10166],[53.6,10249],[53.6,10327],[54.1,10416],[54.1,10499],[53.6,10583],[53.1,10667],[52.1,10749],[51.7,10833],[51.4,10916],[50.8,10999],[50.5,11082],[50.2,11166],[50.2,11249],[50.1,11333],[50.1,11415],[50.1,11498],[50,11583],[50,11666],[50,11749],[50,11833],[50,11910],[50,11999],[50,12083],[50,12165],[50,12248],[50,12332],[50,12415],[50,12494],[50,12580],[50,12666],[50,12749],[50,12832],[50,12915],[50,12999],[50,13082],[50,13165],[50,13249],[50,13333],[50,13411],[50,13494],[50,13582],[50,13660],[50,13744],[50,13827],[50,13910],[50,13999],[50,14083],[50,14161],[50,14249],[50,14332],[50,14416],[50,14499],[50,14582],[50,14665],[50,14749],[50,14832],[50,14916],[50,14999],[50,15082],[50,15166],[50,15249],[50,15332],[50,15410],[50,15499],[50,15581],[50,15664],[50,15743],[50,15833],[50,15910],[50,15999],[50,16082],[50,16166],[50,16243],[50,16332],[50,16415],[50,16499],[50,16583],[50,16661],[50,16749],[50,16833],[50,16915],[50,16999],[50,17077],[50,17166],[50,17243],[50,17332],[50,17416],[50,17499],[50,17581],[50,17664],[50,17749],[50,17832],[50,17916],[50,17996],[50,18083],[50,18165],[50,18249],[50,18332],[50,18410],[50,18494],[50,18582],[50,18666],[50,18749],[50,18832],[50,18915],[50,18996],[50,19083],[50,19163],[50,19249],[50,19333],[49.9,19416],[49.8,19499],[47.2,19583],[44.8,19666],[43.4,19749],[41.4,19833],[39,19916],[37.8,20000],[36.4,20083],[34.7,20166],[34.5,20749],[34.2,20832],[34.2,21500],[32.5,21582],[32.5,21666],[32.7,21750],[34.6,21833],[35.8,21915],[36.4,21999],[38.1,22077],[39,22166],[43.8,22249],[44.6,22333],[46.6,22415],[47.6,22500],[49.1,22583],[49.1,22664],[49.3,22749],[49.3,22832],[49.3,22916],[49.3,22994],[49,23082],[48.2,23166],[48.2,23249],[48.2,23333],[48.2,23410],[48.2,23494],[48.2,23581],[48.2,23666],[48.2,23749],[48.3,23832],[48.3,23916],[48.3,23999],[48.3,24083],[48.3,24160],[48.4,24249],[48.6,24333],[48.8,24416],[49.1,24499],[49.4,24577],[49.6,24666],[49.6,24749],[49.6,24832],[49.6,24910],[49.6,24999],[49.6,25077],[49.6,25160],[49.6,25249],[49.6,25332],[49.6,25416],[49.6,25498],[49.6,25577],[49.6,25665],[49.6,25749],[49.6,25832],[49.6,25910],[49.6,25994],[49.6,26082],[49.6,26165],[49.3,26249],[49.3,26332],[49.2,26411],[49.2,26498],[49.2,26582],[49.2,26666],[49.2,26743],[49.2,26832],[49.2,26916],[49.2,26994],[49.2,27083],[49.2,27160],[49.2,27248],[49.2,27333],[49.2,27416],[49.2,27500],[49.2,27582],[49.2,27665],[49.2,27749],[49.2,27827],[49.2,27910],[49.2,27999],[49.2,28081],[49.2,28165],[49.2,28249],[49.2,28333],[49.2,28417],[49.2,28497],[49.2,28582],[49.2,28665],[49.2,28749],[49.2,28832],[49.3,28916],[49.6,28999],[49.6,29083],[49.6,29166],[49.6,29248],[49.6,29332],[49.6,29415]]",1,0,1041.7394,1045.0558,49.89583333,1.0155,"[{""rating"":49.895833333333336,""responseTime"":1.015500000000202}]",space,2.783,,1045.0559,Definitely yes,100,1045.0583,,,[],,0,11,11,11,1,audio/Narrative8Situation2.wav,audio/Narrative7Situation2.wav,audio/Narrative6Situation2.wav,audio/Narrative5Situation2.wav,3,3,3,3,,,,,,,,,,,,,,,,,,,,,,,,,,,,,,,,,,,,,,,
,,,,,,66060f19dda14ccd05dfcef9,2024-05-13_09h13.54.412,group3.1-3.2-social-tom,2023.2.2,Win32,59.17159763,65c5074098b851296ff0b7ed,66423c1d4c4348830bcab480,,,,,,,,,,,,,,,,,,,,,,,,,,,,,1045.0584,2,audio/Narrative5Situation3.wav,1048.0721,,1048.0721,1061.9892,"[[999,7],[999,83],[999,166],[999,244],[999,332],[999,411],[999,499],[999,582],[999,661],[999,744],[999,832],[999,911],[999,1000],[999,1080],[999,1166],[999,1250],[999,1333],[999,1416],[999,1494],[999,1578],[999,1666],[999,1747],[999,1833],[999,1916],[999,1999],[999,2083],[999,2167],[999,2249],[999,2333],[999,2411],[999,2499],[999,2583],[999,2667],[999,2750],[999,2833],[999,2911],[999,3000],[999,3082],[999,3161],[999,3244],[999,3333],[999,3411],[999,3500],[999,3578],[999,3663],[999,3750],[999,3832],[999,3916],[999,3999],[999,4078],[999,4166],[999,4244],[999,4333],[999,4417],[999,4500],[999,4583],[999,4667],[999,4744],[999,4833],[999,4911],[999,4999],[999,5083],[999,5161],[999,5250],[999,5330],[999,5416],[999,5500],[999,5580],[999,5666],[999,5750],[999,5832],[999,5916],[999,6000],[999,6078],[999,6161],[999,6244],[999,6327],[999,6411],[999,6494],[999,6583],[999,6666],[999,6750],[999,6834],[999,6916],[999,6999],[999,7078],[999,7167],[999,7249],[999,7332],[999,7411],[999,7497],[999,7583],[999,7666],[999,7750],[999,7833],[999,7916],[999,8000],[999,8083],[999,8166],[72.9,8249],[73,8328],[73.2,8417],[73.2,8494],[76.6,8583],[82.1,8667],[88.4,8750],[91.3,8833],[91.3,8911],[91.3,9000],[91.3,9083],[91.3,9165],[91.8,9250],[92.6,9333],[94.7,9416],[100,9500],[100,9583],[100,9666],[100,9750],[98.2,9834],[98.1,9916],[95.8,10000],[88,10083],[82.3,10166],[77.1,10250],[68.3,10332],[64.9,10417],[62.1,10500],[55,10583],[50.9,10667],[49.1,10750],[48.8,10833],[48.8,10916],[48.8,11000],[48.8,11083],[48.8,11167],[48.8,11250],[48.9,11333],[48.9,11417],[49.1,11495],[48.6,11585],[48.6,11666],[48.6,11750],[48.6,11833],[48.6,11915],[48.6,12000],[48.6,12083],[48.6,12166],[48.6,12250],[49.4,12333],[51.7,12416],[51.6,12500],[51.6,12582],[50.8,12667],[50.5,12750],[50.4,12831],[50.3,12917],[50.3,13000],[52.3,13083],[59.3,13166],[71,13250],[72.6,13333],[74.5,13416],[75.5,13500],[75.5,13583],[75.5,13661],[75.5,13749],[75.5,13833],[75.4,13916]]",1,0,1061.9892,1064.622,50.10416667,1.6993,"[{""rating"":50.10416666666667,""responseTime"":1.6993000000118172}]",space,2.1004,,1064.6221,Definitely yes,100,1064.6231,,,[],,0,12,12,12,1,audio/Narrative8Situation3.wav,audio/Narrative7Situation3.wav,audio/Narrative6Situation3.wav,audio/Narrative5Situation3.wav,4,8,5,3,,,,,,,,,,,,,,,,,,,,,,,,,,,,,,,,,,,,,,,
,,,,,,66060f19dda14ccd05dfcef9,2024-05-13_09h13.54.412,group3.1-3.2-social-tom,2023.2.2,Win32,59.17159763,65c5074098b851296ff0b7ed,66423c1d4c4348830bcab480,,,,,,,,,,,,,,,,,,,,,,,,,,,,,1064.6233,2,audio/Narrative5Situation4.wav,1065.639,,1065.6391,1086.0391,"[[999,0],[43.9,82],[46.5,1083],[48.1,1166],[48.9,1250],[49.4,1328],[50,1416],[50.7,1500],[50.8,1577],[50.8,1666],[50.8,1750],[50.8,1832],[47.8,1916],[39.8,2000],[33.3,2083],[24.4,2166],[18,2250],[11.9,2333],[10.4,2417],[8.5,2499],[8,2581],[8,2661],[8,2744],[8,2827],[8,2911],[9.6,3000],[10.4,3083],[10.4,3167],[10.4,3249],[10.4,3327],[10.4,3411],[10.4,3499],[10.4,3583],[10.4,3666],[10.7,3750],[11,3833],[11,3916],[11,3999],[11.7,4082],[12.3,4166],[12.3,4249],[12.6,4332],[12.6,4416],[12.5,4499],[10.3,4583],[8.6,4666],[6,4750],[5.9,4832],[3.4,4916],[2.9,5000],[2.9,5082],[2.9,5164],[2.9,5249],[2.7,5333],[2.4,5416],[2.4,5499],[2.4,5583],[2.4,5666],[2.2,5750],[1.9,5832],[1.7,5916],[1.3,6000],[1.1,6083],[1.1,6165],[1.1,6249],[1.1,6332],[1.1,6413],[1.1,6499],[1.1,6582],[1.1,6661],[1.1,6749],[1.1,6832],[1.1,6916],[1.1,6999],[1.1,7077],[1.1,7166],[1.1,7250],[1.1,7333],[1.1,7416],[1.1,7500],[1.1,7577],[1.1,7666],[1.1,7744],[1.1,7833],[1.1,7917],[1.1,8000],[1.1,8083],[1.1,8166],[1.1,8248],[1.1,8333],[1.1,8416],[1.1,8500],[1.1,8582],[1.1,8665],[1.1,8749],[1.1,8827],[1.1,8911],[1.1,8999],[1.1,9083],[1.1,9166],[1.1,9249],[1.1,9327],[1.1,9416],[1.1,9499],[1.1,9578],[1.1,9666],[1.1,9750],[1.1,9833],[1.1,9916],[1.1,9998],[1.1,10082],[1.1,10165],[3.4,10250],[3.6,10333],[3.9,10411],[4.1,10499],[6.6,10583],[7,10661],[9,10750],[10,10834],[10.8,10917],[11.4,10999],[11.4,11083],[11.4,11165],[11.4,11249],[11.4,11333],[11.4,11416],[11.4,11499],[12.1,11583],[14.8,11666],[17.7,11750],[18.1,11833],[20.6,11917],[20.6,12000],[21.9,12083],[24.5,12166],[24.5,12249],[24.5,12333],[24.5,12416],[24.6,12499],[25.2,12578],[26.5,12666],[26.5,12750],[26.5,12833],[26.5,12911],[26.5,12998],[26.5,13082],[28.9,13166],[36.6,13249],[39.2,13332],[39.5,13416],[42.5,13500],[45.4,13583],[46.7,13667],[47.7,13750],[48.3,13833],[48.8,13916],[49.4,14000],[49.7,14083],[49.7,14165],[49.7,14249],[49.9,14334],[49.9,14416],[49.9,14500],[49.9,14577],[49.9,14666],[49.9,14749],[49.9,14833],[49.9,14916],[49.9,15000],[49.9,15083],[49.9,15161],[54.5,15250],[60.9,15333],[63.3,15416],[67.4,15498],[72.9,15583],[75.6,15666],[75.7,15750],[76,15833],[76.5,15916],[76.5,16000],[76.5,16082],[76.6,16166],[81.8,16250],[82,16327],[84.6,16416],[85.3,16500],[85.3,16577],[85.3,16666],[86.9,16750],[89.3,16833],[91.7,16916],[94.4,17000],[95,17083],[97.6,17166],[98,17250],[98.8,17333],[98.8,17416],[98.9,17499],[99.2,17583],[99.2,17666],[99.4,17750],[99.6,17833],[99.6,17916],[99.6,17994],[99.6,18083],[99.6,18166],[99.6,18249],[99.6,18332],[99.6,18411],[99.6,18500],[99.6,18583],[99.6,18660],[99.6,18749],[99.6,18827],[99.6,18916],[99.6,18999],[99.6,19083],[99.6,19166],[99.6,19244],[99.6,19327],[96.6,19417],[84.7,19499],[81.5,19583],[77.5,19667],[77.5,19750],[77.5,19833],[77.2,19916],[77.2,19994],[77.2,20083],[76.9,20165],[76.6,20249],[76.6,20333]]",1,0,1086.0396,1089.2561,69.58333333,2.4981,"[{""rating"":75.10416666666666,""responseTime"":0.9156000000236872},{""rating"":69.58333333333333,""responseTime"":2.498100000023669}]",space,2.6674,,1089.2561,Partially,50,1089.26,,,[],,0,13,13,13,1,audio/Narrative8Situation4.wav,audio/Narrative7Situation4.wav,audio/Narrative6Situation4.wav,audio/Narrative5Situation4.wav,3,3,2,1,,,,,,,,,,,,,,,,,,,,,,,,,,,,,,,,,,,,,,,
,,,,,,66060f19dda14ccd05dfcef9,2024-05-13_09h13.54.412,group3.1-3.2-social-tom,2023.2.2,Win32,59.17159763,65c5074098b851296ff0b7ed,66423c1d4c4348830bcab480,,,,,,,,,,,,,,,,,,,,,,,,,,,,,1089.2603,2,audio/Narrative5Situation5.wav,1094.2672,,1094.2673,1109.7003,"[[52,421],[51.5,505],[51,588],[50.6,672],[50.5,754],[49.8,838],[40.2,922],[29.2,1005],[19.9,1089],[17.4,1171],[17.2,1255],[6.7,1338],[0.3,2588],[0.3,2671],[0.3,2749],[0.3,2838],[2.8,2922],[2.8,3005],[2.8,3088],[3.1,3171],[3.1,3254],[3.1,3337],[4.1,3422],[4.1,3502],[5.3,3587],[6.9,3673],[7.4,3755],[7.6,3837],[7.6,3916],[7.6,4005],[7.6,4087],[7.6,4170],[7.6,4254],[7.6,4333],[7.6,4418],[7.6,4505],[7.6,4588],[7.6,4666],[7.6,4754],[7.9,4839],[8.8,4921],[10.7,5005],[12.6,5088],[15.3,5171],[17.3,5255],[17.3,5335],[17.3,5421],[17.3,5505],[17.3,5582],[17.3,5671],[17.3,5754],[17.3,5837],[17.3,5921],[17.3,6005],[17.3,6088],[17.3,6170],[17.3,6255],[17.5,6338],[19.2,6422],[19.4,6505],[20.2,6588],[25.5,6672],[25.6,6749],[32.8,6839],[38.4,6922],[45.9,7005],[51.5,7088],[51.8,7166],[58.2,7255],[61,7338],[61.3,7421],[61.3,7504],[61.3,7587],[61.3,7671],[61.3,7755],[61.3,7835],[61.4,7916],[64.5,8005],[67.9,8088],[73.5,8172],[75.1,8255],[78,8338],[78,8416],[78.4,8505],[79.1,8587],[79.2,8671],[79.3,8752],[79.3,8832],[79.3,8921],[79.3,9004],[79.3,9082],[79.3,9171],[79.3,9255],[79.3,9333],[79.3,9421],[79.6,9506],[79.6,9588],[79.6,9666],[79.6,9749],[79.8,9838],[79.8,9921],[79.9,10004],[79.9,10083],[80.2,10171],[81.5,10255],[83.1,10338],[83.1,10421],[83.1,10502],[83.1,10583],[83.1,10666],[83.1,10755],[83.1,10838],[83.1,10921],[83.1,11005],[83.2,11088],[83.2,11169],[83.2,11254],[83.2,11338],[83.2,11421],[83.2,11499],[83.2,11583],[83.2,11671],[83.2,11749],[83.2,11833],[83.2,11921],[83.2,11999],[83.2,12087],[83.2,12171],[83.2,12249],[83.2,12337],[83.2,12416],[83.2,12504],[83.2,12585],[83.2,12666],[83.5,12755],[84.3,12838],[84.6,12921],[85,12999],[85,13088],[85.3,13172],[87.4,13255],[88.1,13338],[90,13422],[90.6,13499],[90.8,13585],[91.8,13671],[92.1,13749],[92.4,13833],[92.4,13916],[92.4,13999],[92.4,14088],[92.5,14171],[92.5,14251],[92.5,14337],[92.6,14416],[92.6,14504],[92.8,14588],[93.3,14672],[93.4,14755],[94.1,14838],[94.9,14922],[97.3,15005],[98.4,15088],[98.4,15171],[98.4,15254],[98.6,15333],[98.6,15421]]",1,0,1109.7005,1111.673,89.58333333,1.0519,"[{""rating"":89.58333333333333,""responseTime"":1.0519000000358574}]",space,1.4216,,1111.673,Partially,50,1111.6749,,,[],,0,14,14,14,1,audio/Narrative8Situation5.wav,audio/Narrative7Situation5.wav,audio/Narrative6Situation5.wav,audio/Narrative5Situation5.wav,2,5,2,5,,,,,,,,,,,,,,,,,,,,,,,,,,,,,,,,,,,,,,,
,,,,,,66060f19dda14ccd05dfcef9,2024-05-13_09h13.54.412,group3.1-3.2-social-tom,2023.2.2,Win32,59.17159763,65c5074098b851296ff0b7ed,66423c1d4c4348830bcab480,,,,,,,,,,,,,,,,,,,,,,,,,,,,,1111.6752,2,audio/Narrative5Situation6.wav,1114.6835,,1114.6837,1120.356,"[[999,0],[999,88],[999,166],[999,250],[999,335],[999,416],[999,499],[999,588],[999,666],[37.7,755],[38.6,838],[39.2,922],[39.5,1005],[37.8,1089],[24.2,1175],[21.7,1255],[15.7,1339],[15.4,1416],[15.4,1499],[13,1585],[11.6,1672],[10.5,1750],[7.4,1833],[5.2,1922],[4.4,2005],[3.6,2089],[3.4,2167],[3.4,2249],[3.4,2338],[3.4,2421],[3.4,2504],[3.4,2583],[3.4,2666],[3.4,2749],[3.4,2838],[3.4,2921],[3.4,3005],[3.4,3088],[3.4,3166],[3.4,3254],[3.4,3338],[3.5,3416],[3.9,3505],[3.9,3589],[3.9,3666],[3.9,3755],[3.9,3833],[3.9,3916],[3.9,4000],[3.9,4089],[4,4172],[4.8,4255],[4.5,4338],[4.5,4421],[4.5,4499],[4.5,4588],[4.5,4672],[4.5,4755],[4.5,4833],[4.5,4922],[4.5,5005],[6.9,5088],[10.2,5172],[18.8,5255],[18.8,5338],[18.8,5419],[16.5,5505],[10.7,5589],[8.2,5672]]",1,0,1120.3562,1127.0672,66.25,5.3866,"[{""rating"":49.6875,""responseTime"":2.3162999999524345},{""rating"":66.25,""responseTime"":5.386599999964346}]",space,6.1604,,1127.0674,Definitely yes,100,1127.0711,,,[],,0,15,15,15,1,audio/Narrative8Situation6.wav,audio/Narrative7Situation6.wav,audio/Narrative6Situation6.wav,audio/Narrative5Situation6.wav,2,3,2,3,,,,,,,,,,,,,,,,,,,,,,,,,,,,,,,,,,,,,,,
