exp_question,consent.started,consent.stopped,consentResponse.keys,consentResponse.rt,consentResponse.duration,participantID,date,expName,psychopyVersion,OS,frameRate,STUDY_ID,SESSION_ID,opening1.started,opening1.stopped,keyEndingOpening1.keys,keyEndingOpening1.rt,keyEndingOpening1.duration,volumeAdjust.started,volumeAdjust.stopped,endingAdjust.keys,endingAdjust.rt,endingAdjust.duration,opening2.started,opening2.stopped,keyEndingOpening.keys,keyEndingOpening.rt,keyEndingOpening.duration,mouse.x,mouse.y,mouse.leftButton,mouse.midButton,mouse.rightButton,mouse.time,instructionLoop.thisRepN,instructionLoop.thisTrialN,instructionLoop.thisN,instructionLoop.thisIndex,instructionLoop.ran,readyForAudio.started,readyForAudio.stopped,fixation.started,run,audio_played,fixation.stopped,endPractice.keys,audioPre.started,audioPre.stopped,continuousResponses_audio,continuousSlider.response,continuousSlider.rt,intRating.started,intRating.stopped,intQuestionSlider.response,intQuestionSlider.rt,intQuestionSlider.history,confirmResponse.keys,confirmResponse.rt,confirmResponse.duration,catchQuestion.started,catch_label,catch_value,catchQuestion.stopped,catchQuestionSlider.response,catchQuestionSlider.rt,catchQuestionSlider.history,confirmResponse_2.keys,audioRunLoop.thisRepN,audioRunLoop.thisTrialN,audioRunLoop.thisN,audioRunLoop.thisIndex,audioRunLoop.ran,conditions1_1,conditions2_1,conditions1_2,conditions2_2,dur1_1,dur2_1,dur1_2,dur2_2,endPractice.rt,endPractice.duration,confirmResponse_2.rt,confirmResponse_2.duration,runIntervalBreak.started,runIntervalBreak.stopped,endingBreakKey.keys,endingBreakKey.rt,endingBreakKey.duration,connection.started,connection.stopped,connectionEnding.keys,connectionEnding.rt,connectionEnding.duration,readyForText.started,readyForText.stopped,textPre.started,run_dup,textPre.stopped,continuousResponses_text,textRunLoop.thisRepN,textRunLoop.thisTrialN,textRunLoop.thisN,textRunLoop.thisIndex,textRunLoop.ran,text1_1,text1_2,text2_1,text2_2,runBreakText.started,runBreakText.stopped,endingBreakKey_2.keys,endingBreakKey_2.rt,endingBreakKey_2.duration,ending.started,ending.stopped,endingEnding.keys,endingEnding.rt,endingEnding.duration
social,0.0001,5.2339,y,4.923,,6607c4839cec07dacff8f8fa,2024-05-13_12h31.10.571,group3.1-3.2-social-tom,2023.2.2,Win32,175.4385965,65c5074098b851296ff0b7ed,664240328723f7f039588e2c,,,,,,,,,,,,,,,,,,,,,,,,,,,,,,,,,,,,,,,,,,,,,,,,,,,,,,,,,,,,,,,,,,,,,,,,,,,,,,,,,,,,,,,,,,,,,,,,,,,,,,,,,,
,,,,,,6607c4839cec07dacff8f8fa,2024-05-13_12h31.10.571,group3.1-3.2-social-tom,2023.2.2,Win32,175.4385965,65c5074098b851296ff0b7ed,664240328723f7f039588e2c,5.234,9.3449,space,4.0905,,,,,,,,,,,,,,,,,,,,,,,,,,,,,,,,,,,,,,,,,,,,,,,,,,,,,,,,,,,,,,,,,,,,,,,,,,,,,,,,,,,,,,,,,,,,,,,,,,,,,,
,,,,,,6607c4839cec07dacff8f8fa,2024-05-13_12h31.10.571,group3.1-3.2-social-tom,2023.2.2,Win32,175.4385965,65c5074098b851296ff0b7ed,664240328723f7f039588e2c,,,,,,9.345,14.2631,space,4.6115,,,,,,,,,,,,,,,,,,,,,,,,,,,,,,,,,,,,,,,,,,,,,,,,,,,,,,,,,,,,,,,,,,,,,,,,,,,,,,,,,,,,,,,,,,,,,,,,,
,,,,,,6607c4839cec07dacff8f8fa,2024-05-13_12h31.10.571,group3.1-3.2-social-tom,2023.2.2,Win32,175.4385965,65c5074098b851296ff0b7ed,664240328723f7f039588e2c,,,,,,,,,,,14.2656,21.6785,space,7.4055,,[],[],[],[],[],[],0,0,0,0,1,,,,,,,,,,,,,,,,,,,,,,,,,,,,,,,,,,,,,,,,,,,,,,,,,,,,,,,,,,,,,,,,,,,,,,,,,,,,,,,,
,,,,,,6607c4839cec07dacff8f8fa,2024-05-13_12h31.10.571,group3.1-3.2-social-tom,2023.2.2,Win32,175.4385965,65c5074098b851296ff0b7ed,664240328723f7f039588e2c,,,,,,,,,,,21.6787,35.3278,space,13.5919,,[],[],[],[],[],[],1,0,1,0,1,,,,,,,,,,,,,,,,,,,,,,,,,,,,,,,,,,,,,,,,,,,,,,,,,,,,,,,,,,,,,,,,,,,,,,,,,,,,,,,,
,,,,,,6607c4839cec07dacff8f8fa,2024-05-13_12h31.10.571,group3.1-3.2-social-tom,2023.2.2,Win32,175.4385965,65c5074098b851296ff0b7ed,664240328723f7f039588e2c,,,,,,,,,,,35.3281,44.611,space,9.2633,,[],[],[],[],[],[],2,0,2,0,1,,,,,,,,,,,,,,,,,,,,,,,,,,,,,,,,,,,,,,,,,,,,,,,,,,,,,,,,,,,,,,,,,,,,,,,,,,,,,,,,
,,,,,,6607c4839cec07dacff8f8fa,2024-05-13_12h31.10.571,group3.1-3.2-social-tom,2023.2.2,Win32,175.4385965,65c5074098b851296ff0b7ed,664240328723f7f039588e2c,,,,,,,,,,,44.6113,66.8274,space,22.2046,,[],[],[],[],[],[],3,0,3,0,1,,,,,,,,,,,,,,,,,,,,,,,,,,,,,,,,,,,,,,,,,,,,,,,,,,,,,,,,,,,,,,,,,,,,,,,,,,,,,,,,
,,,,,,6607c4839cec07dacff8f8fa,2024-05-13_12h31.10.571,group3.1-3.2-social-tom,2023.2.2,Win32,175.4385965,65c5074098b851296ff0b7ed,664240328723f7f039588e2c,,,,,,,,,,,66.8328,72.5552,space,5.7136,,[],[],[],[],[],[],4,0,4,0,1,,,,,,,,,,,,,,,,,,,,,,,,,,,,,,,,,,,,,,,,,,,,,,,,,,,,,,,,,,,,,,,,,,,,,,,,,,,,,,,,
,,,,,,6607c4839cec07dacff8f8fa,2024-05-13_12h31.10.571,group3.1-3.2-social-tom,2023.2.2,Win32,175.4385965,65c5074098b851296ff0b7ed,664240328723f7f039588e2c,,,,,,,,,,,,,,,,,,,,,,,,,,,72.5616,75.1387,75.1563,1,audio/Narrative13Situation2.wav,77.1608,,77.1609,106.8941,"[[999,0],[999,95],[58.8,178],[56.7,261],[56.7,344],[56.7,427],[56.7,510],[56.7,595],[56.7,677],[57.2,760],[57.6,845],[58.7,928],[58.7,1011],[58.7,1094],[58.7,1177],[58.7,1261],[58.7,1345],[58.7,1427],[58.7,1510],[58.7,1594],[58.7,1677],[58.7,1760],[58.7,1845],[58.7,1927],[58.7,2010],[58.7,2095],[58.7,2178],[58.7,2260],[58.7,2344],[58.7,2428],[58.5,2510],[60.6,2595],[67.3,2679],[67.3,2760],[67.3,2844],[67.3,2927],[66.2,3012],[60.7,3095],[56.4,3179],[53.9,3260],[51.4,3345],[44.9,3429],[28.7,3512],[14.7,3595],[2.3,3679],[0.6,3761],[0.5,3845],[0.9,3927],[5.4,4012],[12.2,4095],[42.5,4180],[59.5,4262],[66.1,4345],[66.6,4427],[66.1,4511],[64.9,4595],[64.8,4677],[64.8,4760],[64.8,4844],[64.8,4928],[64.8,5010],[64.8,5094],[64.8,5177],[64.8,5260],[64.9,5345],[64.9,5428],[64.9,5511],[64.9,5594],[64.9,5677],[64.9,5760],[64.9,5844],[64.9,5927],[65.1,6010],[65.1,6094],[65.3,6177],[65.6,6260],[66.2,6345],[66.8,6428],[67.4,6510],[67.7,6595],[68.3,6678],[68.5,6760],[68.5,6844],[68.5,6927],[68.5,7010],[68.5,7094],[68.5,7177],[68.5,7260],[69.2,7345],[69.7,7428],[70.1,7510],[70.1,7594],[70.1,7677],[70.1,7760],[69.5,7845],[65.8,7928],[64.8,8010],[64.8,8094],[64.8,8178],[65.4,8261],[67.6,8345],[69.5,8428],[70.2,8511],[70.9,8594],[71.1,8678],[72.3,8761],[75.5,8845],[76.9,8928],[77,9010],[78.4,9095],[84.7,9178],[91.8,9261],[98.9,9345],[100,9427],[100,9511],[100,9594],[100,9677],[100,9760],[100,9844],[100,9928],[100,10010],[100,10094],[100,10177],[100,10260],[100,10344],[100,10427],[100,10510],[100,10594],[100,10677],[100,10760],[100,10844],[100,10928],[100,11010],[100,11094],[100,11177],[100,11260],[100,11344],[100,11427],[100,11510],[100,11594],[100,11677],[100,11760],[100,11844],[100,11927],[100,12010],[100,12094],[100,12178],[100,12260],[100,12344],[100,12428],[100,12510],[100,12594],[100,12677],[100,12760],[100,12844],[100,12927],[100,13010],[100,13094],[100,13177],[100,13260],[100,13344],[100,13427],[100,13510],[100,13594],[100,13677],[100,13760],[100,13844],[100,13928],[100,14010],[100,14094],[100,14177],[100,14261],[100,14344],[100,14427],[100,14510],[100,14594],[100,14677],[100,14760],[100,14844],[100,14927],[100,15010],[100,15094],[100,15177],[100,15260],[100,15344],[100,15427],[100,15510],[100,15595],[100,15678],[100,15762],[100,15845],[100,15927],[100,16010],[100,16095],[100,16177],[100,16260],[100,16344],[100,16427],[100,16510],[100,16595],[100,16678],[100,16762],[100,16845],[100,16928],[100,17011],[100,17095],[100,17178],[100,17260],[100,17345],[100,17428],[100,17511],[86.8,17599],[55.2,17683],[39.9,17766],[33.4,17849],[27.3,17932],[23.8,18016],[23,18099],[21.5,18182],[20.4,18266],[19.6,18349],[19.1,18432],[18.4,18516],[17.6,18599],[16.7,18682],[16.3,18766],[16.1,18849],[15.9,18932],[15.8,19016],[15.6,19099],[15.6,19182],[15.6,19266],[15.6,19349],[15.6,19432],[15.3,19516],[14.9,19599],[14.2,19682],[13.8,19766],[13.6,19849],[13.2,19932],[12.5,20016],[11.7,20099],[10.1,20182],[8.5,20266],[7.9,20349],[7.6,20432],[7.3,20516],[6.5,20599],[4.7,20682],[3.6,20766],[2.8,20849],[2.1,20932],[1.2,21016],[0.5,21099]]",1,0,106.8944,113.4994,56.56976744,5.0561,"[{""rating"":56.56976744186046,""responseTime"":5.056100000001493}]",space,6.0902,,113.4996,Not at all,0,113.5018,,,[],,0,0,0,0,1,audio/Narrative13Situation2.wav,audio/Narrative13Situation2.wav,audio/Narrative13Situation2.wav,audio/Narrative13Situation2.wav,2,2,2,2,,,,,,,,,,,,,,,,,,,,,,,,,,,,,,,,,,,,,,,
,,,,,,6607c4839cec07dacff8f8fa,2024-05-13_12h31.10.571,group3.1-3.2-social-tom,2023.2.2,Win32,175.4385965,65c5074098b851296ff0b7ed,664240328723f7f039588e2c,,,,,,,,,,,,,,,,,,,,,,,,,,,,,113.502,1,audio/Narrative7Situation1.wav,115.4214,space,115.4214,171.2878,"[[999,0],[999,83],[999,166],[999,249],[999,333],[999,416],[999,500],[999,583],[999,666],[999,749],[999,833],[999,916],[999,999],[999,1083],[999,1166],[999,1250],[999,1333],[999,1416],[999,1500],[57.5,1583],[57.3,1666],[57.3,1749],[57.3,1833],[57.3,1916],[57.3,1999],[57.2,2083],[57.2,2166],[57.2,2249],[57.2,2333],[57.2,2416],[57.2,2499],[57.2,2583],[57.2,2666],[57.2,2749],[57.2,2833],[57.2,2916],[57.2,2999],[57.2,3083],[57.2,3166],[57.2,3249],[57.2,3333],[57.2,3416],[57.2,3499],[57.2,3583],[57.2,3666],[57.2,3749],[57.2,3833],[57.2,3916],[57.2,3999],[57.2,4083],[57.2,4166],[57.2,4249],[57.2,4333],[57.2,4416],[57.2,4499],[57.2,4583],[57.2,4666],[57.2,4749],[57.2,4833],[57.2,4916],[57.2,4999],[57.2,5083],[57.2,5166],[57.2,5249],[57.2,5333],[57.2,5416],[57.2,5499],[58.1,5583],[65.1,6416],[66.7,6499],[66.7,6583],[66.7,6666],[66.7,6749],[66.9,6833],[67.5,6916],[67.5,6999],[67.5,7083],[67.5,7166],[67.5,7249],[66.7,7333],[64,7416],[64.1,7499],[64.1,7583],[64.1,7666],[64.1,7749],[62.7,7833],[61.8,7916],[61.7,7999],[61.2,8083],[61,8166],[61,8249],[61,8333],[61,8416],[59.8,8499],[59.7,8583],[59.4,8666],[57.4,8749],[55.6,8833],[55.6,8916],[55.6,8999],[55.6,9083],[55.6,9166],[55.6,9249],[55.6,9333],[58,9416],[60.3,9499],[53.4,9583],[51.7,9666],[52.6,9749],[52.1,9833],[52.1,9916],[53.8,9999],[56.5,10083],[58.3,10166],[58.5,10249],[58.7,10333],[59,10416],[59.9,10499],[61.2,10583],[61.2,10666],[61.2,10749],[61,10833],[59.9,10916],[59.8,10999],[60.1,11083],[60.1,11166],[60.1,11249],[60.1,11333],[60.1,11416],[60.1,11499],[60.1,11583],[60.1,11666],[60.1,11749],[60.1,11833],[60.1,11916],[60.1,11999],[60.1,12083],[59.9,12166],[52.9,12499],[53.4,12583],[51.6,12666],[49.8,12749],[28,13166],[20.7,13249],[14.8,13333],[13.7,13416],[12.6,13499],[12.7,13583],[12.7,13666],[12.7,13749],[12.7,13833],[12.7,13916],[12.7,13999],[12.7,14083],[12.7,14166],[12.7,14249],[12.7,14333],[12.7,14416],[12.7,14499],[12.7,14582],[12.7,14666],[12.7,14749],[12.7,14832],[12.7,14916],[12.7,14999],[12.7,15083],[12.7,15166],[12.7,15249],[12.7,15333],[12.7,15416],[12.7,15499],[12.7,15583],[12.7,15666],[12.7,15749],[12.7,15833],[12.7,15916],[12.7,15999],[12.7,16083],[12.7,16166],[12.7,16249],[12.7,16333],[12.7,16416],[12.7,16499],[12.7,16582],[12.7,16666],[12.7,16749],[12.7,16833],[12.7,16916],[12.7,16999],[12.7,17082],[12.7,17166],[12.2,17249],[6.7,17333],[4.6,17416],[3.9,17499],[2.8,17583],[1.3,17666],[0.7,17749],[0.7,17833],[0.7,17916],[0.7,17999],[0.7,18083],[0.7,18166],[0.7,18249],[0.7,18333],[0.7,18416],[0.7,18499],[0.7,18582],[0.7,18666],[0.7,18749],[0.7,18833],[0.7,18916],[0.7,18999],[0.7,19082],[0.7,19166],[0.7,19249],[0.7,19333],[0.7,19416],[0.7,19499],[1.5,19583],[2.6,19666],[2.6,19749],[2.6,19833],[1,19916],[9.9,22916],[42.3,22999],[70.8,23083],[84.9,23166],[96.9,23249],[100,23333],[100,23416],[100,23499],[100,23582],[100,23666],[100,23749],[100,23832],[100,23916],[100,23999],[100,24082],[100,24166],[100,24249],[100,24332],[100,24416],[100,24499],[100,24582],[100,24666],[100,24749],[100,24832],[100,24916],[100,24999],[100,25082],[100,25166],[100,25249],[100,25332],[100,25416],[100,25499],[100,25582],[100,25666],[100,25749],[100,25832],[100,25916],[100,25999],[100,26082],[100,26166],[100,26249],[100,26332],[100,26416],[100,26499],[100,26582],[100,26666],[100,26749],[100,26832],[100,26916],[100,26999],[100,27082],[100,27166],[100,27249],[100,27332],[100,27416],[97,27499],[84.7,27582],[63.5,27666],[45.4,27749],[42.5,27832],[34.2,27916],[9,28249],[6.9,28333],[6.7,28416],[6.2,28499],[6.3,28582],[8,28666],[8.7,28749],[8.7,28832],[9,28916],[9.4,28999],[9.5,29082],[9.5,29166],[9.5,29249],[9.7,29333],[9.7,29416],[9.7,29499],[9.7,29582],[9.7,29666],[9.7,29749],[9.7,29832],[9.7,29916],[9.7,29999],[9.7,30082],[9.7,30166],[9.7,30249],[9.7,30332],[9.7,30416],[9.7,30499],[9.7,30582],[9.7,30666],[9.7,30749],[9.7,30832],[7.9,30916],[1,30999],[26.3,32249],[60.9,32332],[71.6,32416],[72.5,32499],[74,32582],[80.2,32666],[83.6,32749],[86.4,32832],[87.8,32916],[91.5,32999],[96.9,33082],[100,33166],[100,33249],[100,33332],[100,33416],[100,33499],[100,33582],[100,33666],[100,33749],[100,33832],[100,33916],[100,33999],[100,34082],[100,34166],[100,34249],[100,34332],[100,34416],[100,34499],[100,34582],[100,34666],[100,34749],[100,34832],[100,34916],[100,34999],[100,35082],[100,35166],[100,35249],[100,35332],[100,35416],[100,35499],[100,35582],[100,35666],[100,35749],[100,35832],[100,35916],[100,35999],[100,36082],[100,36166],[100,36249],[100,36332],[100,36416],[100,36499],[100,36582],[100,36666],[100,36749],[100,36832],[100,36916],[100,36999],[100,37082],[100,37166],[100,37249],[100,37332],[100,37416],[100,37499],[100,37582],[100,37666],[100,37749],[100,37832],[100,37916],[100,37999],[100,38082],[100,38166],[99.9,38249],[99.8,38332],[99.7,38416],[99.5,38499],[99.2,38582],[99.1,38666],[98.8,38749],[98.5,38832],[98.3,38916],[98.1,38999],[98,39082],[98,39166],[98.7,39249],[100,39332],[100,39416],[100,39499],[100,39582],[100,39666],[100,39749],[100,39832],[100,39916],[100,39999],[100,40082],[100,40166],[100,40249],[100,40332],[100,40416],[100,40499],[100,40582],[100,40666],[100,40749],[100,40832],[100,40916],[100,40999],[100,41082],[100,41166],[100,41249],[100,41332],[100,41416],[100,41499],[100,41582],[100,41666],[100,41749],[100,41832],[100,41916],[100,41999],[100,42082],[100,42166],[100,42249],[99.7,42332],[99.3,42416],[99.1,42499],[99.1,42582],[99.1,42666],[99.1,42749],[99.1,42832],[99.5,42916],[100,42999],[100,43082],[100,43166],[100,43249],[100,43332],[100,43416],[100,43499],[100,43582],[100,43666],[100,43749],[100,43832],[100,43916],[100,43999],[100,44082],[100,44166],[100,44249],[100,44332],[100,44416],[100,44499],[100,44582],[100,44666],[100,44749],[100,44832],[100,44916],[100,44999],[100,45082],[100,45166],[100,45249],[100,45332],[100,45416],[100,45499],[100,45582],[100,45666],[100,45749],[100,45832],[100,45916],[100,45999],[100,46082],[100,46166],[100,46249],[100,46332],[100,46416],[100,46499],[100,46582],[100,46666],[100,46749],[100,46832],[100,46916],[100,46999],[100,47082],[100,47166],[100,47249],[100,47332],[100,47416],[100,47499],[100,47582],[100,47666],[100,47749],[100,47832],[100,47916],[100,47999],[100,48082],[100,48166],[100,48249],[100,48332],[100,48416],[100,48499],[100,48582],[100,48666],[100,48749],[100,48832],[100,48916],[100,48999],[100,49082],[100,49166],[100,49249],[100,49332],[100,49416],[100,49499],[100,49582],[100,49666],[100,49749],[100,49832],[100,49916],[100,49999],[100,50082],[100,50166],[100,50249],[100,50332],[100,50416],[100,50499],[100,50582],[100,50666],[100,50749],[100,50832],[100,50916],[100,50999],[100,51082],[100,51166],[100,51249],[100,51332],[100,51416],[100,51499],[100,51582],[100,51666],[100,51749],[100,51832],[100,51916],[100,51999],[100,52082],[100,52166],[100,52249],[100,52332],[100,52416],[100,52499],[100,52582],[100,52666],[100,52749],[100,52832],[100,52916],[100,52999],[100,53082],[100,53166],[100,53249],[100,53332],[100,53416],[100,53499],[100,53582],[100,53666],[100,53749],[100,53832],[100,53916],[100,53999],[100,54082],[100,54166],[100,54249],[100,54332],[100,54416],[100,54499],[100,54582],[100,54666],[100,54749],[100,54832],[100,54916],[100,54999],[100,55082],[100,55166],[100,55249],[100,55332],[100,55416],[100,55499],[100,55582],[100,55665]]",1,0,171.2881,176.1874,85.11627907,2.8174,"[{""rating"":83.37209302325581,""responseTime"":1.8973999999985267},{""rating"":85.11627906976744,""responseTime"":2.817399999998514}]",space,4.3836,,176.1875,Partially,50,176.1894,,,[],,0,1,1,1,1,audio/Narrative7Situation1.wav,audio/Narrative8Situation1.wav,audio/Narrative5Situation1.wav,audio/Narrative6Situation1.wav,2,5,5,2,1.9098,,,,,,,,,,,,,,,,,,,,,,,,,,,,,,,,,,,,,,
,,,,,,6607c4839cec07dacff8f8fa,2024-05-13_12h31.10.571,group3.1-3.2-social-tom,2023.2.2,Win32,175.4385965,65c5074098b851296ff0b7ed,664240328723f7f039588e2c,,,,,,,,,,,,,,,,,,,,,,,,,,,,,176.1895,1,audio/Narrative7Situation2.wav,179.193,,179.193,186.6485,"[[999,5],[999,83],[999,166],[999,249],[999,333],[999,416],[999,500],[999,583],[999,666],[999,749],[999,833],[999,916],[999,999],[999,1083],[999,1166],[999,1249],[999,1333],[999,1416],[999,1499],[999,1583],[999,1666],[999,1749],[999,1833],[999,1916],[999,1999],[999,2083],[999,2166],[999,2249],[999,2333],[999,2416],[999,2499],[999,2583],[999,2666],[999,2749],[999,2833],[999,2916],[999,2999],[999,3083],[74.7,3166],[75.3,3249],[81.2,3333],[91.1,3416],[91.6,3499],[94.4,3583],[98.5,3666],[100,3749],[100,3833],[100,3916],[99.9,3999],[99.6,4083],[99.5,4166],[99.4,4249],[99.4,4333],[99.4,4416],[99.4,4499],[99.4,4583],[99.4,4666],[99.4,4749],[99.4,4833],[99.4,4916],[99.4,4999],[99.4,5083],[99.4,5166],[99.4,5249],[99.4,5333],[99.4,5416],[99.4,5499],[99.4,5583],[99.4,5666],[99.4,5749],[99.4,5833],[99.4,5916],[99.4,5999],[99.4,6083],[99.4,6166],[99.4,6249],[99.4,6333],[99.4,6416],[99.4,6499],[99.4,6583],[99.4,6666],[99.4,6750],[99.4,6833],[99.4,6916],[99.4,6999],[99.4,7083],[98.7,7166],[94.7,7250],[92.9,7333],[89.9,7416]]",1,0,186.6485,191.0928,100,3.413,"[{""rating"":99.18604651162791,""responseTime"":2.6532000000029825},{""rating"":100,""responseTime"":3.4129999999999825}]",space,3.933,,191.0928,Definitely yes,100,191.0948,,,[],,0,2,2,2,1,audio/Narrative7Situation2.wav,audio/Narrative8Situation2.wav,audio/Narrative5Situation2.wav,audio/Narrative6Situation2.wav,3,3,3,3,,,,,,,,,,,,,,,,,,,,,,,,,,,,,,,,,,,,,,,
,,,,,,6607c4839cec07dacff8f8fa,2024-05-13_12h31.10.571,group3.1-3.2-social-tom,2023.2.2,Win32,175.4385965,65c5074098b851296ff0b7ed,664240328723f7f039588e2c,,,,,,,,,,,,,,,,,,,,,,,,,,,,,191.0949,1,audio/Narrative7Situation3.wav,199.0983,,199.0983,208.3316,"[[999,5],[999,83],[999,166],[999,249],[999,333],[999,416],[999,499],[999,583],[999,666],[999,750],[999,833],[999,916],[999,1000],[999,1083],[61.2,1166],[61.5,1249],[61.5,1333],[61.5,1416],[61.5,1499],[61.5,1583],[61.5,1666],[61.5,1749],[61.5,1833],[61.5,1916],[61.5,2000],[61.5,2083],[61.5,2166],[61.5,2250],[61.5,2333],[61.5,2416],[61.5,2500],[61.5,2583],[61.5,2666],[61.5,2749],[61.5,2833],[61.5,2916],[61.5,3000],[61.5,3083],[61.5,3166],[61.5,3250],[61.5,3333],[61.5,3416],[61.5,3500],[61.5,3583],[61.5,3666],[61.5,3750],[61.5,3833],[61.5,3916],[61.5,4000],[61.5,4083],[61.5,4166],[61.5,4250],[61.5,4333],[61.5,4416],[61.5,4500],[61.5,4583],[61.5,4666],[61.5,4750],[61.5,4833],[61.5,4916],[61.5,5000],[61.5,5083],[61.5,5166],[61.5,5250],[61.5,5333],[61.5,5416],[61.5,5499],[61.5,5583],[61.5,5666],[61.5,5750],[61.7,5833],[62,5916],[44,6000],[22.4,6083],[16.4,6166],[16,6249],[16.1,6333],[14.1,6416],[12,6499],[11.7,6583],[11.6,6666],[11.6,6749],[11.5,6833],[11.5,6916],[11.5,6999],[11.2,7083],[11,7166],[11,7249],[11,7333],[10.5,7416],[10,7499],[9.1,7583],[8.7,7666],[8.3,7749],[8.3,7833],[8.1,7916],[8.1,7999],[8.1,8083],[8.1,8166],[8.1,8249],[8.1,8333],[8.1,8416],[8.1,8499],[8.1,8583],[8.7,8666],[10.9,8749],[11,8833],[11.2,8916],[12.1,8999],[13.3,9083],[15.1,9166]]",1,0,208.3317,215.7814,11.04651163,6.116,"[{""rating"":11.046511627906973,""responseTime"":6.1159999999999854}]",space,6.9335,,215.7814,Partially,50,215.7829,,,[],,0,3,3,3,1,audio/Narrative7Situation3.wav,audio/Narrative8Situation3.wav,audio/Narrative5Situation3.wav,audio/Narrative6Situation3.wav,8,4,3,5,,,,,,,,,,,,,,,,,,,,,,,,,,,,,,,,,,,,,,,
,,,,,,6607c4839cec07dacff8f8fa,2024-05-13_12h31.10.571,group3.1-3.2-social-tom,2023.2.2,Win32,175.4385965,65c5074098b851296ff0b7ed,664240328723f7f039588e2c,,,,,,,,,,,,,,,,,,,,,,,,,,,,,215.783,1,audio/Narrative7Situation4.wav,218.7869,,218.7869,230.4869,"[[999,0],[999,83],[999,166],[999,250],[999,333],[999,416],[999,499],[999,583],[999,666],[999,750],[999,833],[999,916],[999,1000],[999,1083],[999,1166],[999,1250],[999,1333],[999,1416],[999,1500],[999,1583],[999,1666],[999,1750],[999,1834],[999,1916],[999,2000],[999,2083],[999,2166],[999,2250],[50.7,2333],[50.7,2416],[50.7,2500],[50.7,2583],[50.7,2666],[50.6,2750],[50.1,2833],[46.8,2916],[37.9,3000],[25.9,3083],[17.7,3166],[14.4,3250],[12.9,3333],[9.4,3416],[7,3500],[5.8,3583],[4,3666],[2.4,3750],[1.2,3833],[0.5,3916],[0.1,5250],[0.6,5333],[1.5,5416],[2.6,5500],[3.4,5583],[4.6,5666],[5.8,5750],[6.5,5833],[7,5916],[7.1,5999],[7.2,6083],[7.6,6166],[7.6,6250],[16,6333],[35.3,6416],[51.8,6500],[69.9,6583],[85.8,6666],[92.6,6750],[92.6,6833],[92.7,6916],[93.3,7000],[93.3,7083],[93.3,7166],[91,7250],[85.8,7333],[82.5,7416],[81.3,7500],[80.5,7583],[79.8,7666],[76.5,7750],[72.6,7833],[68,7916],[62.5,8000],[58,8083],[55,8416],[54.1,8500],[53.7,8583],[53.5,8666],[52.6,8749],[51.7,8833],[51.5,8916],[51.1,9000],[50.9,9083],[50.7,9166],[50.6,9249],[50.6,9333],[50.6,9416],[50.6,9499],[50.6,9583],[50.6,9666],[50.6,9749],[50.5,9833],[50.5,9916],[50.5,9999],[50.9,10083],[54.5,10166],[54.5,10249],[54.5,10333],[54.5,10416],[54.5,10499],[54.5,10583],[54.5,10666],[54.5,10749],[54.5,10833],[54.5,10916],[54.5,10999],[54.5,11083],[54.5,11166],[54.5,11249],[54.5,11333],[54.5,11416],[54.5,11499],[54.5,11583],[54.5,11666]]",1,0,230.487,233.7979,0,2.6953,"[{""rating"":0.7558139534883712,""responseTime"":2.0453000000044597},{""rating"":0,""responseTime"":2.6953000000044653}]",space,2.7976,,233.7979,Definitely yes,100,233.7994,,,[],,0,4,4,4,1,audio/Narrative7Situation4.wav,audio/Narrative8Situation4.wav,audio/Narrative5Situation4.wav,audio/Narrative6Situation4.wav,3,3,1,2,,,,,,,,,,,,,,,,,,,,,,,,,,,,,,,,,,,,,,,
,,,,,,6607c4839cec07dacff8f8fa,2024-05-13_12h31.10.571,group3.1-3.2-social-tom,2023.2.2,Win32,175.4385965,65c5074098b851296ff0b7ed,664240328723f7f039588e2c,,,,,,,,,,,,,,,,,,,,,,,,,,,,,233.7996,1,audio/Narrative7Situation5.wav,238.8034,,238.8035,247.27,"[[999,5],[999,83],[999,166],[999,249],[999,333],[999,416],[999,499],[999,583],[999,666],[999,749],[999,833],[999,916],[999,999],[999,1083],[999,1166],[999,1249],[999,1333],[999,1416],[999,1499],[999,1583],[999,1666],[999,1749],[999,1833],[999,1916],[999,1999],[999,2083],[999,2166],[999,2249],[999,2333],[999,2416],[999,2499],[999,2583],[999,2666],[999,2749],[63.5,2833],[67,2916],[72.8,3000],[73.9,3083],[67.7,3166],[59.1,3249],[50.9,3333],[36.3,3416],[11.9,3499],[4.9,3750],[0.6,3833],[0.3,7249],[0.9,7333],[1.5,7416],[1.7,7500],[1.7,7583],[2.1,7666],[2.4,7749],[2.6,7833],[2.6,7916],[2.6,7999],[2.6,8083],[2.6,8166],[2.6,8249],[2.8,8333],[3.1,8416]]",1,0,247.2701,249.72,0,1.0535,"[{""rating"":0,""responseTime"":1.0535000000000139}]",space,1.9334,,249.72,Partially,50,256.1365,49.8255814,5.4335,"[{""rating"":49.883720930232556,""responseTime"":3.9809999999999945},{""rating"":49.82558139534884,""responseTime"":5.433499999999981}]",space,0,5,5,5,1,audio/Narrative7Situation5.wav,audio/Narrative8Situation5.wav,audio/Narrative5Situation5.wav,audio/Narrative6Situation5.wav,5,2,5,2,,,5.9001,,,,,,,,,,,,,,,,,,,,,,,,,,,,,,,,,,,,
,,,,,,6607c4839cec07dacff8f8fa,2024-05-13_12h31.10.571,group3.1-3.2-social-tom,2023.2.2,Win32,175.4385965,65c5074098b851296ff0b7ed,664240328723f7f039588e2c,,,,,,,,,,,,,,,,,,,,,,,,,,,,,256.1368,1,audio/Narrative7Situation6.wav,259.1421,,259.1421,269.0976,"[[49.9,2584],[50.2,2666],[50.3,2749],[50.3,2833],[50.3,2916],[50.3,2999],[50.3,3083],[50.2,3166],[50.2,3249],[50.2,3333],[50.2,3416],[50.2,3499],[50.2,3583],[50.2,3666],[50.2,3749],[50.2,3833],[50.2,3916],[50.2,3999],[50.2,4083],[50.2,4166],[50.2,4249],[50.2,4333],[50.2,4416],[50.2,4499],[50.2,4583],[50.2,4666],[50.2,4749],[50.2,4833],[50.2,4916],[50.2,4999],[50.2,5083],[50.2,5166],[50.2,5249],[50.2,5333],[50.2,5416],[50.2,5499],[50.2,5583],[50.2,5666],[50.2,5749],[50.2,5833],[50.2,5916],[50.2,5999],[50.2,6083],[50.2,6166],[50.2,6249],[50.2,6333],[50.2,6416],[50.2,6499],[50.2,6583],[50.2,6666],[50.2,6749],[50.2,6833],[51.3,6916],[53.2,7000],[54.1,7083],[54.1,7166],[54.1,7249],[54.1,7333],[54,7416],[54,7499],[54,7583],[54,7666],[54,7749],[54,7833],[54,7916],[53.9,7999],[53.8,8083],[53.5,8166],[53.3,8249],[53,8333],[52.8,8416],[52.8,8499],[52.8,8583],[52.8,8666],[52.7,8749],[52.6,8833],[52.6,8916],[52.5,8999],[52.5,9083],[52.5,9166],[52.5,9249],[52.5,9333],[52.5,9416],[52.5,9499],[52.5,9583],[52.5,9666],[52.5,9749],[52.1,9833],[47,9916]]",1,0,269.0977,275.3919,0,4.3511,"[{""rating"":2.209302325581397,""responseTime"":1.5343999999985272},{""rating"":0,""responseTime"":2.1158999999985326},{""rating"":50.116279069767444,""responseTime"":3.797899999998549},{""rating"":0,""responseTime"":4.351100000001509}]",space,5.7775,,275.392,Partially,50,275.3931,,,[],,0,6,6,6,1,audio/Narrative7Situation6.wav,audio/Narrative8Situation6.wav,audio/Narrative5Situation6.wav,audio/Narrative6Situation6.wav,3,2,3,2,,,,,,,,,,,,,,,,,,,,,,,,,,,,,,,,,,,,,,,
,,,,,,6607c4839cec07dacff8f8fa,2024-05-13_12h31.10.571,group3.1-3.2-social-tom,2023.2.2,Win32,175.4385965,65c5074098b851296ff0b7ed,664240328723f7f039588e2c,,,,,,,,,,,,,,,,,,,,,,,,,,,,,275.3931,1,audio/Narrative7Situation7.wav,280.3974,,280.3974,297.5528,"[[999,5],[999,83],[999,166],[999,249],[999,333],[999,416],[999,499],[999,583],[999,666],[999,749],[999,833],[999,916],[999,1000],[999,1083],[53.1,1166],[51.7,1250],[51.7,1333],[51.7,1416],[51.6,1499],[51.5,1583],[51.3,1666],[50.9,1749],[50.5,1833],[50.1,1916],[49.9,1999],[49.9,2083],[49.7,2166],[49.7,2249],[49.5,2333],[49.4,2416],[49.3,2499],[49.1,2583],[49,2666],[48.8,2750],[48.8,2833],[48.7,2916],[48.5,3000],[48.4,3083],[48.4,3166],[48.4,3249],[48.3,3333],[48.3,3416],[48.2,3499],[48.1,3583],[48.1,3666],[48,3749],[48,3833],[48,3916],[48,3999],[48,4083],[48,4166],[48,4249],[48,4333],[48,4416],[48,4499],[48,4583],[48,4666],[48,4749],[48,4833],[48,4916],[48,4999],[48,5083],[48,5166],[48,5249],[48,5333],[48,5416],[48,5499],[48,5583],[48,5666],[48,5749],[48,5833],[48,5916],[48,5999],[48.4,6083],[49.2,6166],[42,6249],[22.7,6333],[8.1,6416],[7.4,6499],[8.4,6583],[17.8,6666],[41.7,6750],[55.8,6833],[57.2,6916],[57.2,6999],[57.2,7083],[57.2,7166],[57.2,7249],[57.3,7333],[60.6,7416],[67.8,7499],[75.9,7583],[80.8,7666],[84.8,7749],[90,7833],[95.1,7916],[97.7,7999],[98,8083],[100,8166],[100,8249],[100,8333],[100,8416],[100,8499],[100,8583],[100,8666],[100,8749],[100,8833],[100,8916],[100,8999],[100,9083],[100,9166],[100,9249],[100,9333],[100,9416],[100,9499],[100,9583],[100,9666],[100,9749],[100,9833],[100,9916],[100,9999],[100,10083],[100,10166],[100,10249],[100,10333],[100,10416],[100,10499],[100,10583],[100,10666],[100,10749],[100,10833],[100,10916],[100,10999],[100,11083],[100,11166],[100,11249],[100,11333],[100,11416],[100,11499],[100,11583],[100,11666],[100,11749],[100,11833],[100,11916],[100,11999],[100,12083],[100,12166],[100,12249],[100,12333],[100,12416],[100,12499],[100,12583],[100,12666],[100,12749],[100,12833],[100,12916],[100,12999],[100,13083],[100,13166],[100,13249],[100,13333],[100,13416],[100,13499],[100,13583],[100,13666],[100,13749],[100,13833],[100,13916],[100,13999],[100,14083],[100,14166],[100,14249],[100,14333],[100,14416],[100,14499],[100,14583],[100,14666],[100,14749],[100,14833],[100,14916],[100,14999],[100,15083],[100,15166],[100,15249],[100,15333],[100,15416],[100,15499],[100,15583],[100,15666],[100,15749],[100,15833],[100,15916],[100,15999],[100,16083],[100,16166],[100,16249],[100,16333],[100,16416],[100,16499],[100,16583],[100,16666],[100,16749],[100,16833],[100,16916],[100,16999],[100,17083]]",1,0,297.5529,299.3639,100,1.1695,"[{""rating"":99.59302325581396,""responseTime"":0.7677999999970666},{""rating"":100,""responseTime"":1.1695000000000277}]",space,1.301,,299.3639,Not at all,0,299.3654,,,[],,0,7,7,7,1,audio/Narrative7Situation7.wav,audio/Narrative8Situation7.wav,audio/Narrative5Situation7.wav,audio/Narrative6Situation7.wav,5,3,4,5,,,,,,,,,,,,,,,,,,,,,,,,,,,,,,,,,,,,,,,
,,,,,,6607c4839cec07dacff8f8fa,2024-05-13_12h31.10.571,group3.1-3.2-social-tom,2023.2.2,Win32,175.4385965,65c5074098b851296ff0b7ed,664240328723f7f039588e2c,,,,,,,,,,,,,,,,,,,,,,,,,,,,,299.3656,1,audio/Narrative7Situation8.wav,301.3694,,301.3694,311.3694,"[[999,0],[999,83],[999,166],[999,249],[999,333],[999,416],[999,499],[999,583],[999,666],[999,750],[999,833],[999,916],[999,1000],[999,1083],[999,1166],[999,1249],[999,1333],[999,1416],[999,1500],[999,1583],[999,1666],[999,1749],[999,1833],[999,1916],[999,2000],[999,2083],[999,2166],[999,2249],[999,2333],[999,2416],[999,2499],[999,2583],[999,2666],[999,2749],[999,2833],[999,2916],[999,3000],[999,3083],[999,3166],[999,3250],[999,3333],[999,3416],[999,3499],[93.1,3583],[95.1,3666],[96.2,3750],[99.7,3833],[99.9,3916],[99.9,3999],[99.8,4083],[92.8,4166],[77,4249],[68.7,4333],[55.1,4416],[48,4499],[47.1,4583],[48.8,4666],[49.7,4749],[49.8,4833],[49.8,4916],[50.1,5000],[98.5,5166],[100,5250],[100,5333],[100,5416],[100,5500],[100,5583],[100,5666],[100,5749],[100,5833],[100,5916],[100,5999],[100,6083],[100,6166],[100,6249],[100,6333],[100,6416],[100,6499],[100,6583],[100,6666],[100,6749],[100,6833],[100,6916],[100,6999],[100,7083],[100,7166],[100,7249],[100,7333],[100,7416],[100,7499],[100,7583],[100,7666],[100,7749],[100,7833],[100,7916],[100,7999],[100,8083],[100,8166],[100,8249],[100,8333],[100,8416],[100,8499],[100,8583],[100,8666],[100,8749],[100,8833],[100,8916],[100,8999],[100,9083],[100,9166],[100,9249],[100,9333],[100,9416],[100,9499],[99.9,9583],[99.9,9666],[99.9,9749],[98.1,9833]]",1,0,311.3695,314.2193,100,1.3462,"[{""rating"":99.94186046511628,""responseTime"":1.0643000000044367},{""rating"":100,""responseTime"":1.3462000000029661}]",space,2.3342,,314.2194,Partially,50,314.2209,,,[],,0,8,8,8,1,audio/Narrative7Situation8.wav,audio/Narrative8Situation8.wav,audio/Narrative5Situation8.wav,audio/Narrative6Situation8.wav,2,3,3,5,,,,,,,,,,,,,,,,,,,,,,,,,,,,,,,,,,,,,,,
,,,,,,6607c4839cec07dacff8f8fa,2024-05-13_12h31.10.571,group3.1-3.2-social-tom,2023.2.2,Win32,175.4385965,65c5074098b851296ff0b7ed,664240328723f7f039588e2c,,,,,,,,,,,,,,,,,,,,,,,,,,,,,314.2209,1,audio/Narrative7Situation9.wav,316.2248,,316.2248,324.8303,"[[999,0],[999,83],[999,166],[999,250],[999,333],[999,416],[999,500],[999,583],[999,666],[999,750],[999,833],[999,916],[999,1000],[999,1083],[999,1166],[999,1250],[999,1333],[999,1416],[999,1500],[999,1583],[999,1666],[999,1750],[999,1833],[999,1916],[999,2000],[999,2083],[999,2166],[999,2250],[999,2333],[999,2416],[999,2500],[999,2583],[999,2666],[999,2749],[999,2833],[999,2916],[999,2999],[999,3083],[999,3166],[999,3250],[999,3333],[999,3416],[999,3499],[999,3583],[999,3666],[999,3749],[999,3833],[999,3916],[999,3999],[999,4083],[999,4166],[100,4250],[100,4666],[100,4749],[100,4833],[100,4916],[100,5000],[100,5083],[100,5166],[100,5249],[100,5333],[100,5416],[99.8,5500],[99.4,5583],[99.4,5666],[99.4,5749],[98.9,5833],[97.7,5916],[97.3,5999],[97.3,6083],[98.3,6166],[98.5,6249],[99.1,6333],[99.7,6416],[100,6499],[100,6583],[100,6666],[100,6749],[100,6833],[100,6916],[100,6999],[100,7083],[100,7166],[100,7249],[100,7333],[100,7416],[100,7499],[100,7583],[100,7666],[100,7750],[100,7833],[100,7916],[100,7999],[100,8083],[100,8166],[100,8249],[100,8333],[100,8416],[100,8499],[100,8583]]",1,0,324.8303,326.0302,100,0.5656,"[{""rating"":100,""responseTime"":0.5656000000014956}]",space,0.6895,,326.0302,Partially,50,326.0312,,,[],,0,9,9,9,1,audio/Narrative7Situation9.wav,audio/Narrative8Situation9.wav,audio/Narrative5Situation9.wav,audio/Narrative6Situation9.wav,2,3,3,4,,,,,,,,,,,,,,,,,,,,,,,,,,,,,,,,,,,,,,,
,,,,,,6607c4839cec07dacff8f8fa,2024-05-13_12h31.10.571,group3.1-3.2-social-tom,2023.2.2,Win32,175.4385965,65c5074098b851296ff0b7ed,664240328723f7f039588e2c,,,,,,,,,,,,,,,,,,,,,,,,,,,,,326.0313,1,audio/Narrative8Situation1.wav,331.0357,,331.0357,346.9357,"[[999,0],[999,83],[999,166],[999,250],[999,333],[999,416],[999,500],[999,583],[999,666],[999,750],[999,833],[999,916],[999,1000],[52.7,1083],[52.2,1166],[51.7,1250],[51.4,1333],[51.4,1416],[51.3,1500],[51.3,1583],[51.3,1666],[51.3,1750],[51,1833],[50.3,1916],[49.4,2000],[45.3,2083],[27.4,2166],[15.4,2250],[14.4,2333],[14.4,2416],[14.4,2500],[14.4,2583],[14.4,2666],[14.4,2750],[13.3,2833],[12,2916],[11.9,3000],[13.4,3083],[15.8,3166],[17.6,3250],[18.5,3333],[19.1,3416],[18.7,3500],[10,3583],[2.8,3666],[1.4,3750],[1.1,3833],[0.1,8167],[1.7,8250],[3.5,8333],[4.7,8416],[5,8500],[5,8583],[5.1,8666],[5.1,8749],[5.2,8833],[5.8,8916],[6,8999],[6.2,9083],[6.2,9166],[7.1,9250],[51.7,9333],[100,9416],[100,10249],[100,10333],[100,10416],[100,10499],[100,10583],[100,10666],[100,10749],[100,10833],[100,10916],[99.7,10999],[99.6,11083],[99.6,11166],[100,11250],[100,11333],[100,11416],[100,11499],[100,11583],[100,11666],[100,11749],[100,11833],[100,11916],[100,11999],[100,12083],[100,12166],[100,12249],[100,12333],[100,12416],[100,12499],[100,12583],[100,12666],[100,12749],[100,12833],[100,12916],[100,12999],[100,13083],[100,13166],[100,13249],[100,13333],[100,13416],[100,13499],[100,13583],[100,13666],[100,13749],[100,13833],[100,13916],[100,13999],[100,14083],[100,14166],[100,14249],[100,14333],[100,14416],[100,14499],[100,14583],[100,14666],[100,14749],[100,14833],[100,14916],[100,14999],[100,15083],[100,15166],[100,15249],[100,15333],[100,15416],[100,15499],[100,15583],[100,15666],[100,15749],[100,15833]]",1,0,346.9358,349.0801,99.94186047,0.822,"[{""rating"":99.94186046511628,""responseTime"":0.8220000000000027}]",space,1.6281,,349.0802,Not at all,0,349.0816,,,[],,0,10,10,10,1,audio/Narrative8Situation1.wav,audio/Narrative7Situation1.wav,audio/Narrative6Situation1.wav,audio/Narrative5Situation1.wav,5,2,2,5,,,,,,,,,,,,,,,,,,,,,,,,,,,,,,,,,,,,,,,
,,,,,,6607c4839cec07dacff8f8fa,2024-05-13_12h31.10.571,group3.1-3.2-social-tom,2023.2.2,Win32,175.4385965,65c5074098b851296ff0b7ed,664240328723f7f039588e2c,,,,,,,,,,,,,,,,,,,,,,,,,,,,,349.0817,1,audio/Narrative8Situation2.wav,352.0855,,352.0855,362.1855,"[[999,5],[999,83],[999,166],[999,250],[999,333],[999,416],[999,500],[999,583],[999,666],[999,750],[999,833],[999,916],[999,1000],[999,1083],[999,1166],[999,1250],[999,1333],[999,1416],[999,1499],[999,1583],[999,1666],[999,1750],[999,1833],[999,1916],[999,2000],[999,2083],[999,2166],[999,2250],[999,2333],[999,2416],[999,2500],[999,2583],[999,2666],[999,2749],[999,2833],[999,2916],[999,3000],[999,3083],[999,3166],[999,3250],[999,3333],[999,3416],[999,3500],[999,3583],[999,3666],[999,3749],[999,3833],[999,3916],[999,4000],[999,4083],[999,4166],[999,4250],[999,4333],[999,4416],[999,4500],[999,4583],[999,4666],[999,4749],[999,4833],[999,4916],[999,4999],[999,5083],[999,5166],[999,5250],[999,5333],[999,5416],[999,5499],[999,5583],[999,5666],[999,5749],[999,5833],[999,5916],[999,5999],[999,6083],[999,6166],[999,6249],[999,6333],[999,6416],[999,6499],[999,6583],[999,6666],[999,6749],[999,6833],[999,6916],[999,6999],[999,7083],[999,7166],[999,7250],[999,7333],[999,7416],[999,7499],[71.4,7583],[80.6,7666],[81.9,7750],[82,7833],[82,7916],[82,7999],[82,8083],[78.8,8166],[69.5,8250],[64.9,8333],[64.4,8416],[63.4,8500],[60.4,8583],[58.5,8666],[56.2,8750],[53.4,8833],[52.8,8916],[52.8,8999],[52.2,9083],[51.4,9166],[51.3,9249],[51.3,9333],[51.3,9416],[51.2,9500],[50,9583],[51.8,9666],[51.8,9749],[51.8,9833],[50.8,9916],[28.2,9999],[17.5,10083]]",1,0,362.1856,364.1855,0,1.0286,"[{""rating"":0,""responseTime"":1.0286000000015179}]",space,1.4851,,364.1855,Partially,50,364.1869,,,[],,0,11,11,11,1,audio/Narrative8Situation2.wav,audio/Narrative7Situation2.wav,audio/Narrative6Situation2.wav,audio/Narrative5Situation2.wav,3,3,3,3,,,,,,,,,,,,,,,,,,,,,,,,,,,,,,,,,,,,,,,
,,,,,,6607c4839cec07dacff8f8fa,2024-05-13_12h31.10.571,group3.1-3.2-social-tom,2023.2.2,Win32,175.4385965,65c5074098b851296ff0b7ed,664240328723f7f039588e2c,,,,,,,,,,,,,,,,,,,,,,,,,,,,,364.1871,1,audio/Narrative8Situation3.wav,368.191,,368.191,390.5518,"[[999,5],[999,83],[999,166],[999,249],[999,333],[999,416],[999,499],[999,583],[999,666],[999,749],[999,833],[999,916],[999,1000],[999,1083],[999,1166],[999,1249],[999,1333],[999,1416],[999,1499],[999,1583],[999,1666],[999,1749],[999,1833],[999,1916],[999,1999],[999,2083],[999,2166],[999,2249],[999,2333],[999,2416],[999,2499],[999,2583],[999,2666],[999,2749],[999,2833],[999,2916],[999,2999],[999,3083],[999,3166],[999,3249],[999,3333],[999,3416],[999,3499],[999,3583],[999,3666],[999,3749],[999,3833],[999,3916],[999,3999],[999,4083],[999,4166],[999,4249],[999,4333],[999,4416],[999,4499],[999,4583],[999,4666],[999,4749],[999,4833],[999,4916],[999,4999],[999,5083],[999,5166],[999,5249],[999,5333],[999,5416],[999,5499],[999,5583],[999,5666],[999,5749],[999,5833],[999,5916],[999,5999],[999,6083],[999,6166],[999,6249],[999,6333],[999,6416],[999,6499],[999,6583],[999,6666],[999,6749],[999,6833],[999,6916],[999,6999],[999,7083],[999,7166],[999,7249],[999,7333],[999,7416],[999,7499],[999,7583],[999,7666],[999,7749],[999,7833],[999,7916],[999,7999],[999,8083],[999,8166],[999,8249],[999,8333],[999,8416],[999,8499],[999,8583],[999,8666],[999,8749],[999,8833],[999,8916],[999,8999],[999,9083],[999,9166],[999,9249],[999,9333],[999,9416],[45.2,9499],[49.7,9583],[65.6,9666],[76.8,9749],[83.9,9833],[93.1,9916],[97.4,9999],[98.8,10083],[100,10166],[100,10249],[100,10333],[100,10416],[100,10499],[100,10583],[100,10666],[100,10749],[100,10833],[100,10916],[100,10999],[100,11083],[100,11166],[100,11249],[100,11333],[100,11416],[100,11499],[100,11583],[100,11666],[99.8,11749],[99.8,11833],[99.5,11916],[99.4,11999],[99.2,12083],[99.1,12166],[98.9,12249],[98.7,12333],[98.5,12416],[98.3,12499],[98.2,12583],[98,12666],[97.9,12749],[97.9,12833],[97.7,12916],[97.7,12999],[97.7,13083],[97.7,13166],[97.6,13249],[97.5,13333],[97.5,13416],[97.4,13499],[97.4,13583],[97.4,13666],[97.4,13749],[97.4,13833],[97.4,13916],[97.4,13999],[97.4,14083],[97.4,14166],[97.4,14249],[97.4,14333],[97.4,14416],[97.4,14499],[97.4,14583],[97.4,14666],[97.4,14749],[97.4,14833],[97.4,14916],[97.4,14999],[97.4,15083],[97.4,15166],[97.4,15249],[97.4,15333],[97.4,15416],[97.4,15499],[97.4,15583],[97.4,15666],[97.4,15749],[97.4,15833],[97.4,15916],[97.4,15999],[97.4,16083],[96.5,16166],[87.4,16249],[82.8,16333],[82.7,16416],[82.7,16499],[82.7,16583],[82.7,16666],[82.7,16749],[82.7,16833],[82.7,16916],[82.7,16999],[82.3,17083],[80.6,17166],[80.1,17249],[80.1,17333],[80.1,17416],[80.1,17499],[80.1,17583],[80.1,17666],[80.1,17749],[80.1,17833],[80.1,17916],[80.1,17999],[80.5,18083],[89.1,18166],[96.3,18249],[99,18333],[100,18416],[100,18499],[100,18583],[100,18666],[100,18749],[100,18833],[100,18916],[100,18999],[100,19083],[100,19166],[100,19249],[100,19333],[100,19416],[100,19499],[100,19583],[100,19666],[100,19749],[100,19833],[100,19916],[100,19999],[100,20083],[100,20166],[100,20249],[100,20333],[100,20416],[100,20499],[100,20583],[97.7,20666],[73.1,20749],[56,20833],[52.8,20916],[52.8,20999],[53.3,21083],[53.4,21166],[53.4,21249],[53.4,21333],[53.4,21416],[53.4,21499],[53.4,21583],[53.4,21666],[53.4,21749],[53.4,21833],[53.5,21916],[53.5,21999],[53.5,22083],[53.5,22166],[53.5,22249],[53.5,22333]]",1,0,390.5519,392.0019,50.23255814,0.692,"[{""rating"":50.23255813953489,""responseTime"":0.6919999999999504}]",space,0.9338,,392.0019,Not at all,0,392.0034,,,[],,0,12,12,12,1,audio/Narrative8Situation3.wav,audio/Narrative7Situation3.wav,audio/Narrative6Situation3.wav,audio/Narrative5Situation3.wav,4,8,5,3,,,,,,,,,,,,,,,,,,,,,,,,,,,,,,,,,,,,,,,
,,,,,,6607c4839cec07dacff8f8fa,2024-05-13_12h31.10.571,group3.1-3.2-social-tom,2023.2.2,Win32,175.4385965,65c5074098b851296ff0b7ed,664240328723f7f039588e2c,,,,,,,,,,,,,,,,,,,,,,,,,,,,,392.0035,1,audio/Narrative8Situation4.wav,395.0073,,395.0073,409.1628,"[[999,0],[999,83],[999,166],[999,249],[999,333],[999,416],[999,500],[999,583],[999,666],[999,750],[999,833],[999,916],[999,999],[999,1083],[999,1166],[999,1250],[999,1333],[999,1416],[999,1500],[999,1583],[999,1666],[999,1750],[999,1833],[999,1916],[999,1999],[999,2083],[999,2166],[999,2250],[999,2333],[999,2416],[999,2499],[999,2583],[999,2666],[999,2749],[999,2833],[999,2916],[999,3000],[999,3083],[999,3166],[999,3249],[51.8,3333],[51.8,3416],[51.8,3499],[51.8,3583],[52.4,3666],[59.1,3749],[66.6,3833],[79.7,3916],[93,4000],[99.7,4083],[100,4166],[100,4249],[100,4333],[100,4416],[100,4500],[100,4583],[100,4666],[100,4750],[100,4833],[100,4916],[100,5000],[100,5083],[100,5166],[100,5250],[100,5333],[100,5416],[100,5500],[100,5583],[100,5666],[100,5750],[100,5833],[100,5916],[100,6000],[100,6083],[100,6166],[100,6250],[100,6333],[100,6416],[100,6499],[100,6583],[100,6666],[100,6749],[100,6833],[100,6916],[100,6999],[100,7083],[100,7167],[100,7249],[100,7333],[100,7416],[100,7499],[100,7583],[100,7666],[100,7749],[100,7833],[100,7916],[100,7999],[100,8083],[100,8166],[100,8249],[100,8333],[100,8416],[100,8499],[100,8583],[100,8666],[100,8749],[100,8833],[100,8916],[100,8999],[100,9083],[100,9166],[100,9249],[100,9333],[100,9416],[100,9499],[100,9583],[100,9666],[100,9749],[100,9833],[100,9916],[100,9999],[100,10083],[100,10166],[100,10249],[100,10333],[100,10416],[100,10499],[100,10583],[100,10666],[100,10749],[100,10833],[100,10916],[100,10999],[100,11083],[100,11166],[100,11249],[100,11333],[100,11416],[100,11499],[100,11583],[100,11666],[100,11749],[100,11833],[100,11916],[100,11999],[100,12083],[100,12166],[100,12249],[100,12333],[100,12416],[100,12499],[100,12583],[100,12666],[100,12749],[100,12833],[100,12916],[100,12999],[100,13083],[100,13166],[100,13249],[100,13333],[100,13416],[100,13499],[100,13583],[100,13666],[100,13749],[100,13833],[100,13916],[100,13999],[100,14083]]",1,0,409.1629,411.5793,100,1.0179,"[{""rating"":100,""responseTime"":1.017900000005966}]",space,1.9027,,411.5793,Not at all,0,411.5803,,,[],,0,13,13,13,1,audio/Narrative8Situation4.wav,audio/Narrative7Situation4.wav,audio/Narrative6Situation4.wav,audio/Narrative5Situation4.wav,3,3,2,1,,,,,,,,,,,,,,,,,,,,,,,,,,,,,,,,,,,,,,,
,,,,,,6607c4839cec07dacff8f8fa,2024-05-13_12h31.10.571,group3.1-3.2-social-tom,2023.2.2,Win32,175.4385965,65c5074098b851296ff0b7ed,664240328723f7f039588e2c,,,,,,,,,,,,,,,,,,,,,,,,,,,,,411.5805,1,audio/Narrative8Situation5.wav,413.5849,,413.5849,421.8126,"[[100,1833],[100,1916],[100,1999],[100,2083],[100,2166],[100,2249],[100,2333],[100,2416],[100,2499],[100,2583],[100,2666],[100,2749],[100,2833],[100,2916],[100,2999],[100,3083],[100,3166],[100,3249],[100,3333],[100,3416],[100,3499],[100,3583],[100,3666],[100,3749],[100,3833],[100,3916],[100,4000],[100,4083],[100,4166],[100,4250],[100,4333],[100,4416],[100,4500],[100,4583],[100,4666],[100,4750],[100,4833],[100,4916],[100,5000],[100,5083],[100,5166],[100,5250],[100,5333],[100,5416],[100,5500],[100,5583],[100,5666],[100,5749],[100,5833],[100,5916],[100,6000],[100,6083],[100,6166],[100,6250],[99.4,6333],[89.6,6416],[85.9,6500],[89.1,6583],[95.3,6666],[98.5,6750],[99.5,6833],[99.7,6916],[99.7,7000],[99.7,7083],[99.7,7166],[99.7,7250],[99.7,7333],[99.7,7416],[99.7,7499],[99.7,7583],[99.7,7666],[99.7,7749],[99.7,7833],[100,7916],[100,8000],[100,8083],[100,8166]]",1,0,421.8126,423.5125,100,1.3493,"[{""rating"":100,""responseTime"":1.3492999999970152}]",space,1.1913,,423.5126,Partially,50,423.5141,,,[],,0,14,14,14,1,audio/Narrative8Situation5.wav,audio/Narrative7Situation5.wav,audio/Narrative6Situation5.wav,audio/Narrative5Situation5.wav,2,5,2,5,,,,,,,,,,,,,,,,,,,,,,,,,,,,,,,,,,,,,,,
,,,,,,6607c4839cec07dacff8f8fa,2024-05-13_12h31.10.571,group3.1-3.2-social-tom,2023.2.2,Win32,175.4385965,65c5074098b851296ff0b7ed,664240328723f7f039588e2c,,,,,,,,,,,,,,,,,,,,,,,,,,,,,423.5142,1,audio/Narrative8Situation6.wav,425.5181,,425.5181,431.9681,"[[100,3416],[97.1,3500],[84.2,3583],[89.5,3750],[100,3833],[100,3916],[100,4000],[100,4083],[100,4166],[100,4250],[100,4333],[100,4416],[100,4500],[100,4583],[100,4666],[100,4749],[100,4833],[100,4916],[100,4999],[100,5083],[100,5166],[100,5249],[100,5333],[100,5416],[100,5499],[100,5583],[100,5666],[100,5749],[100,5833],[100,5916],[100,5999],[100,6083],[100,6166],[100,6249],[100,6333],[100,6416]]",1,0,431.9681,433.5568,100,1.2287,"[{""rating"":100,""responseTime"":1.2287000000029593}]",space,1.0757,,433.5569,Definitely yes,100,433.5584,,,[],,0,15,15,15,1,audio/Narrative8Situation6.wav,audio/Narrative7Situation6.wav,audio/Narrative6Situation6.wav,audio/Narrative5Situation6.wav,2,3,2,3,,,,,,,,,,,,,,,,,,,,,,,,,,,,,,,,,,,,,,,
,,,,,,6607c4839cec07dacff8f8fa,2024-05-13_12h31.10.571,group3.1-3.2-social-tom,2023.2.2,Win32,175.4385965,65c5074098b851296ff0b7ed,664240328723f7f039588e2c,,,,,,,,,,,,,,,,,,,,,,,,,,,,,433.5584,1,audio/Narrative8Situation7.wav,436.5624,,436.5624,448.629,"[[100,5000],[100,5250],[100,5333],[100,5416],[100,5500],[100,5583],[100,5666],[100,5750],[100,5833],[100,5916],[100,5999],[100,6083],[100,6166],[100,6250],[100,6333],[100,6416],[100,6499],[100,6583],[100,6666],[100,6750],[100,6833],[100,6916],[100,6999],[100,7083],[100,7166],[100,7249],[100,7333],[100,7416],[100,7499],[100,7583],[100,7666],[100,7749],[100,7833],[100,7916],[100,7999],[100,8083],[100,8166],[100,8249],[100,8333],[100,8416],[100,8499],[100,8583],[100,8666],[100,8749],[100,8833],[100,8916],[100,8999],[100,9083],[100,9166],[100,9249],[100,9333],[100,9416],[100,9499],[100,9583],[100,9666],[100,9749],[100,9833],[100,9916],[100,9999],[100,10083],[100,10166],[100,10249],[100,10333],[100,10416],[100,10499],[100,10583],[100,10666],[100,10749],[100,10833],[100,10916],[100,10999],[100,11083],[100,11166],[100,11249],[100,11333],[100,11416],[100,11499],[100,11583],[100,11666],[100,11749],[100,11833],[100,11916],[100,11999]]",1,0,448.6291,453.329,100,4.3132,"[{""rating"":97.5,""responseTime"":4.024400000005926},{""rating"":100,""responseTime"":4.313200000002951}]",space,4.1837,,453.329,Partially,50,453.3306,,,[],,0,16,16,16,1,audio/Narrative8Situation7.wav,audio/Narrative7Situation7.wav,audio/Narrative6Situation7.wav,audio/Narrative5Situation7.wav,3,5,5,4,,,,,,,,,,,,,,,,,,,,,,,,,,,,,,,,,,,,,,,
,,,,,,6607c4839cec07dacff8f8fa,2024-05-13_12h31.10.571,group3.1-3.2-social-tom,2023.2.2,Win32,175.4385965,65c5074098b851296ff0b7ed,664240328723f7f039588e2c,,,,,,,,,,,,,,,,,,,,,,,,,,,,,453.3307,1,audio/Narrative8Situation8.wav,456.3344,,456.3344,469.1676,"[[100,7833],[100,7916],[100,8000],[100,8083],[100,8166],[100,8249],[100,8333],[100,8416],[100,8499],[100,8583],[100,8666],[100,8750],[100,8833],[100,8916],[100,8999],[100,9083],[100,9166],[100,9250],[100,9333],[100,9416],[100,9499],[100,9583],[100,9666],[100,9749],[100,9833],[100,9916],[100,9999],[100,10083],[100,10166],[100,10249],[100,10333],[100,10416],[100,10499],[100,10583],[100,10666],[100,10749],[100,10833],[100,10916],[100,10999],[100,11083],[100,11166],[100,11249],[100,11333],[100,11416],[100,11499],[100,11583],[100,11666],[100,11749],[100,11833],[100,11916],[100,11999],[100,12083],[100,12166],[100,12249],[100,12333],[100,12416],[100,12499],[100,12583],[100,12666],[100,12749],[100,12833]]",1,0,469.1677,472.1121,100,2.6236,"[{""rating"":100,""responseTime"":2.6236000000014883}]",space,2.4282,,472.1121,Definitely yes,100,472.1135,,,[],,0,17,17,17,1,audio/Narrative8Situation8.wav,audio/Narrative7Situation8.wav,audio/Narrative6Situation8.wav,audio/Narrative5Situation8.wav,3,2,5,3,,,,,,,,,,,,,,,,,,,,,,,,,,,,,,,,,,,,,,,
,,,,,,6607c4839cec07dacff8f8fa,2024-05-13_12h31.10.571,group3.1-3.2-social-tom,2023.2.2,Win32,175.4385965,65c5074098b851296ff0b7ed,664240328723f7f039588e2c,,,,,,,,,,,,,,,,,,,,,,,,,,,,,472.1136,1,audio/Narrative8Situation9.wav,475.1175,,475.1175,486.412,"[[100,6916],[100,7250]]",1,0,486.412,487.7841,100,0.865,"[{""rating"":100,""responseTime"":0.8650000000000091}]",space,0.8556,,487.7841,Partially,50,487.7856,,,[],,0,18,18,18,1,audio/Narrative8Situation9.wav,audio/Narrative7Situation9.wav,audio/Narrative6Situation9.wav,audio/Narrative5Situation9.wav,3,2,4,3,,,,,,,,,,,,,,,,,,,,,,,,,,,,,,,,,,,,,,,
,,,,,,6607c4839cec07dacff8f8fa,2024-05-13_12h31.10.571,group3.1-3.2-social-tom,2023.2.2,Win32,175.4385965,65c5074098b851296ff0b7ed,664240328723f7f039588e2c,,,,,,,,,,,,,,,,,,,,,,,,,,,490.3344,492.9119,492.9185,2,audio/Narrative13Situation2.wav,492.9186,,492.9186,522.645,"[[98.4,5743],[71.3,5826],[34.2,5909],[18.2,5993],[16.2,6076],[8.5,6159],[4,6243],[3.4,6326],[3.4,6409],[3.4,6493],[3.4,6576],[3.4,6659],[3.4,6743],[3.5,6826],[3.8,6909],[3.8,6993],[3.8,7076],[2.2,7159],[1.9,7243],[1.9,7326],[2,7409],[3,7493],[5.3,7576],[5.8,7659],[5.8,7743],[9.7,7826],[49.2,7909],[85.7,7993],[100,8076],[100,8159],[100,8243],[100,8326],[100,8409],[100,8493],[100,8576],[100,8659],[100,8743],[100,8826],[100,8909],[100,8993],[100,9076],[100,9159],[100,9243],[100,9326],[100,9409],[100,9493],[100,9576],[100,9659],[100,9743],[100,9826],[100,9909],[100,9993],[100,10076],[100,10159],[100,10243],[100,10326],[100,10409],[100,10493],[100,10576],[100,10659],[100,10743],[100,10826],[100,10909],[100,10993],[100,11076],[100,11159],[100,11243],[100,11326],[100,11409],[100,11492],[100,11576],[100,11659],[100,11743],[100,11826],[100,11909],[100,11993],[100,12076],[100,12159],[100,12242],[100,12326],[100,12409],[100,12493],[100,12576],[100,12659],[100,12743],[100,12826],[100,12909],[100,12992],[100,13076],[100,13159],[100,13242],[100,13326],[100,13409],[100,13492],[100,13576],[100,13659],[100,13742],[100,13826],[100,13909],[100,13992],[100,14076],[100,14159],[100,14243],[100,14326],[100,14409],[100,14493],[100,14576],[100,14659],[100,14742],[100,14826],[100,14909],[100,14992],[100,15076],[100,15159],[100,15242],[100,15326],[100,15409],[100,15492],[100,15576],[100,15659],[100,15742],[100,15826],[100,15909],[100,15992],[100,16076],[100,16159],[100,16242],[100,16326],[100,16409],[100,16492],[100,16576],[100,16659],[100,16742],[100,16826],[100,16909],[100,16992],[100,17076],[100,17159],[100,17242],[100,17326],[100,17409],[100,17492],[100,17576],[100,17659],[100,17742],[100,17826],[100,17909],[100,17992],[100,18076],[100,18159],[100,18242],[100,18326],[100,18409],[100,18493],[100,18576],[100,18659],[100,18742],[100,18826],[100,18909],[100,18992],[100,19076],[100,19159],[100,19242],[100,19326],[100,19409],[100,19492],[100,19576],[100,19659],[100,19742],[100,19826],[100,19909],[100,19992],[100,20076],[100,20159],[100,20243],[95.9,20326],[94.3,20409],[88.4,20493],[88.4,20576],[88.4,20659],[88.4,20742],[37.4,21242],[26.1,21327],[21.5,21409],[21,21492],[19.8,21576],[18.3,21659],[15.3,21742],[13.2,21826],[12.2,21909],[12.2,21992],[12.2,22076],[12.2,22159],[12.2,22242],[12.2,22326],[12.2,22409],[12.2,22492],[12.2,22576],[12.2,22659],[12.2,22742],[12.2,22826],[12.2,22909],[12.2,22992],[12.2,23076],[12.2,23159],[12.2,23242],[12.2,23326],[12.2,23409],[12.2,23492],[12.2,23576],[12.2,23659],[12.2,23742],[12.2,23826],[12.2,23909],[12.3,23992],[14.5,24076],[16.9,24159],[18.4,24242],[19.3,24326],[19.7,24409],[26.7,24492],[34,24576],[37.8,24660],[39.9,24742],[39.2,24826],[26.2,24909],[17.3,24992],[15.4,25076],[14,25159],[10.8,25242],[8.9,25326],[7.8,25409],[6.9,25492],[6.6,25576],[6.2,25659],[5.6,25742],[4.8,25826],[4,25909],[3.3,25992],[2.6,26076],[2.2,26159],[2.1,26242],[2.1,26326],[2.1,26409],[2.1,26492],[2.1,26576],[2.1,26659],[2.6,26742],[2.9,26826],[3.1,26909],[3.1,26992],[2.6,27076],[1.6,27159],[0.1,27242],[0.9,28992],[3.2,29076],[3.2,29159],[2.1,29242],[1.6,29326],[55.9,29659]]",1,0,522.6451,522.6459,,,[],,,,522.6459,Partially,50,522.6464,,,[],,0,0,0,0,1,audio/Narrative13Situation2.wav,audio/Narrative13Situation2.wav,audio/Narrative13Situation2.wav,audio/Narrative13Situation2.wav,2,2,2,2,,,,,487.786,490.3342,space,2.0388,,,,,,,,,,,,,,,,,,,,,,,,,,,,,,,
,,,,,,6607c4839cec07dacff8f8fa,2024-05-13_12h31.10.571,group3.1-3.2-social-tom,2023.2.2,Win32,175.4385965,65c5074098b851296ff0b7ed,664240328723f7f039588e2c,,,,,,,,,,,,,,,,,,,,,,,,,,,,,522.6466,2,audio/Narrative5Situation1.wav,527.6503,,527.6504,540.9169,"[[999,5],[999,83],[999,166],[999,249],[999,333],[999,416],[999,499],[999,583],[999,666],[999,749],[999,833],[999,916],[999,999],[999,1083],[999,1166],[999,1249],[999,1333],[999,1416],[999,1499],[999,1583],[999,1666],[999,1749],[999,1833],[999,1916],[999,1999],[999,2083],[999,2166],[999,2249],[999,2333],[999,2416],[999,2499],[999,2583],[999,2666],[999,2749],[999,2833],[999,2916],[36.6,2999],[24.5,3083],[14.7,3166],[6.9,3249],[2.4,3333],[0.7,3416],[0.6,3499],[0.6,3583],[0.6,3666],[0.6,3749],[0.6,3833],[0.6,3916],[0.6,3999],[0.6,4083],[0.6,4166],[0.6,4249],[0.6,4333],[0.6,4416],[0.6,4499],[0.6,4583],[1,4666],[1,4749],[1,4833],[1,4916],[1,4999],[1,5083],[1,5166],[1,5249],[1,5333],[1,5416],[1,5499],[1,5583],[1,5666],[1,5749],[1,5833],[1,5916],[1,5999],[1,6083],[1,6166],[1,6249],[1,6333],[1,6416],[1,6499],[1,6583],[1,6666],[1,6749],[1,6833],[1,6916],[1,6999],[1,7083],[1,7166],[1,7249],[1,7333],[1,7416],[1,7499],[1,7583],[1,7666],[1,7749],[1,7833],[1,7916],[1,7999],[1,8083],[1,8166],[1,8249],[1,8333],[1,8416],[1,8499],[1,8583],[1,8666],[1,8749],[1,8833],[1,8916],[1,8999],[1,9083],[1,9166],[1,9249],[1,9333],[1,9416],[1,9499],[1,9583],[1,9666],[1,9749],[1,9833],[1,9916],[1,9999],[1,10083],[1,10166],[1,10249],[1,10333],[1,10416],[1,10499],[1,10583],[1,10666],[1,10749],[1,10833],[1,10916],[1,10999],[1,11083],[1,11166],[1,11249],[1,11333],[1,11416],[1,11499],[1,11583],[1,11666],[1,11749],[1,11833],[1,11916],[1,11999],[1,12083],[1,12166],[0.3,12249],[0.6,12666],[11.5,12749],[14.5,12833],[16.7,12916],[45.6,12999],[78.8,13083],[85.1,13166],[80.6,13249]]",1,0,540.917,543.6668,37.3255814,0.8211,"[{""rating"":37.32558139534884,""responseTime"":0.8211000000014792}]",space,2.2332,,543.6669,Partially,50,543.6679,,,[],,0,1,1,1,1,audio/Narrative7Situation1.wav,audio/Narrative8Situation1.wav,audio/Narrative5Situation1.wav,audio/Narrative6Situation1.wav,2,5,5,2,,,,,,,,,,,,,,,,,,,,,,,,,,,,,,,,,,,,,,,
,,,,,,6607c4839cec07dacff8f8fa,2024-05-13_12h31.10.571,group3.1-3.2-social-tom,2023.2.2,Win32,175.4385965,65c5074098b851296ff0b7ed,664240328723f7f039588e2c,,,,,,,,,,,,,,,,,,,,,,,,,,,,,543.668,2,audio/Narrative5Situation2.wav,546.6723,,546.6724,576.1166,"[[999,0],[999,83],[999,166],[999,250],[999,333],[999,416],[999,499],[999,583],[999,666],[999,749],[999,833],[999,916],[999,999],[999,1083],[999,1166],[999,1250],[999,1333],[999,1416],[999,1499],[999,1583],[999,1666],[999,1749],[999,1833],[999,1916],[999,1999],[999,2083],[999,2166],[999,2250],[999,2333],[999,2416],[999,2499],[999,2583],[999,2666],[999,2749],[999,2833],[999,2916],[999,2999],[999,3083],[999,3166],[999,3249],[999,3333],[999,3416],[999,3499],[999,3583],[999,3666],[999,3749],[999,3833],[999,3916],[999,3999],[999,4083],[999,4166],[999,4249],[999,4333],[999,4416],[999,4499],[999,4583],[999,4666],[999,4749],[999,4833],[999,4916],[999,4999],[999,5083],[999,5166],[999,5249],[999,5333],[999,5416],[999,5499],[999,5583],[999,5666],[999,5749],[999,5833],[999,5916],[999,5999],[999,6083],[999,6166],[999,6249],[999,6333],[999,6416],[999,6499],[999,6583],[999,6666],[999,6749],[999,6833],[89.4,7416],[91.7,7500],[92.8,7583],[98.3,7666],[100,7750],[100,7833],[100,7916],[100,7999],[100,8083],[100,8166],[100,8249],[100,8333],[100,8416],[100,8499],[100,8583],[100,8666],[100,8749],[100,8833],[100,8916],[100,8999],[100,9083],[100,9166],[100,9249],[100,9333],[100,9416],[100,9499],[100,9583],[100,9666],[100,9749],[100,9833],[100,9916],[100,9999],[100,10083],[100,10166],[100,10249],[100,10333],[100,10416],[100,10499],[100,10583],[100,10666],[100,10749],[100,10833],[100,10916],[100,10999],[100,11083],[100,11166],[100,11249],[100,11333],[100,11416],[100,11499],[100,11583],[100,11666],[100,11749],[100,11833],[100,11916],[100,11999],[100,12083],[100,12166],[100,12249],[100,12333],[100,12416],[100,12499],[100,12583],[100,12666],[100,12749],[100,12833],[100,12916],[100,12999],[100,13083],[100,13166],[100,13249],[100,13333],[100,13416],[100,13499],[100,13583],[100,13666],[100,13749],[100,13833],[100,13916],[100,13999],[100,14083],[100,14166],[100,14249],[100,14333],[100,14416],[100,14499],[100,14583],[100,14666],[100,14749],[100,14833],[100,14916],[100,14999],[100,15083],[100,15166],[100,15249],[100,15333],[100,15416],[100,15499],[100,15583],[100,15666],[100,15749],[100,15833],[100,15916],[100,15999],[100,16083],[100,16166],[100,16249],[100,16333],[97.7,16416],[76.7,16499],[72.4,16583],[71.7,16666],[69.2,16749],[63,16833],[60.9,16916],[60,16999],[56.7,17083],[50.9,17166],[42.5,17249],[30.5,17333],[24.6,17416],[19,17499],[16.3,17583],[16.3,17666],[16.3,17749],[15,17833],[10.9,17916],[9,17999],[9,18083],[9,18166],[9,18249],[9.7,18333],[10,18416],[10.1,18499],[10.1,18583],[10.1,18666],[10.1,18749],[10.1,18832],[10.1,18916],[10.1,18999],[10.1,19083],[10.1,19166],[10.1,19249],[10.1,19333],[10.1,19416],[10.1,19499],[10.1,19582],[10.1,19666],[10.1,19749],[10.1,19833],[10.1,19916],[10.1,19999],[10.1,20082],[10.1,20166],[10.1,20249],[10.1,20332],[10.1,20416],[10.1,20499],[10.1,20582],[10.1,20666],[10.1,20749],[10.1,20832],[10.1,20916],[10.1,20999],[10.1,21082],[10.1,21166],[10.2,21249],[10.1,21332],[10.1,21416],[10.2,21499],[10.2,21582],[10.2,21666],[10.2,21749],[10.2,21832],[10.2,21916],[10.2,21999],[10.2,22082],[10.2,22166],[10.2,22249],[10.2,22332],[10.2,22416],[10.2,22499],[10.2,22582],[10.2,22666],[10.2,22749],[10.2,22832],[10.2,22916],[10.2,22999],[10.2,23082],[10.2,23166],[10.2,23249],[10.2,23332],[98.8,23833],[100,23916],[100,23999],[100,24082],[100,24166],[100,24249],[100,24332],[100,24416],[100,24499],[100,24582],[100,24666],[100,24749],[100,24832],[100,24916],[100,24999],[100,25082],[100,25166],[100,25249],[100,25332],[100,25416],[100,25499],[100,25582],[100,25666],[100,25749],[100,25832],[100,25916],[100,25999],[100,26082],[100,26166],[100,26249],[100,26332],[100,26416],[100,26499],[100,26582],[100,26666],[100,26749],[100,26832],[100,26916],[100,26999],[100,27082],[100,27166],[100,27249],[100,27332],[100,27416],[100,27499],[100,27582],[100,27666],[100,27749],[100,27832],[100,27916],[100,27999],[100,28082],[100,28166],[100,28249],[100,28332],[100,28416],[100,28499],[100,28582],[100,28666],[100,28749],[91.2,28832],[66.5,29249],[67.4,29332],[70.8,29416]]",1,0,576.1167,577.9331,74.88372093,0.4374,"[{""rating"":74.88372093023256,""responseTime"":0.4373999999985472}]",space,1.3044,,577.9332,Not at all,0,577.9347,,,[],,0,2,2,2,1,audio/Narrative7Situation2.wav,audio/Narrative8Situation2.wav,audio/Narrative5Situation2.wav,audio/Narrative6Situation2.wav,3,3,3,3,,,,,,,,,,,,,,,,,,,,,,,,,,,,,,,,,,,,,,,
,,,,,,6607c4839cec07dacff8f8fa,2024-05-13_12h31.10.571,group3.1-3.2-social-tom,2023.2.2,Win32,175.4385965,65c5074098b851296ff0b7ed,664240328723f7f039588e2c,,,,,,,,,,,,,,,,,,,,,,,,,,,,,577.9348,2,audio/Narrative5Situation3.wav,580.9386,,580.9387,594.8274,"[[999,0],[999,83],[999,166],[999,249],[999,333],[999,416],[999,499],[999,583],[999,666],[999,749],[999,833],[999,916],[999,999],[999,1083],[999,1166],[999,1249],[999,1333],[999,1416],[999,1499],[999,1583],[999,1666],[999,1749],[999,1833],[999,1916],[999,1999],[999,2083],[999,2166],[999,2249],[999,2333],[999,2416],[999,2499],[999,2583],[999,2666],[999,2749],[999,2833],[999,2916],[999,3000],[999,3083],[999,3166],[999,3249],[999,3333],[999,3416],[999,3499],[999,3583],[999,3666],[999,3749],[999,3833],[999,3916],[999,3999],[999,4083],[999,4166],[999,4249],[999,4333],[999,4416],[999,4499],[999,4583],[999,4666],[999,4749],[999,4833],[999,4916],[999,4999],[999,5083],[999,5166],[999,5249],[999,5333],[999,5416],[999,5499],[999,5583],[999,5666],[999,5749],[999,5833],[999,5916],[999,5999],[999,6083],[57,6166],[32.3,6250],[28.8,6333],[51.7,6416],[84.4,6499],[100,6583],[100,6666],[100,6749],[100,6833],[100,6916],[100,6999],[100,7083],[100,7166],[100,7249],[100,7333],[100,7416],[100,7499],[100,7583],[100,7666],[100,7749],[100,7833],[100,7916],[100,7999],[100,8083],[100,8166],[100,8249],[100,8333],[100,8416],[100,8499],[100,8583],[100,8666],[100,8749],[100,8833],[100,8916],[100,8999],[100,9083],[100,9166],[100,9249],[100,9333],[100,9416],[100,9499],[100,9583],[100,9666],[100,9749],[100,9833],[100,9916],[100,9999],[100,10083],[100,10166],[100,10249],[100,10333],[100,10416],[100,10499],[100,10583],[100,10666],[100,10749],[100,10833],[100,10916],[100,10999],[100,11083],[100,11166],[100,11249],[100,11333],[100,11416],[100,11499],[96.5,11583],[93.7,11666],[91.4,11749],[89.4,11833],[87.4,11916],[85.5,11999],[84.3,12083],[83.4,12166],[83.2,12249],[83.1,12333],[83.1,12416],[82.8,12499],[82.8,12583],[82.8,12666],[82.8,12749],[82.8,12833],[82.8,12916],[82.8,12999],[82.8,13083],[82.7,13166],[79.6,13249],[74.2,13333],[71.2,13416],[69.7,13499],[68.6,13583],[68.5,13666],[68.5,13749],[68.5,13833]]",1,0,594.8276,596.3052,80.81395349,0.6864,"[{""rating"":80.81395348837209,""responseTime"":0.6863999999984571}]",space,0.9655,,596.3052,Partially,50,596.3067,,,[],,0,3,3,3,1,audio/Narrative7Situation3.wav,audio/Narrative8Situation3.wav,audio/Narrative5Situation3.wav,audio/Narrative6Situation3.wav,8,4,3,5,,,,,,,,,,,,,,,,,,,,,,,,,,,,,,,,,,,,,,,
,,,,,,6607c4839cec07dacff8f8fa,2024-05-13_12h31.10.571,group3.1-3.2-social-tom,2023.2.2,Win32,175.4385965,65c5074098b851296ff0b7ed,664240328723f7f039588e2c,,,,,,,,,,,,,,,,,,,,,,,,,,,,,596.3068,2,audio/Narrative5Situation4.wav,597.3107,,597.3107,617.6772,"[[81.6,6250],[89.5,6916],[86.3,7000],[85.7,7083],[85.7,7166],[85.7,7249],[85.7,7333],[85.7,7416],[85.9,7500],[88.7,7583],[89.3,7666],[89.3,7749],[89.3,7833],[89.1,7916],[88.9,8000],[88.8,8083],[88.7,8166],[88.6,8249],[88.6,8333],[88.6,8416],[88.5,8499],[88.5,8583],[88.5,8666],[88.5,8749],[88.5,8833],[88.1,8916],[87.6,9000],[87.6,9083],[87.6,9166],[87.6,9250],[87.6,9333],[87.6,9416],[87.6,9500],[87.6,9583],[87.6,9666],[87.6,9750],[87.6,9833],[87.6,9916],[87.6,10000],[87.6,10083],[87.6,10166],[87.6,10250],[87.6,10333],[87.6,10416],[87.6,10500],[87.6,10583],[87.6,10666],[87.6,10750],[87.6,10833],[87.6,10916],[87.6,11000],[87.6,11083],[87.6,11166],[87.6,11250],[87.6,11333],[87.6,11416],[87.6,11500],[87.6,11583],[87.6,11666],[87.6,11750],[87.6,11833],[87.6,11916],[87.6,12000],[87.6,12083],[87.6,12166],[87.6,12250],[87.5,12333],[87.5,12416],[87.5,12500],[87.4,12583]]",1,0,617.6773,619.7382,99.88372093,1.5478,"[{""rating"":81.27906976744185,""responseTime"":0.46360000000152013},{""rating"":99.88372093023256,""responseTime"":1.5478000000044858}]",space,1.5446,,619.7383,Not at all,0,619.7397,,,[],,0,4,4,4,1,audio/Narrative7Situation4.wav,audio/Narrative8Situation4.wav,audio/Narrative5Situation4.wav,audio/Narrative6Situation4.wav,3,3,1,2,,,,,,,,,,,,,,,,,,,,,,,,,,,,,,,,,,,,,,,
,,,,,,6607c4839cec07dacff8f8fa,2024-05-13_12h31.10.571,group3.1-3.2-social-tom,2023.2.2,Win32,175.4385965,65c5074098b851296ff0b7ed,664240328723f7f039588e2c,,,,,,,,,,,,,,,,,,,,,,,,,,,,,619.7399,2,audio/Narrative5Situation5.wav,624.7437,,624.7437,640.1381,"[[999,5],[999,83],[999,166],[999,250],[999,333],[999,416],[999,500],[999,583],[999,666],[999,750],[999,833],[999,916],[999,1000],[999,1083],[999,1166],[999,1250],[999,1333],[999,1416],[999,1500],[999,1583],[999,1666],[999,1750],[999,1833],[88,1916],[57.3,2000],[43.1,2083],[38.4,2166],[24.2,2250],[5,2583],[6,2666],[5.6,2750],[4.4,2833],[4.3,2916],[4.4,3000],[4.1,3083],[3.3,3166],[2.6,3250],[1.9,3333],[1.1,3416],[0.5,3500],[0.5,6916],[0.5,7000],[0.5,7083],[0.5,7166],[0.5,7250],[0.5,7333],[2.8,9333],[6.6,9416],[8.3,9499],[10.7,9584],[12.4,9666],[13.1,9749],[13.2,9833],[14,9916],[14.9,9999],[15.4,10083],[16,10166],[17.2,10250],[17.6,10333],[18.1,10416],[18.1,10499],[18.1,10583],[18.1,10666],[18.1,10750],[18.1,10833],[18.1,10916],[18.1,10999],[18.1,11083],[18,11166],[18,11249],[18,11333],[18,11416],[18,11499],[17.9,11583],[17.8,11666],[17.8,11749],[17.7,11833],[17.7,11916],[17.5,11999],[17.3,12083],[17.3,12166],[17.3,12249],[17.3,12333],[17.3,12416],[17.3,12499],[17.3,12583],[17.3,12666],[17.3,12749],[17.3,12833],[17.3,12916],[17.3,12999],[17.4,13083],[18.4,13166],[22,13250],[30.2,13333],[40.6,13416],[47.6,13500],[49.8,13583],[49.8,13666],[49.8,13749],[49.8,13833],[49.8,13916],[50,13999],[50,14083],[50,14166],[50,14249],[50,14333],[50,14416],[50,14499],[50,14583],[50,14666],[50,14749],[50,14833],[50,14916],[50,14999],[50,15083],[50,15166],[49.6,15249],[49,15333]]",1,0,640.1381,642.3825,50.29069767,1.232,"[{""rating"":50.2906976744186,""responseTime"":1.231999999999971}]",space,1.731,,642.3825,Partially,50,642.3839,,,[],,0,5,5,5,1,audio/Narrative7Situation5.wav,audio/Narrative8Situation5.wav,audio/Narrative5Situation5.wav,audio/Narrative6Situation5.wav,5,2,5,2,,,,,,,,,,,,,,,,,,,,,,,,,,,,,,,,,,,,,,,
,,,,,,6607c4839cec07dacff8f8fa,2024-05-13_12h31.10.571,group3.1-3.2-social-tom,2023.2.2,Win32,175.4385965,65c5074098b851296ff0b7ed,664240328723f7f039588e2c,,,,,,,,,,,,,,,,,,,,,,,,,,,,,642.384,2,audio/Narrative5Situation6.wav,645.388,,645.388,651.0435,"[[999,4],[999,83],[999,166],[999,250],[999,333],[999,416],[999,500],[999,583],[999,666],[999,750],[999,833],[999,916],[999,1000],[999,1083],[999,1166],[999,1250],[999,1333],[999,1416],[999,1500],[999,1583],[999,1666],[999,1750],[999,1833],[999,1916],[999,2000],[999,2083],[999,2166],[999,2250],[999,2333],[999,2416],[999,2500],[999,2583],[999,2666],[999,2750],[999,2833],[999,2916],[999,3000],[999,3083],[999,3166],[999,3250],[999,3333],[91.5,3416],[94.2,3499],[97.4,3583],[99.9,3666],[100,3750],[100,3833],[100,3916],[100,3999],[100,4083],[100,4166],[100,4249],[100,4333],[100,4416],[100,4499],[100,4583],[100,4666],[100,4749],[100,4833],[100,4916],[100,4999],[100,5083],[100,5166],[100,5249],[100,5333],[100,5416],[100,5499],[100,5583]]",1,0,651.0435,652.3824,100,0.9785,"[{""rating"":100,""responseTime"":0.97849999999994}]",space,0.8263,,652.3824,Definitely yes,100,652.384,,,[],,0,6,6,6,1,audio/Narrative7Situation6.wav,audio/Narrative8Situation6.wav,audio/Narrative5Situation6.wav,audio/Narrative6Situation6.wav,3,2,3,2,,,,,,,,,,,,,,,,,,,,,,,,,,,,,,,,,,,,,,,
,,,,,,6607c4839cec07dacff8f8fa,2024-05-13_12h31.10.571,group3.1-3.2-social-tom,2023.2.2,Win32,175.4385965,65c5074098b851296ff0b7ed,664240328723f7f039588e2c,,,,,,,,,,,,,,,,,,,,,,,,,,,,,652.3841,2,audio/Narrative5Situation7.wav,656.388,,656.3881,677.4044,"[[100,916],[100,999],[100,1082],[100,1166],[100,1249],[100,1332],[100,1416],[100,1499],[100,1583],[100,1666],[100,1749],[100,1833],[100,1916],[100,1999],[100,2083],[100,2166],[100,2249],[100,2333],[100,2416],[100,2499],[100,2582],[100,2666],[100,2749],[100,2833],[100,2916],[100,2999],[100,3082],[100,3166],[100,3249],[100,3332],[100,3416],[100,3499],[100,3582],[100,3666],[100,4083],[100,4166],[100,4249],[100,4333],[100,4416],[100,4499],[100,4582],[100,4666],[100,4749],[100,4832],[100,4916],[100,4999],[100,5082],[100,5166],[100,5249],[100,5332],[100,5416],[100,5499],[100,5582],[100,5666],[100,5749],[100,5832],[100,5916],[100,5999],[100,6082],[100,6166],[100,6249],[100,6332],[100,6416],[100,6499],[100,6582],[100,6666],[100,6749],[100,6832],[100,6916],[100,6999],[100,7082],[100,7166],[100,7249],[100,7332],[100,7416],[100,7499],[100,7582],[100,7666],[100,7749],[99.8,7832],[99.7,7916],[99.7,7999],[99.7,8082],[99.7,8166],[99.7,8249],[99.5,8332],[99.5,8416],[99.5,8499],[99.5,8582],[99.5,8666],[99.5,8749],[99.5,8832],[99.5,8916],[99.5,8999],[99,9082],[92.7,9166],[82.7,9249],[74.2,9333],[68,9416],[61,9499],[52.2,9582],[44.9,9666],[43.3,9749],[42.7,9832],[42.2,9916],[46.5,9999],[52.4,10082],[53.1,10166],[51.8,10249],[45.6,10333],[34.7,10416],[26.6,10499],[24,10582],[24.4,10666],[30.8,10749],[35.3,10832],[37,10916],[40.7,10999],[42,11082],[42.4,11166],[38.5,11249],[30.2,11333],[33.4,11416],[34.2,11499],[26.9,11582],[29.7,11666],[28.1,11749],[26,11832],[32.3,11916],[27.7,11999],[31.9,12082],[31,12166],[34.9,12249],[35.3,12332],[34.1,12416],[35.8,12499],[32.6,12582],[35.9,12666],[31.2,12749],[32.6,12832],[33.7,12916],[33.7,12999],[33.7,13082],[33.7,13166],[33.7,13249],[33.7,13332],[33.7,13416],[33.7,13499],[33.7,13582],[33.7,13666],[33.7,13749],[33.7,13832],[33.7,13916],[33.7,13999],[33.7,14082],[33.7,14166],[33.7,14249],[33.7,14332],[33.7,14416],[33.7,14499],[33.7,14582],[33.7,14666],[33.7,14749],[33.7,14832],[33.7,14916],[33.7,14999],[33.7,15082],[33.7,15166],[33.7,15249],[33.7,15332],[33.7,15416],[34,15499],[35.2,15582],[39.1,15666],[45.3,15749],[48.8,15832],[50.2,15916],[52.2,15999],[53.7,16082],[56.3,16166],[60.7,16249],[61.8,16332],[61.8,16416],[61.8,16499],[61.7,16582],[57.5,16666],[46.3,16749],[36.9,16832],[26.3,16916],[18.4,16999],[15.4,17082],[13.1,17166],[10.5,17249],[8,17332],[7.6,17416],[6.6,17499],[5.6,17582],[4.7,17666],[2.4,17749],[0.3,17832],[5.5,18749],[22.4,18832],[42,18916],[55.6,18999],[61.8,19082],[63.8,19166],[64.4,19249],[64.8,19332],[63.6,19416],[59,19499],[39.8,19582],[21.7,19666],[14.9,19749],[12.4,19832],[9.9,19916],[9.3,19999],[8.8,20082],[8.7,20166],[8.7,20249],[8.7,20332],[8.7,20416],[9.2,20499],[15.2,20582],[24.9,20666],[33.7,20749],[40.8,20832],[44,20916],[46.2,20999]]",1,0,677.4045,678.7044,50.23255814,0.8576,"[{""rating"":50.23255813953489,""responseTime"":0.8576000000014119}]",space,0.7857,,678.7044,Definitely yes,100,687.2099,100,4.6857,"[{""rating"":99.94186046511628,""responseTime"":4.006700000002979},{""rating"":100,""responseTime"":4.685700000002953}]",space,0,7,7,7,1,audio/Narrative7Situation7.wav,audio/Narrative8Situation7.wav,audio/Narrative5Situation7.wav,audio/Narrative6Situation7.wav,5,3,4,5,,,7.9924,,,,,,,,,,,,,,,,,,,,,,,,,,,,,,,,,,,,
,,,,,,6607c4839cec07dacff8f8fa,2024-05-13_12h31.10.571,group3.1-3.2-social-tom,2023.2.2,Win32,175.4385965,65c5074098b851296ff0b7ed,664240328723f7f039588e2c,,,,,,,,,,,,,,,,,,,,,,,,,,,,,687.2101,2,audio/Narrative5Situation8.wav,690.2154,,690.2154,699.0152,"[[999,4],[999,83],[999,166],[999,249],[999,333],[999,416],[78.3,499],[77.4,583],[77.4,666],[77.3,749],[77.2,833],[77.1,916],[76.8,999],[76.6,1083],[76.6,1166],[76.6,1249],[76.6,1333],[76.6,1416],[76.5,1499],[76.4,1583],[76.4,1666],[76.4,1749],[76.4,1833],[76.2,1916],[76.2,1999],[76.2,2083],[76.2,2166],[76.2,2249],[76.2,2333],[76.1,2416],[76.1,2499],[76.1,2583],[76.1,2666],[76.1,2749],[76.1,2833],[76.1,2916],[76.1,2999],[76.1,3083],[75.9,3166],[75.9,3249],[75.9,3333],[75.8,3416],[75.8,3499],[75.8,3583],[75.8,3666],[75.8,3749],[75.7,3833],[75.7,3916],[75.7,3999],[75.7,4083],[75.7,4166],[75.7,4249],[75.7,4333],[75.7,4416],[75.7,4499],[75.7,4583],[75.7,4666],[75.7,4749],[75.7,4833],[75.7,4916],[75.7,4999],[75.7,5083],[75.7,5166],[75.7,5249],[75.7,5333],[75.7,5416],[75.7,5499],[75.7,5583],[75.7,5666],[75.7,5749],[75.7,5833],[75.7,5916],[75.7,5999],[75.7,6083],[75.7,6166],[75.7,6249],[75.7,6333],[75.7,6416],[75.7,6499],[75.7,6583],[75.7,6666],[75.7,6749],[75.7,6833],[75.7,6916],[75.9,6999],[51.7,7916],[44.4,7999],[46.7,8083],[48.1,8166],[47,8249],[48.1,8333],[56.3,8416],[59,8499],[57.8,8583],[55.6,8666],[55.6,8749]]",1,0,699.0152,702.3985,24.59302326,1.8648,"[{""rating"":30.69767441860465,""responseTime"":1.1107999999970843},{""rating"":24.593023255813957,""responseTime"":1.8647999999971034}]",space,2.8684,,702.3985,Definitely yes,100,702.3995,,,[],,0,8,8,8,1,audio/Narrative7Situation8.wav,audio/Narrative8Situation8.wav,audio/Narrative5Situation8.wav,audio/Narrative6Situation8.wav,2,3,3,5,,,,,,,,,,,,,,,,,,,,,,,,,,,,,,,,,,,,,,,
,,,,,,6607c4839cec07dacff8f8fa,2024-05-13_12h31.10.571,group3.1-3.2-social-tom,2023.2.2,Win32,175.4385965,65c5074098b851296ff0b7ed,664240328723f7f039588e2c,,,,,,,,,,,,,,,,,,,,,,,,,,,,,702.3997,2,audio/Narrative5Situation9.wav,705.4041,,705.4041,744.9259,"[[34.8,83],[34.7,166],[34.7,249],[34.3,333],[34.1,416],[34,499],[34,583],[33.8,666],[33.8,749],[33.8,833],[35.1,916],[35.1,999],[35.1,1083],[35.1,1166],[35.1,1249],[35.5,1333],[36.9,1416],[36.9,1499],[36.9,1583],[70.2,1666],[100,1749],[100,1833],[100,1916],[100,1999],[100,2083],[100,2166],[100,2249],[100,2333],[100,2416],[100,2499],[100,2583],[100,2666],[100,2749],[100,2833],[100,2916],[100,2999],[100,3083],[100,3166],[100,3249],[100,3333],[100,3416],[100,3499],[100,3583],[100,3666],[100,3749],[100,3833],[100,3916],[100,3999],[100,4083],[100,4166],[100,4249],[100,4333],[100,4416],[100,4499],[100,4583],[100,4666],[100,4749],[100,4833],[100,4916],[100,4999],[100,5083],[100,5166],[100,5249],[100,5333],[100,5416],[100,5499],[100,5583],[100,5666],[100,5749],[100,5833],[100,5916],[100,5999],[100,6083],[100,6166],[100,6249],[100,6333],[100,6416],[100,6499],[100,6583],[100,6666],[100,6749],[100,6833],[100,6916],[100,6999],[100,7083],[100,7166],[100,7249],[100,7333],[100,7416],[100,7499],[100,7583],[100,7666],[100,7749],[100,7833],[100,7916],[100,7999],[100,8083],[100,8166],[100,8249],[100,8333],[100,8416],[100,8499],[100,8583],[100,8666],[100,8749],[100,8833],[100,8916],[100,8999],[100,9083],[100,9166],[100,9249],[100,9333],[100,9416],[100,9499],[100,9583],[100,9666],[100,9749],[100,9833],[100,9916],[100,9999],[100,10083],[100,10166],[100,10249],[100,10333],[100,10416],[100,10499],[100,10583],[100,10666],[100,10749],[100,10833],[100,10916],[100,10999],[100,11083],[100,11166],[100,11249],[100,11333],[100,11416],[100,11499],[100,11583],[100,11666],[100,11749],[100,11833],[100,11916],[100,11999],[100,12083],[100,12166],[100,12249],[100,12333],[100,12416],[100,12499],[100,12583],[100,12666],[100,12749],[100,12833],[100,12916],[100,12999],[100,13083],[100,13166],[100,13249],[100,13333],[100,13416],[100,13499],[100,13583],[100,13666],[100,13749],[100,13833],[100,13916],[100,13999],[100,14083],[100,14166],[100,14249],[100,14333],[100,14416],[100,14499],[100,14583],[100,14666],[100,14749],[100,14833],[100,14916],[100,14999],[100,15083],[100,15166],[100,15249],[100,15333],[100,15416],[100,15499],[100,15583],[100,15666],[100,15749],[100,15833],[100,15916],[100,15999],[100,16083],[100,16166],[100,16249],[100,16333],[100,16416],[100,16499],[100,16583],[99.5,16666],[90.8,16749],[87.6,16833],[85.3,16916],[82.3,16999],[80.8,17083],[80.6,17166],[80.6,17249],[80.6,17333],[80.8,17416],[81.5,17499],[82,17583],[82.1,17666],[82.3,17749],[82.7,17833],[83.1,17916],[83.5,17999],[84.2,18083],[84.7,18166],[84.8,18249],[84.8,18333],[85.1,18416],[85.1,18499],[85.1,18583],[85.1,18666],[85.1,18749],[85.1,18833],[85.1,18916],[85.1,18999],[85.1,19083],[85.1,19166],[85.1,19249],[85.1,19333],[85.1,19416],[85.1,19499],[85.1,19583],[85.1,19666],[85.1,19749],[85.1,19833],[85.1,19916],[85.1,19999],[85.1,20083],[85.1,20166],[85.1,20249],[85.1,20333],[85.1,20416],[85.1,20499],[85.1,20583],[85.1,20666],[85.1,20749],[85.1,20833],[85.1,20916],[85.1,20999],[85.1,21083],[85.1,21166],[85.1,21249],[85.1,21333],[85.1,21416],[85.1,21499],[85.1,21583],[85.1,21666],[85.1,21749],[85.1,21832],[85.1,21916],[85.1,21999],[85.1,22083],[85.1,22166],[85.1,22249],[84.8,22333],[84.8,22416],[83.9,22499],[82.4,22583],[81.5,22666],[72.7,26749],[71.6,26833],[70.9,26916],[70.3,26999],[69.7,27083],[69.2,27166],[68.4,27249],[66.7,27333],[65.8,27416],[64.9,27499],[65.9,27583],[67.1,27666],[67.1,27749],[67.1,27833],[67.1,27916],[67.3,27999],[83.9,28083],[100,28166],[100,28249],[100,28332],[100,28416],[100,28499],[100,28582],[100,28666],[100,28749],[100,28832],[100,28916],[100,28999],[100,29082],[100,29166],[100,29249],[100,29332],[100,29416],[100,29499],[100,29582],[100,29666],[100,29749],[100,29832],[100,29916],[100,29999],[100,30082],[100,30166],[100,30249],[100,30332],[100,30416],[100,30499],[100,30582],[100,30666],[100,30749],[100,30832],[100,30916],[100,30999],[100,31082],[100,31166],[100,31249],[100,31332],[100,31416],[100,31499],[100,31582],[100,31666],[100,31749],[100,31832],[100,31916],[100,31999],[100,32082],[100,32166],[100,32249],[100,32332],[100,32416],[100,32499],[100,32582],[100,32666],[100,32749],[100,32832],[100,32916],[100,32999],[100,33082],[100,33166],[100,33249],[100,33332],[100,33416],[100,33499],[100,33582],[100,33666],[100,33749],[100,33833],[100,33916],[100,33999],[100,34083],[100,34166],[100,34249],[100,34332],[100,34416],[100,34499],[100,34583],[100,34666],[100,34749],[100,34832],[100,34916],[100,34999],[100,35082],[100,35166],[100,35249],[100,35332],[100,35416],[100,35499],[100,35582],[100,35666],[100,35749],[100,35832],[100,35916],[100,35999],[100,36082],[100,36166],[100,36249],[100,36332],[100,36416],[100,36499],[100,36582],[100,36666],[100,36749],[100,36832],[100,36916],[100,36999],[100,37082],[100,37166],[100,37249],[100,37332],[100,37416],[100,37499],[100,37582],[100,37666],[100,37749],[100,37832],[100,37916],[100,37999],[100,38082],[100,38166],[100,38249],[100,38332],[100,38416],[100,38499],[100,38582],[100,38666],[100,38749],[100,38832],[100,38916],[100,38999],[100,39082],[100,39166],[100,39249]]",1,0,744.926,746.148,100,0.8592,"[{""rating"":100,""responseTime"":0.8591999999954396}]",space,0.7078,,746.1481,Not at all,0,746.1496,,,[],,0,9,9,9,1,audio/Narrative7Situation9.wav,audio/Narrative8Situation9.wav,audio/Narrative5Situation9.wav,audio/Narrative6Situation9.wav,2,3,3,4,,,,,,,,,,,,,,,,,,,,,,,,,,,,,,,,,,,,,,,
,,,,,,6607c4839cec07dacff8f8fa,2024-05-13_12h31.10.571,group3.1-3.2-social-tom,2023.2.2,Win32,175.4385965,65c5074098b851296ff0b7ed,664240328723f7f039588e2c,,,,,,,,,,,,,,,,,,,,,,,,,,,,,746.1496,2,audio/Narrative6Situation1.wav,748.1536,,748.1536,774.7144,"[[80.7,4083],[80.7,4166],[80.7,4249],[12.4,4916],[14.6,4999],[26.7,5083],[94.3,5583],[100,5666],[100,5749],[100,5833],[100,5916],[100,5999],[100,6083],[100,6166],[100,6249],[100,6333],[100,6416],[100,6499],[100,6583],[100,6666],[100,6749],[100,6833],[100,6916],[100,6999],[100,7083],[100,7166],[100,7249],[100,7333],[100,7416],[100,7499],[100,7583],[100,7666],[100,7749],[100,7833],[100,7916],[100,8000],[100,8083],[100,8166],[100,8250],[100,8333],[100,8416],[100,8499],[100,8583],[100,8666],[100,8749],[100,8833],[100,8916],[100,8999],[100,9083],[100,9166],[100,9250],[100,9333],[100,9416],[100,9500],[100,9583],[100,9666],[100,9750],[100,9833],[100,9916],[100,9999],[100,10083],[100,10166],[100,10250],[100,10333],[100,10416],[100,10500],[100,10583],[100,10666],[100,10749],[100,10833],[100,10916],[100,10999],[100,11083],[100,11166],[100,11249],[100,11333],[100,11416],[100,11499],[100,11583],[100,11666],[100,11749],[100,11833],[100,11916],[100,11999],[100,12083],[100,12166],[100,12249],[100,12333],[100,12416],[100,12499],[100,12583],[100,12666],[100,12749],[100,12833],[100,12916],[100,12999],[100,13083],[100,13166],[100,13249],[100,13333],[100,13416],[100,13499],[100,13583],[100,13666],[100,13749],[100,13833],[100,13916],[100,13999],[100,14083],[100,14166],[100,14249],[100,14333],[100,14416],[100,14499],[100,14583],[100,14666],[100,14749],[100,14833],[100,14916],[100,14999],[100,15083],[100,15166],[100,15249],[100,15333],[100,15416],[100,15499],[100,15583],[100,15666],[100,15749],[100,15833],[100,15916],[100,15999],[100,16083],[100,16166],[100,16249],[100,16333],[100,16416],[100,16499],[35.2,16749],[26.5,16833],[19.2,16916],[15.1,16999],[13,17083],[12.6,17166],[12.6,17249],[12.6,17332],[13.4,17416],[13.7,17499],[13.7,17583],[13.7,17666],[13.7,17749],[13.7,17833],[13.7,17916],[13.7,17999],[13.7,18083],[13.7,18166],[13.7,18249],[13.7,18333],[13.7,18416],[13.6,18499],[13.6,18583],[13.6,18666],[13.6,18749],[13.6,18833],[13.6,18916],[13.6,18999],[13.6,19083],[13.6,19166],[13.6,19249],[13.6,19333],[13.6,19416],[13.6,19499],[13.6,19583],[13.6,19666],[13.6,19749],[13.6,19832],[13.6,19916],[13.6,19999],[13.6,20082],[13.6,20166],[13.6,20249],[13.6,20333],[13.6,20416],[13.6,20499],[13.6,20582],[13.6,20666],[13.6,20749],[13.6,20832],[13.6,20916],[13.6,20999],[13.6,21083],[13.6,21166],[13.6,21249],[13.6,21332],[13.6,21416],[13.6,21499],[13.6,21582],[13.6,21666],[13.6,21749],[13.6,21832],[13.6,21916],[13.6,21999],[13.6,22082],[13.6,22166],[13.6,22249],[13.6,22332],[13.6,22416],[13.6,22499],[13.6,22582],[13.6,22666],[13.6,22749],[13.6,22832],[13.6,22916],[13.6,22999],[13.6,23082],[13.6,23166],[13.6,23249],[13.6,23332],[13.6,23416],[13.6,23499],[13.6,23582],[13.6,23666],[13.6,23749],[13.6,23832],[13.6,23916],[13.6,23999],[15.6,24083],[35.1,24166],[53.8,24249],[56,24333],[56,24416],[52.5,24499],[40.2,24582],[28.8,24666],[16.7,24749],[12.1,24833],[11,24916],[10.2,24999],[9.7,25082],[9.7,25166],[9.7,25249],[9.7,25332],[9.7,25416],[9.7,25499],[9.6,25582],[8.7,25666],[7.9,25749],[7.8,25832],[7.8,25916],[8.6,25999],[20.9,26083],[32.4,26166],[37,26249],[40.5,26332],[44.4,26416],[45.3,26499]]",1,0,774.7145,776.1367,41.10465116,0.4016,"[{""rating"":41.104651162790695,""responseTime"":0.4016000000015083}]",space,0.9097,,776.1367,Partially,50,776.1381,,,[],,0,10,10,10,1,audio/Narrative8Situation1.wav,audio/Narrative7Situation1.wav,audio/Narrative6Situation1.wav,audio/Narrative5Situation1.wav,5,2,2,5,,,,,,,,,,,,,,,,,,,,,,,,,,,,,,,,,,,,,,,
,,,,,,6607c4839cec07dacff8f8fa,2024-05-13_12h31.10.571,group3.1-3.2-social-tom,2023.2.2,Win32,175.4385965,65c5074098b851296ff0b7ed,664240328723f7f039588e2c,,,,,,,,,,,,,,,,,,,,,,,,,,,,,776.1382,2,audio/Narrative6Situation2.wav,779.1422,,779.1422,807.6252,"[[44.9,7166],[46.5,7249],[59.1,7333],[97.7,7416],[100,7499],[100,7583],[100,7666],[100,7749],[100,7833],[100,7916],[100,7999],[100,8083],[100,8166],[100,8249],[100,8333],[100,8416],[100,8499],[100,8583],[100,8666],[100,8749],[100,8833],[100,8916],[100,8999],[100,9083],[100,9166],[100,9249],[100,9333],[100,9416],[100,9499],[100,9583],[100,9666],[100,9749],[100,9833],[100,9916],[100,9999],[100,10083],[100,10166],[100,10249],[100,10333],[100,10416],[100,10499],[100,10583],[100,10666],[100,10749],[100,10833],[100,10916],[100,10999],[100,11083],[100,11166],[100,11249],[100,11333],[100,11416],[100,11499],[100,11583],[100,11666],[100,11749],[100,11833],[100,11916],[100,11999],[100,12083],[100,12166],[100,12249],[100,12333],[100,12416],[100,12499],[100,12583],[100,12666],[100,12749],[100,12833],[100,12916],[100,12999],[100,13083],[100,13166],[100,13249],[100,13333],[100,13416],[100,13499],[100,13583],[100,13666],[100,13749],[100,13833],[100,13916],[100,13999],[100,14083],[100,14166],[100,14249],[100,14333],[100,14416],[100,14499],[100,14582],[100,14666],[100,14749],[100,14832],[100,14916],[100,14999],[100,15083],[100,15166],[100,15249],[100,15332],[100,15416],[100,15499],[100,15582],[100,15666],[100,15749],[100,15833],[100,15916],[100,15999],[100,16083],[100,16166],[100,16249],[100,16333],[100,16416],[100,16499],[100,16582],[100,16666],[100,16749],[100,16833],[100,16916],[100,16999],[100,17083],[100,17166],[100,17249],[100,17333],[100,17416],[100,17499],[100,17582],[100,17666],[100,17749],[100,17833],[100,17916],[100,17999],[100,18082],[100,18166],[100,18249],[100,18332],[100,18416],[100,18499],[100,18582],[100,18666],[100,18749],[100,18833],[100,18916],[100,18999],[100,19082],[100,19166],[100,19249],[100,19332],[100,19416],[100,19499],[100,19583],[100,19666],[100,19749],[100,19832],[100,19916],[100,19999],[100,20082],[100,20166],[100,20249],[100,20332],[100,20416],[100,20499],[100,20582],[100,20666],[100,20749],[100,20832],[100,20916],[100,20999],[100,21082],[100,21166],[100,21249],[100,21332],[100,21416],[100,21499],[100,21582],[100,21666],[100,21749],[100,21832],[100,21916],[100,21999],[100,22082],[100,22166],[100,22249],[100,22332],[100,22416],[100,22499],[100,22582],[100,22666],[100,22749],[100,22832],[100,22916],[100,22999],[100,23082],[100,23166],[100,23249],[100,23332],[100,23416],[100,23499],[100,23582],[100,23666],[100,23749],[100,23832],[100,23916],[100,23999],[100,24082],[100,24166],[100,24249],[100,24332],[100,24416],[100,24499],[100,24582],[100,24666],[100,24749],[100,24832],[100,24916],[100,24999],[100,25082],[100,25166],[100,25249],[100,25332],[100,25416],[100,25499],[100,25582],[100,25666],[100,25749],[100,25832],[100,25916],[100,25999],[100,26082],[100,26166],[100,26249],[100,26332],[100,26416],[100,26499],[100,26582],[100,26666],[100,26749],[100,26832],[100,26916],[100,26999],[100,27082],[100,27166],[100,27249],[100,27332],[100,27416],[100,27499],[100,27582],[100,27666],[100,27749],[100,27832],[100,27916],[100,27999],[100,28082],[100,28166],[100,28249],[100,28332],[100,28416]]",1,0,807.6252,810.1919,100,1.8627,"[{""rating"":100,""responseTime"":1.045900000005986},{""rating"":100,""responseTime"":1.8627000000029739}]",space,2.0562,,810.1919,Partially,50,810.1928,,,[],,0,11,11,11,1,audio/Narrative8Situation2.wav,audio/Narrative7Situation2.wav,audio/Narrative6Situation2.wav,audio/Narrative5Situation2.wav,3,3,3,3,,,,,,,,,,,,,,,,,,,,,,,,,,,,,,,,,,,,,,,
,,,,,,6607c4839cec07dacff8f8fa,2024-05-13_12h31.10.571,group3.1-3.2-social-tom,2023.2.2,Win32,175.4385965,65c5074098b851296ff0b7ed,664240328723f7f039588e2c,,,,,,,,,,,,,,,,,,,,,,,,,,,,,810.1929,2,audio/Narrative6Situation3.wav,815.1972,,815.1973,827.7916,[],1,0,827.7918,830.9583,75.23255814,2.2875,"[{""rating"":65.81395348837209,""responseTime"":1.9471000000015692},{""rating"":75.23255813953489,""responseTime"":2.2875000000000227}]",space,2.6506,,830.9583,Partially,50,830.9593,,,[],,0,12,12,12,1,audio/Narrative8Situation3.wav,audio/Narrative7Situation3.wav,audio/Narrative6Situation3.wav,audio/Narrative5Situation3.wav,4,8,5,3,,,,,,,,,,,,,,,,,,,,,,,,,,,,,,,,,,,,,,,
,,,,,,6607c4839cec07dacff8f8fa,2024-05-13_12h31.10.571,group3.1-3.2-social-tom,2023.2.2,Win32,175.4385965,65c5074098b851296ff0b7ed,664240328723f7f039588e2c,,,,,,,,,,,,,,,,,,,,,,,,,,,,,830.9594,2,audio/Narrative6Situation4.wav,832.9639,,832.9639,845.5582,"[[999,0],[999,83],[999,166],[999,249],[999,333],[999,416],[999,499],[999,583],[999,666],[999,749],[999,833],[999,916],[999,999],[999,1083],[999,1166],[999,1249],[999,1333],[999,1416],[999,1499],[999,1583],[999,1666],[999,1749],[999,1833],[999,1916],[999,1999],[999,2083],[999,2166],[999,2249],[999,2333],[999,2416],[999,2499],[999,2583],[999,2666],[999,2749],[999,2833],[999,2916],[999,2999],[999,3083],[999,3166],[999,3249],[999,3333],[999,3416],[999,3499],[999,3583],[999,3666],[999,3749],[999,3833],[999,3916],[999,3999],[999,4083],[999,4166],[999,4249],[999,4333],[999,4416],[999,4499],[999,4583],[56.6,4667],[63.1,4749],[71.6,4833],[73.7,4916],[76,4999],[78.1,5083],[78.9,5166],[79.5,5249],[79.8,5333],[80.3,5416],[80.9,5499],[81.1,5583],[81.3,5666],[81.3,5749],[81.3,5833],[81.3,5916],[81.3,5999],[81.3,6083],[81.3,6166],[81.3,6249],[81.3,6333],[81.3,6416],[81.3,6499],[81.3,6583],[81.3,6666],[82.3,6749],[83.1,6833],[83.3,6916],[83.3,6999],[83.3,7083],[83.5,7166],[83.8,7249],[84.3,7333],[84.9,7416],[84.9,7499],[84.9,7583],[84.9,7666],[84.9,7749],[85.2,7833],[86.2,7916],[86.7,7999],[87.5,8083],[88.5,8166],[89.5,8249],[90.9,8333],[91.2,8416],[91.3,8499],[91.6,8583],[92.3,8666],[94,8749],[96.7,8833],[99.4,8916],[100,8999],[100,9083],[100,9166],[100,9249],[100,9333],[100,9416],[100,9499],[100,9583],[100,9666],[100,9749],[100,9833],[100,9916],[100,9999],[100,10083],[100,10166],[100,10249],[100,10333],[100,10416],[100,10499],[100,10583],[100,10666],[100,10749],[100,10833],[100,10916],[100,10999],[100,11082],[100,11166],[100,11249],[100,11332],[100,11416],[100,11499],[100,11583],[100,11666],[100,11750],[100,11833],[100,11916],[100,12000],[100,12083],[100,12166],[100,12250],[99.2,12333],[99,12416],[99,12499],[99,12582]]",1,0,845.5583,847.0248,100,0.3962,"[{""rating"":100,""responseTime"":0.39619999999558786}]",space,0.9537,,847.0248,Definitely yes,100,847.0262,,,[],,0,13,13,13,1,audio/Narrative8Situation4.wav,audio/Narrative7Situation4.wav,audio/Narrative6Situation4.wav,audio/Narrative5Situation4.wav,3,3,2,1,,,,,,,,,,,,,,,,,,,,,,,,,,,,,,,,,,,,,,,
,,,,,,6607c4839cec07dacff8f8fa,2024-05-13_12h31.10.571,group3.1-3.2-social-tom,2023.2.2,Win32,175.4385965,65c5074098b851296ff0b7ed,664240328723f7f039588e2c,,,,,,,,,,,,,,,,,,,,,,,,,,,,,847.0262,2,audio/Narrative6Situation5.wav,849.0303,,849.0303,856.9692,"[[999,0],[999,83],[999,166],[999,250],[999,333],[999,416],[60.3,500],[56.2,583],[51.3,666],[51.3,749],[51.6,833],[51.5,916],[50.6,999],[49.4,1083],[49.4,1166],[49.4,1249],[49.5,1333],[50.2,1416],[50.3,1499],[50.3,1583],[53.3,1666],[69.3,1750],[91.8,2249],[88.1,2333],[91.8,2416],[100,2500],[100,2583],[100,2666],[100,2749],[100,2833],[100,2916],[100,2999],[100,3083],[100,3166],[100,3249],[100,3333],[100,3416],[100,3499],[97.3,3583],[89.2,3666],[92.6,3749],[97.7,3833],[96.7,3916],[100,4000],[100,4083],[96.7,4166],[100,4250],[96.6,4333],[100,4416],[100,4500],[99.3,4583],[95.3,4666],[95.4,4750],[100,4833],[98.3,4916],[100,5000],[97,5083],[99.7,5166],[97.2,5249],[100,5333],[99,5416],[99.9,5499],[94.7,5583],[97.8,5666],[98.2,5750],[98.3,5833],[100,5916],[100,5999],[95,6083],[100,6166],[100,6250],[100,6333],[100,6416],[100,6499],[100,6583],[100,6666],[100,6750],[100,6833],[100,6916],[100,7000],[99.7,7083],[98.9,7166],[98.6,7250],[98.3,7333],[97.7,7416],[97.6,7499],[97.6,7583],[99.3,7666],[99.5,7749],[99.5,7833],[99.5,7916]]",1,0,856.9692,858.1691,100,0.807,"[{""rating"":99.65116279069768,""responseTime"":0.4570999999940568},{""rating"":100,""responseTime"":0.8070000000000164}]",space,0.6877,,858.1691,Not at all,0,858.1705,,,[],,0,14,14,14,1,audio/Narrative8Situation5.wav,audio/Narrative7Situation5.wav,audio/Narrative6Situation5.wav,audio/Narrative5Situation5.wav,2,5,2,5,,,,,,,,,,,,,,,,,,,,,,,,,,,,,,,,,,,,,,,
,,,,,,6607c4839cec07dacff8f8fa,2024-05-13_12h31.10.571,group3.1-3.2-social-tom,2023.2.2,Win32,175.4385965,65c5074098b851296ff0b7ed,664240328723f7f039588e2c,,,,,,,,,,,,,,,,,,,,,,,,,,,,,858.1706,2,audio/Narrative6Situation6.wav,860.1747,,860.1747,871.2301,"[[999,0],[999,83],[999,166],[999,249],[999,333],[999,416],[999,499],[999,583],[999,666],[999,749],[999,833],[999,916],[999,999],[999,1083],[999,1166],[999,1249],[999,1333],[999,1416],[999,1499],[999,1583],[999,1666],[999,1749],[999,1833],[999,1916],[999,1999],[999,2083],[999,2166],[999,2249],[999,2333],[999,2416],[999,2499],[999,2583],[999,2666],[999,2749],[999,2833],[999,2916],[999,2999],[999,3083],[999,3166],[999,3249],[999,3333],[999,3416],[999,3499],[999,3583],[999,3666],[999,3749],[999,3833],[999,3916],[999,3999],[999,4083],[999,4166],[999,4249],[999,4333],[999,4416],[999,4499],[999,4583],[999,4666],[999,4749],[999,4833],[999,4916],[999,4999],[999,5083],[999,5166],[999,5249],[999,5333],[999,5416],[999,5499],[999,5583],[999,5666],[999,5749],[999,5833],[999,5916],[999,5999],[999,6083],[999,6166],[999,6249],[999,6333],[999,6416],[999,6499],[999,6583],[999,6666],[999,6749],[999,6833],[999,6916],[999,6999],[999,7083],[999,7166],[999,7249],[999,7333],[999,7416],[999,7499],[999,7583],[999,7666],[999,7749],[999,7833],[999,7916],[999,7999],[999,8083],[999,8166],[999,8249],[999,8333],[999,8416],[999,8499],[999,8583],[999,8666],[999,8749],[999,8833],[999,8916],[999,8999],[999,9082],[999,9166],[999,9249],[999,9333],[999,9416],[999,9499],[999,9583],[999,9666],[999,9749],[999,9833],[999,9916],[999,9999],[999,10083],[999,10166],[999,10249],[999,10333],[999,10416],[999,10499],[999,10583],[999,10666],[83.1,10749],[85.2,10833],[87.3,10916],[87.4,10999]]",1,0,871.2302,872.2356,100,0.6604,"[{""rating"":100,""responseTime"":0.6603999999986172}]",space,0.489,,872.2357,Partially,50,872.2369,,,[],,0,15,15,15,1,audio/Narrative8Situation6.wav,audio/Narrative7Situation6.wav,audio/Narrative6Situation6.wav,audio/Narrative5Situation6.wav,2,3,2,3,,,,,,,,,,,,,,,,,,,,,,,,,,,,,,,,,,,,,,,
,,,,,,6607c4839cec07dacff8f8fa,2024-05-13_12h31.10.571,group3.1-3.2-social-tom,2023.2.2,Win32,175.4385965,65c5074098b851296ff0b7ed,664240328723f7f039588e2c,,,,,,,,,,,,,,,,,,,,,,,,,,,,,872.2371,2,audio/Narrative6Situation7.wav,877.2411,,877.2412,902.0743,"[[999,4],[999,83],[999,166],[999,250],[999,333],[999,416],[999,499],[999,583],[100,666],[100,749],[100,833],[100,916],[100,999],[82.3,1333],[78.1,1416],[74.2,1499],[65.5,1583],[56.4,1666],[55.3,1749],[63.8,1833],[65.8,1916],[60.6,1999],[69,2083],[94.5,2166],[100,2249],[100,2333],[100,2416],[100,2499],[100,2583],[100,2666],[100,2749],[91.8,2833],[65.2,2916],[55.6,3000],[50.9,3083],[44.9,3166],[32.5,3249],[22,3333],[22.1,3416],[24.4,3499],[48.1,3583],[90.9,3666],[100,3749],[100,3833],[100,3916],[100,3999],[100,4083],[100,4166],[99.4,4249],[98.6,4333],[98.8,4416],[100,4499],[100,4583],[100,4666],[100,4749],[100,4833],[100,4916],[100,4999],[100,5083],[100,5166],[100,5249],[100,5333],[100,5416],[100,5499],[100,5583],[100,5666],[100,5749],[100,5833],[100,5916],[100,5999],[100,6083],[100,6166],[100,6249],[100,6333],[100,6416],[100,6499],[100,6583],[100,6666],[100,6749],[100,6833],[100,6916],[100,6999],[100,7083],[100,7166],[100,7249],[100,7333],[100,7416],[100,7499],[100,7583],[100,7666],[100,7749],[100,7833],[100,7916],[100,7999],[100,8083],[100,8166],[100,8249],[100,8333],[100,8416],[100,8499],[100,8583],[100,8666],[100,8749],[100,8833],[100,8916],[100,8999],[100,9083],[100,9166],[100,9249],[100,9333],[100,9416],[100,9499],[100,9583],[100,9666],[100,9749],[100,9833],[100,9916],[100,9999],[100,10083],[100,10166],[100,10249],[100,10333],[100,10416],[100,10499],[100,10582],[100,10666],[100,10749],[100,10833],[100,10916],[100,10999],[100,11082],[100,11166],[100,11249],[100,11333],[100,11416],[100,11499],[99.9,11583],[99.8,11666],[99.6,11749],[99.3,11833],[99.1,11916],[99,11999],[99,12083],[98.8,12166],[98.7,12249],[98.7,12332],[98.7,12416],[98.7,12499],[99,12583],[100,12666],[100,12749],[100,12833],[100,12916],[100,12999],[100,13082],[100,13166],[100,13250],[100,13333],[100,13416],[100,13499],[100,13583],[100,13666],[100,13749],[100,13833],[100,13916],[100,13999],[100,14082],[100,14166],[100,14249],[100,14332],[100,14416],[100,14499],[100,14582],[100,14666],[100,14749],[100,14832],[100,14916],[100,14999],[100,15082],[100,15166],[100,15249],[100,15333],[100,15416],[100,15499],[100,15583],[100,15666],[100,15749],[100,15832],[100,15916],[100,15999],[100,16082],[100,16166],[100,16249],[100,16332],[100,16416],[100,16499],[100,16582],[100,16666],[100,16749],[100,16832],[100,16916],[100,16999],[100,17083],[100,17166],[100,17249],[100,17332],[100,17416],[100,17499],[100,17582],[100,17666],[100,17749],[100,17832],[100,17916],[100,17999],[100,18082],[100,18166],[100,18249],[100,18332],[100,18416],[100,18499],[100,18582],[100,18666],[100,18749],[100,18832],[100,18916],[100,18999],[100,19082],[100,19166],[100,19249],[100,19332],[100,19416],[100,19499],[100,19582],[100,19666],[100,19749],[100,19832],[100,19916],[100,19999],[100,20082],[100,20166],[100,20249],[100,20332],[100,20416],[100,20499],[100,20582],[100,20666],[100,20749],[100,20832],[100,20916],[100,20999],[100,21082],[100,21166],[100,21249],[100,21332],[100,21416],[100,21499],[100,21582],[100,21666],[100,21749],[100,21832],[100,21916],[100,21999],[100,22082],[100,22166],[100,22249],[100,22332],[100,22416],[100,22499],[100,22582],[100,22666],[100,22749],[100,22832],[100,22916],[100,22999],[100,23082],[100,23166],[100,23249],[100,23332],[100,23416],[100,23499],[100,23582],[100,23666],[100,23749],[100,23832],[100,23916],[100,23999],[100,24082],[100,24166],[100,24249],[100,24333],[100,24416],[97.3,24666],[97.2,24749],[97.2,24832]]",1,0,902.0744,902.8353,100,0.3681,"[{""rating"":100,""responseTime"":0.36809999999400134}]",space,0.2491,,902.8353,Partially,50,902.8361,,,[],,0,16,16,16,1,audio/Narrative8Situation7.wav,audio/Narrative7Situation7.wav,audio/Narrative6Situation7.wav,audio/Narrative5Situation7.wav,3,5,5,4,,,,,,,,,,,,,,,,,,,,,,,,,,,,,,,,,,,,,,,
,,,,,,6607c4839cec07dacff8f8fa,2024-05-13_12h31.10.571,group3.1-3.2-social-tom,2023.2.2,Win32,175.4385965,65c5074098b851296ff0b7ed,664240328723f7f039588e2c,,,,,,,,,,,,,,,,,,,,,,,,,,,,,902.8362,2,audio/Narrative6Situation8.wav,907.8408,,907.8408,914.6743,"[[100,1083],[100,1166],[68,1250],[36.2,1333],[30.4,1416],[37.4,1499],[44.2,1583],[45.2,1666],[46.8,1750],[48.8,1833],[49.5,1916],[49.6,2000],[49.6,2083],[49.6,2166],[49.6,2250],[49.6,2333],[49.6,2416],[49.6,2499],[49.6,2583],[49.6,2666],[49.6,2749],[49.6,2833],[49.6,2916],[49.6,2999],[49.6,3083],[49.6,3166],[49.6,3249],[49.6,3333],[49.6,3416],[49.6,3499],[49.6,3583],[49.6,3666],[49.6,3749],[49.6,3833],[49.6,3916],[44.8,3999],[30.3,4083],[25.5,4166],[25.4,4249],[22.8,4333],[20.3,4416],[17.8,4500],[14.7,4583],[10.8,4666],[7.3,4749],[4.2,4833],[4.2,4916],[4.2,4999],[4.2,5083],[3.9,5166],[1.9,5249],[1.2,6833]]",1,0,914.6744,916.0408,0,0.436,"[{""rating"":0,""responseTime"":0.4359999999999218}]",space,0.8512,,916.0408,Not at all,0,916.0422,,,[],,0,17,17,17,1,audio/Narrative8Situation8.wav,audio/Narrative7Situation8.wav,audio/Narrative6Situation8.wav,audio/Narrative5Situation8.wav,3,2,5,3,,,,,,,,,,,,,,,,,,,,,,,,,,,,,,,,,,,,,,,
,,,,,,6607c4839cec07dacff8f8fa,2024-05-13_12h31.10.571,group3.1-3.2-social-tom,2023.2.2,Win32,175.4385965,65c5074098b851296ff0b7ed,664240328723f7f039588e2c,,,,,,,,,,,,,,,,,,,,,,,,,,,,,916.0423,2,audio/Narrative6Situation9.wav,920.0462,,920.0462,929.9739,"[[0.8,6583],[2.7,6666],[1.6,6749],[0.8,7249],[0.9,7333],[1,7416],[1,7499],[1,7583],[1,7666],[0.5,7750],[0.5,9166],[0.6,9249],[1.3,9333],[2,9416],[2.2,9499],[2.2,9583],[2.2,9666],[2.2,9749],[2.2,9833],[2.1,9916]]",1,0,929.974,931.4016,0,0.3484,"[{""rating"":0,""responseTime"":0.3483999999984917}]",space,0.9121,,931.4017,Partially,50,931.403,,,[],,0,18,18,18,1,audio/Narrative8Situation9.wav,audio/Narrative7Situation9.wav,audio/Narrative6Situation9.wav,audio/Narrative5Situation9.wav,3,2,4,3,,,,,,,,,,,,,,,,,,,,,,,,,,,,,,,,,,,,,,,
,,,,,,6607c4839cec07dacff8f8fa,2024-05-13_12h31.10.571,group3.1-3.2-social-tom,2023.2.2,Win32,175.4385965,65c5074098b851296ff0b7ed,664240328723f7f039588e2c,,,,,,,,,,,,,,,,,,,,,,,,,,,,,,,,,,,,,,,,,,,,,,,,,,,,,,,,,,,,,,,,,,,,,,,,931.4032,933.9072,space,1.9944,,933.9073,941.4686,space,7.2521,,,,,,,,,,,,,,,,,,,,,,,,,,
