exp_question,consent.started,consent.stopped,consentResponse.keys,consentResponse.rt,consentResponse.duration,participantID,date,expName,psychopyVersion,OS,frameRate,STUDY_ID,SESSION_ID,opening1.started,opening1.stopped,keyEndingOpening1.keys,keyEndingOpening1.rt,keyEndingOpening1.duration,volumeAdjust.started,volumeAdjust.stopped,endingAdjust.keys,endingAdjust.rt,endingAdjust.duration,opening2.started,opening2.stopped,keyEndingOpening.keys,keyEndingOpening.rt,keyEndingOpening.duration,mouse.x,mouse.y,mouse.leftButton,mouse.midButton,mouse.rightButton,mouse.time,instructionLoop.thisRepN,instructionLoop.thisTrialN,instructionLoop.thisN,instructionLoop.thisIndex,instructionLoop.ran,readyForAudio.started,readyForAudio.stopped,fixation.started,run,audio_played,fixation.stopped,endPractice.keys,audioPre.started,audioPre.stopped,continuousResponses_audio,continuousSlider.response,continuousSlider.rt,intRating.started,intRating.stopped,intQuestionSlider.response,intQuestionSlider.rt,intQuestionSlider.history,confirmResponse.keys,confirmResponse.rt,confirmResponse.duration,catchQuestion.started,catch_label,catch_value,catchQuestion.stopped,catchQuestionSlider.response,catchQuestionSlider.rt,catchQuestionSlider.history,confirmResponse_2.keys,audioRunLoop.thisRepN,audioRunLoop.thisTrialN,audioRunLoop.thisN,audioRunLoop.thisIndex,audioRunLoop.ran,conditions1_1,conditions2_1,conditions1_2,conditions2_2,dur1_1,dur2_1,dur1_2,dur2_2,endPractice.rt,endPractice.duration,confirmResponse_2.rt,confirmResponse_2.duration,runIntervalBreak.started,runIntervalBreak.stopped,endingBreakKey.keys,endingBreakKey.rt,endingBreakKey.duration,connection.started,connection.stopped,connectionEnding.keys,connectionEnding.rt,connectionEnding.duration,readyForText.started,readyForText.stopped,textPre.started,run_dup,textPre.stopped,continuousResponses_text,textRunLoop.thisRepN,textRunLoop.thisTrialN,textRunLoop.thisN,textRunLoop.thisIndex,textRunLoop.ran,text1_1,text1_2,text2_1,text2_2,runBreakText.started,runBreakText.stopped,endingBreakKey_2.keys,ending.started,ending.stopped,endingEnding.keys,endingEnding.rt,endingEnding.duration
social,0.0003,10.7348,y,10.3711,,6609619feb79146b62811775,2024-05-13_10h30.48.733,group3.1-3.2-social-tom,2023.2.2,Win32,30.21148036,65c5074098b851296ff0b7ed,6642320cb618aaa09c6cbdf6,,,,,,,,,,,,,,,,,,,,,,,,,,,,,,,,,,,,,,,,,,,,,,,,,,,,,,,,,,,,,,,,,,,,,,,,,,,,,,,,,,,,,,,,,,,,,,,,,,,,,,,,
,,,,,,6609619feb79146b62811775,2024-05-13_10h30.48.733,group3.1-3.2-social-tom,2023.2.2,Win32,30.21148036,65c5074098b851296ff0b7ed,6642320cb618aaa09c6cbdf6,10.7351,20.0108,space,9.2103,,,,,,,,,,,,,,,,,,,,,,,,,,,,,,,,,,,,,,,,,,,,,,,,,,,,,,,,,,,,,,,,,,,,,,,,,,,,,,,,,,,,,,,,,,,,,,,,,,,,
,,,,,,6609619feb79146b62811775,2024-05-13_10h30.48.733,group3.1-3.2-social-tom,2023.2.2,Win32,30.21148036,65c5074098b851296ff0b7ed,6642320cb618aaa09c6cbdf6,,,,,,20.011,37.728,space,17.3761,,,,,,,,,,,,,,,,,,,,,,,,,,,,,,,,,,,,,,,,,,,,,,,,,,,,,,,,,,,,,,,,,,,,,,,,,,,,,,,,,,,,,,,,,,,,,,,
,,,,,,6609619feb79146b62811775,2024-05-13_10h30.48.733,group3.1-3.2-social-tom,2023.2.2,Win32,30.21148036,65c5074098b851296ff0b7ed,6642320cb618aaa09c6cbdf6,,,,,,,,,,,37.732,120.0439,space,82.2713,,[],[],[],[],[],[],0,0,0,0,1,,,,,,,,,,,,,,,,,,,,,,,,,,,,,,,,,,,,,,,,,,,,,,,,,,,,,,,,,,,,,,,,,,,,,,,,,,,,,,
,,,,,,6609619feb79146b62811775,2024-05-13_10h30.48.733,group3.1-3.2-social-tom,2023.2.2,Win32,30.21148036,65c5074098b851296ff0b7ed,6642320cb618aaa09c6cbdf6,,,,,,,,,,,120.0507,146.904,space,26.7613,,[],[],[],[],[],[],1,0,1,0,1,,,,,,,,,,,,,,,,,,,,,,,,,,,,,,,,,,,,,,,,,,,,,,,,,,,,,,,,,,,,,,,,,,,,,,,,,,,,,,
,,,,,,6609619feb79146b62811775,2024-05-13_10h30.48.733,group3.1-3.2-social-tom,2023.2.2,Win32,30.21148036,65c5074098b851296ff0b7ed,6642320cb618aaa09c6cbdf6,,,,,,,,,,,146.9104,169.2925,space,22.3455,,[],[],[],[],[],[],2,0,2,0,1,,,,,,,,,,,,,,,,,,,,,,,,,,,,,,,,,,,,,,,,,,,,,,,,,,,,,,,,,,,,,,,,,,,,,,,,,,,,,,
,,,,,,6609619feb79146b62811775,2024-05-13_10h30.48.733,group3.1-3.2-social-tom,2023.2.2,Win32,30.21148036,65c5074098b851296ff0b7ed,6642320cb618aaa09c6cbdf6,,,,,,,,,,,169.2992,214.9047,space,45.5604,,[],[],[],[],[],[],3,0,3,0,1,,,,,,,,,,,,,,,,,,,,,,,,,,,,,,,,,,,,,,,,,,,,,,,,,,,,,,,,,,,,,,,,,,,,,,,,,,,,,,
,,,,,,6609619feb79146b62811775,2024-05-13_10h30.48.733,group3.1-3.2-social-tom,2023.2.2,Win32,30.21148036,65c5074098b851296ff0b7ed,6642320cb618aaa09c6cbdf6,,,,,,,,,,,214.9113,227.9511,space,13.0249,,[],[],[],[],[],[],4,0,4,0,1,,,,,,,,,,,,,,,,,,,,,,,,,,,,,,,,,,,,,,,,,,,,,,,,,,,,,,,,,,,,,,,,,,,,,,,,,,,,,,
,,,,,,6609619feb79146b62811775,2024-05-13_10h30.48.733,group3.1-3.2-social-tom,2023.2.2,Win32,30.21148036,65c5074098b851296ff0b7ed,6642320cb618aaa09c6cbdf6,,,,,,,,,,,,,,,,,,,,,,,,,,,227.9588,230.5205,230.5338,1,audio/Narrative13Situation2.wav,232.5557,,232.5559,262.319,"[[999,0],[999,65],[999,133],[999,199],[999,266],[999,333],[999,399],[999,466],[999,533],[999,600],[999,666],[999,734],[999,800],[999,867],[999,933],[999,1000],[999,1067],[999,1134],[999,1200],[999,1267],[999,1334],[999,1400],[999,1467],[999,1534],[999,1601],[999,1668],[999,1734],[999,1801],[999,1868],[999,1934],[999,2002],[999,2068],[999,2135],[999,2201],[999,2268],[999,2335],[999,2401],[999,2468],[999,2535],[999,2602],[999,2668],[999,2736],[999,2802],[999,2869],[999,2936],[999,3002],[999,3069],[999,3135],[999,3203],[999,3269],[999,3336],[999,3403],[999,3469],[999,3536],[999,3603],[999,3669],[999,3736],[999,3803],[999,3870],[999,3937],[999,4003],[999,4070],[999,4137],[999,4203],[999,4270],[999,4337],[999,4403],[999,4470],[999,4537],[999,4604],[999,4671],[999,4737],[999,4804],[999,4871],[15.7,4938],[15.7,5004],[15.7,5071],[14.6,5138],[12.9,5204],[12.8,5271],[13.2,5538],[10.7,5605],[9.2,5671],[9.2,5738],[9.2,5805],[9.2,5872],[9.2,5938],[9.2,6005],[9.2,6072],[11.9,6139],[12.2,6205],[12.2,6272],[12.2,6339],[12.2,6405],[12.2,6473],[12.2,6539],[12.2,6605],[12.2,6673],[12.2,6739],[12.3,6806],[13.1,6872],[14.5,6939],[15.3,7006],[15.3,7073],[15.3,7139],[15.3,7206],[15.3,7273],[15.3,7340],[15.3,7407],[15.3,7473],[15.3,7540],[15.3,7607],[15.3,7674],[15.3,7740],[15.3,7807],[15.3,7873],[15.3,7940],[15.3,8007],[15.3,8074],[15.3,8141],[15.3,8207],[15.3,8274],[19.1,8341],[23.1,8407],[28.2,8474],[32.3,8541],[34.4,8607],[34.4,8674],[60.8,8741],[62.2,8808],[62.2,8875],[62.2,8942],[62.2,9008],[62.2,9075],[62.2,9142],[62.6,9208],[65,9275],[65.5,9342],[66.5,9409],[66.5,9475],[66.6,9542],[66.6,9609],[66.6,9675],[66.6,9742],[66.6,9809],[66.6,9876],[66.6,9942],[68.2,10009],[69.4,10076],[69.4,10142],[69.4,10209],[69.6,10276],[69.6,10343],[69.6,10409],[72.1,10477],[82.4,10543],[82.5,10610],[82.5,10676],[82.5,10743],[82.5,10810],[82.5,10877],[82.5,10943],[82.5,11010],[82.5,11077],[82.5,11143],[82.5,11210],[82.5,11277],[79.4,11343],[78.8,11410],[78.8,11477],[78.8,11544],[78.8,11611],[78.8,11677],[78.8,11744],[78.8,11811],[78.8,11878],[78.8,11945],[78.8,12011],[78.8,12078],[78.8,12145],[78.8,12211],[78.8,12278],[78.8,12345],[78.8,12412],[78.8,12478],[78.8,12545],[78.8,12611],[78.8,12679],[78.7,12745],[78.7,12812],[78.7,12878],[78.7,12946],[78.7,13012],[78.7,13078],[78.7,13145],[78.7,13212],[78.7,13279],[78.7,13346],[78.7,13412],[78.7,13479],[78.7,13546],[78.7,13613],[78.7,13679],[78.7,13746],[78.7,13813],[78.7,13880],[78.7,13947],[78.7,14013],[78.7,14080],[78.7,14147],[78.7,14213],[78.7,14280],[78.7,14347],[78.7,14413],[78.7,14480],[78.7,14547],[78.7,14613],[78.7,14681],[78.7,14747],[78.7,14814],[78.7,14881],[78.7,14947],[78.7,15014],[78.7,15081],[78.7,15148],[78.7,15214],[78.7,15281],[78.7,15348],[78.7,15415],[78.7,15481],[78.7,15548],[78.7,15615],[78.7,15681],[78.7,15748],[78.7,15815],[78.7,15882],[78.7,15949],[78.7,16015],[78.7,16082],[78.7,16149],[78.7,16215],[78.7,16282],[78.7,16348],[78.7,16416],[78.7,16482],[78.7,16549],[78.7,16616],[78.7,16682],[78.7,16749],[78.7,16816],[78.7,16883],[78.7,16949],[78.7,17016],[78.7,17083],[78.7,17150],[78.7,17216],[78.7,17283],[78.7,17350],[78.7,17416],[78.7,17484],[78.7,17550],[78.7,17617],[78.7,17683],[78.7,17750],[78.7,17817],[78.7,17883],[78.7,17950],[78.7,18017],[78.7,18084],[78.7,18151],[78.7,18218],[78.7,18284],[78.7,18350],[78.7,18418],[78.7,18484],[78.7,18551],[78.7,18618],[78.7,18684],[78.7,18751],[78.7,18818],[78.7,18885],[78.7,18952],[78.7,19018],[78.7,19085],[78.7,19152],[78.7,19218],[78.7,19285],[78.7,19352],[78.7,19419],[78.7,19485],[78.7,19552],[78.7,19619],[78.7,19686],[78.7,19752],[78.7,19819],[78.7,19885],[78.7,19953],[78.7,20019],[78.7,20086],[78.7,20153],[78.7,20219],[78.7,20286],[78.7,20353],[78.7,20420],[78.7,20486],[78.7,20553],[78.7,20620],[78.7,20687],[78.7,20753],[78.7,20820],[78.7,20887],[78.7,20953],[78.7,21020],[78.7,21087],[78.7,21154],[78.7,21220],[78.7,21287],[78.7,21354],[78.7,21420],[78.7,21487],[78.7,21554],[78.7,21621],[78.7,21687],[78.7,21754],[78.7,21821],[78.7,21888],[78.7,21955],[78.7,22021],[78.7,22088],[78.7,22155],[78.7,22221],[78.7,22288],[78.7,22355],[78.7,22422],[78.7,22488],[78.7,22555],[78.7,22622],[78.7,22688],[78.7,22755],[78.7,22822],[78.7,22889],[78.7,22956],[78.7,23022],[78.7,23089],[78.7,23155],[78.7,23223],[78.7,23289],[78.7,23356],[78.7,23422],[78.7,23489],[78.7,23556],[78.7,23623],[78.7,23690],[78.7,23756],[78.7,23823],[78.7,23890],[78.7,23957],[78.7,24023],[78.7,24090],[78.7,24157],[78.7,24223],[78.7,24290],[78.7,24357],[78.7,24424],[78.7,24491],[78.7,24557],[78.7,24624],[78.7,24690],[78.7,24757],[78.7,24824],[78.7,24891],[78.7,24958],[78.7,25025],[78.7,25090],[78.7,25157],[78.7,25224],[78.7,25291],[78.7,25358],[78.7,25424],[78.7,25491],[78.7,25558],[78.7,25624],[78.7,25692],[78.7,25758],[78.7,25825],[78.7,25892],[78.7,25958],[78.7,26025],[78.7,26092],[78.7,26159],[78.7,26225],[78.7,26292],[78.7,26359],[78.7,26426],[78.7,26492],[78.7,26559],[78.7,26626],[78.7,26692],[78.7,26759],[78.7,26826],[78.7,26893],[78.7,26959],[78.7,27026],[78.7,27093],[78.7,27160],[78.7,27226],[78.7,27293],[78.7,27360],[78.7,27427],[78.7,27493],[78.7,27560],[78.7,27627],[78.7,27693],[78.7,27760],[78.7,27827],[78.7,27894],[78.7,27960],[78.7,28027],[78.7,28094],[78.7,28161],[78.7,28227],[78.7,28294],[78.7,28361],[78.7,28428],[78.7,28494],[78.7,28561],[78.7,28628],[78.7,28695],[78.7,28761],[78.7,28828],[78.7,28895],[78.7,28962],[78.7,29028],[78.7,29095],[78.7,29161],[78.7,29229],[78.7,29295],[78.7,29362],[78.7,29429],[78.7,29495],[78.7,29562],[78.7,29629],[78.7,29696],[78.7,29762]]",1,0,262.3193,275.1656,71.09375,10.0833,"[{""rating"":71.09375,""responseTime"":10.083299999997053}]",space,12.2445,,275.1658,Partially,50,275.1691,,,[],,0,0,0,0,1,audio/Narrative13Situation2.wav,audio/Narrative13Situation2.wav,audio/Narrative13Situation2.wav,audio/Narrative13Situation2.wav,2,2,2,2,,,,,,,,,,,,,,,,,,,,,,,,,,,,,,,,,,,,,
,,,,,,6609619feb79146b62811775,2024-05-13_10h30.48.733,group3.1-3.2-social-tom,2023.2.2,Win32,30.21148036,65c5074098b851296ff0b7ed,6642320cb618aaa09c6cbdf6,,,,,,,,,,,,,,,,,,,,,,,,,,,,,275.1694,1,audio/Narrative8Situation1.wav,277.8675,space,277.8675,293.8168,"[[999,0],[999,67],[999,133],[999,199],[999,266],[999,333],[999,400],[999,467],[999,533],[999,600],[999,667],[999,733],[999,800],[999,867],[999,934],[999,1000],[999,1067],[999,1134],[999,1200],[999,1268],[999,1334],[999,1401],[999,1467],[999,1534],[999,1601],[999,1668],[999,1735],[999,1801],[999,1868],[999,1935],[999,2001],[999,2068],[999,2135],[999,2202],[999,2268],[999,2335],[999,2402],[999,2469],[999,2536],[999,2602],[999,2669],[999,2735],[999,2802],[999,2869],[999,2936],[999,3002],[999,3069],[999,3136],[999,3203],[999,3270],[999,3336],[999,3403],[48.5,3469],[48.5,3536],[48.4,3604],[48.4,3670],[48,3737],[47.2,3803],[46.6,3870],[46.6,3937],[46.6,4003],[46.6,4070],[46.6,4137],[46.6,4203],[46.6,4270],[46.6,4337],[46.6,4404],[46.6,4470],[46.6,4538],[46.6,4604],[46.6,4671],[46.6,4738],[46.6,4804],[46.6,4871],[46.6,4937],[46.6,5004],[46.6,5071],[46.6,5138],[46.6,5204],[46.6,5271],[46.6,5338],[46.6,5405],[46.6,5472],[46.6,5538],[46.6,5605],[46.6,5672],[46.6,5738],[46.6,5805],[46.6,5872],[46.6,5938],[46.6,6005],[46.6,6072],[46.6,6139],[46.6,6206],[46.5,6272],[45.7,6339],[45.7,6406],[45.7,6473],[45.7,6539],[45.7,6606],[45.7,6673],[46.3,6739],[46.5,6806],[46.6,6873],[47.1,6940],[47.1,7007],[47.1,7073],[47.1,7140],[47.3,7207],[48.1,7273],[48.4,7340],[48.4,7407],[48.4,7474],[48.4,7540],[48.4,7607],[48.4,7674],[48.4,7740],[48.4,7807],[48.4,7874],[48.4,7941],[48.4,8008],[48.4,8074],[48.4,8141],[48.4,8208],[48.4,8274],[48.4,8341],[48.4,8408],[48.4,8475],[48.4,8541],[48.4,8608],[48.4,8675],[48.4,8741],[48.4,8808],[48.4,8875],[48.4,8942],[48.4,9009],[48.4,9075],[48.4,9142],[48.4,9209],[48.4,9275],[48.4,9342],[48.4,9409],[48.4,9476],[48.4,9542],[48.4,9609],[48.4,9676],[48.4,9742],[48.4,9809],[48.4,9876],[51.1,9942],[52.1,10009],[53.4,10076],[54.7,10143],[54.7,10209],[54.7,10276],[54.7,10343],[57.4,10409],[58.9,10476],[60.6,10543],[61.8,10610],[62.2,10677],[62.2,10743],[62.2,10811],[63.1,10877],[64.1,10944],[64.3,11010],[66,11077],[66.4,11144],[66.4,11211],[66.4,11277],[66.4,11344],[66.4,11411],[66.5,11478],[69.5,11544],[69.7,11611],[69.7,11678],[69.7,11744],[69.7,11811],[69.7,11878],[69.7,11945],[69.7,12011],[69.7,12078],[69.7,12145],[69.8,12212],[69.8,12278],[69.8,12345],[69.8,12412],[69.8,12478],[69.8,12545],[69.8,12612],[69.8,12679],[69.8,12745],[69.8,12812],[69.8,12879],[69.8,12946],[69.8,13012],[69.8,13079],[69.8,13146],[69.8,13212],[69.8,13279],[69.8,13346],[69.8,13413],[69.8,13479],[69.8,13546],[69.8,13613],[69.8,13679],[69.8,13746],[69.8,13813],[69.8,13879],[69.8,13947],[69.8,14013],[69.8,14080],[69.8,14147],[69.8,14213],[69.8,14280],[69.8,14347],[69.8,14414],[69.8,14480],[69.8,14547],[69.8,14614],[69.8,14681],[69.8,14747],[69.8,14814],[69.8,14881],[69.8,14948],[69.8,15014],[69.8,15081],[69.8,15148],[69.8,15215],[69.8,15281],[69.8,15348],[69.8,15415],[69.8,15481],[69.8,15548],[69.8,15615],[69.8,15682],[69.8,15749],[69.8,15815],[70,15882],[70.6,15949]]",1,0,293.8171,298.5884,89.73958969,3.8255,"[{""rating"":89.73958969116211,""responseTime"":3.825499999999977}]",space,4.1771,,298.5884,Not at all,0,298.5915,,,[],,0,1,1,1,1,audio/Narrative7Situation1.wav,audio/Narrative8Situation1.wav,audio/Narrative5Situation1.wav,audio/Narrative6Situation1.wav,2,5,5,2,2.6756,,,,,,,,,,,,,,,,,,,,,,,,,,,,,,,,,,,,
,,,,,,6609619feb79146b62811775,2024-05-13_10h30.48.733,group3.1-3.2-social-tom,2023.2.2,Win32,30.21148036,65c5074098b851296ff0b7ed,6642320cb618aaa09c6cbdf6,,,,,,,,,,,,,,,,,,,,,,,,,,,,,298.5918,1,audio/Narrative8Situation2.wav,301.6246,,301.6246,311.8017,"[[999,0],[999,66],[999,133],[999,199],[999,266],[999,333],[999,400],[999,467],[999,533],[999,600],[999,667],[999,733],[999,800],[999,867],[999,934],[999,1000],[999,1067],[999,1134],[999,1201],[999,1267],[999,1334],[999,1401],[999,1468],[999,1534],[999,1601],[999,1668],[999,1735],[61.3,1802],[61.3,1868],[61.3,1935],[61.3,2001],[61.3,2068],[61.3,2135],[61.3,2201],[61.3,2268],[61.3,2335],[61.3,2402],[61.3,2469],[61.3,2535],[61.3,2602],[61.3,2669],[61.3,2735],[61.3,2802],[61.3,2869],[61.3,2936],[61.3,3002],[61.3,3069],[61.3,3136],[61.3,3203],[61.3,3269],[61.3,3336],[61.3,3403],[61.3,3469],[61.3,3536],[61.3,3603],[61.3,3670],[61.3,3737],[61.3,3803],[61.3,3870],[61.3,3936],[61.3,4004],[61.3,4070],[61.3,4137],[61.3,4204],[61.3,4270],[61.3,4337],[61.3,4404],[61.3,4470],[61.3,4537],[61.3,4604],[61.3,4671],[61.3,4737],[61.3,4804],[61.3,4871],[61.3,4938],[61.3,5004],[61.3,5071],[61.3,5138],[61.3,5205],[61.3,5271],[61.3,5338],[61.3,5405],[61.3,5472],[61.3,5538],[61.3,5605],[61.3,5672],[61.3,5739],[61.3,5805],[61.3,5872],[61.3,5939],[61.3,6005],[61.3,6072],[61.3,6139],[61.3,6206],[61.3,6272],[61.3,6339],[61.3,6405],[61.3,6473],[61.3,6539],[61.3,6606],[61.3,6673],[61.3,6739],[61.3,6806],[61.3,6873],[61.3,6940],[61.3,7007],[61.3,7073],[61.3,7140],[61.3,7207],[61.3,7273],[61.3,7340],[61.3,7407],[61.3,7473],[61.3,7540],[61.3,7607],[61.3,7674],[61.3,7741],[61.3,7807],[61.3,7874],[61.3,7941],[61.3,8007],[61.3,8074],[61.3,8141],[61.3,8208],[61.3,8274],[61.3,8341],[61.3,8408],[61.3,8474],[61.3,8541],[61.3,8608],[61.3,8675],[61.3,8741],[61.3,8808],[61.3,8875],[61.3,8942],[61.3,9008],[61.3,9075],[61.3,9142],[61.3,9208],[61.3,9275],[61.3,9342],[61.3,9409],[61.3,9475],[61.3,9542],[61.3,9609],[61.3,9676],[61.3,9742],[61.3,9809],[61.3,9876],[55.8,9943],[41.3,10009],[32.1,10076],[24.7,10143]]",1,0,311.8019,316.5396,6.666669846,2.4465,"[{""rating"":6.666669845581053,""responseTime"":2.4465000000000146}]",space,4.1947,,316.5397,Not at all,0,316.5473,,,[],,0,2,2,2,1,audio/Narrative7Situation2.wav,audio/Narrative8Situation2.wav,audio/Narrative5Situation2.wav,audio/Narrative6Situation2.wav,3,3,3,3,,,,,,,,,,,,,,,,,,,,,,,,,,,,,,,,,,,,,
,,,,,,6609619feb79146b62811775,2024-05-13_10h30.48.733,group3.1-3.2-social-tom,2023.2.2,Win32,30.21148036,65c5074098b851296ff0b7ed,6642320cb618aaa09c6cbdf6,,,,,,,,,,,,,,,,,,,,,,,,,,,,,316.5475,1,audio/Narrative8Situation3.wav,320.5764,,320.5764,342.9655,"[[999,6],[999,67],[999,133],[999,200],[999,267],[999,333],[999,400],[999,467],[999,534],[999,600],[999,667],[999,734],[999,801],[999,867],[999,934],[999,1001],[999,1067],[999,1134],[999,1201],[999,1268],[999,1334],[999,1401],[999,1468],[999,1535],[999,1601],[999,1668],[999,1735],[999,1802],[999,1868],[30.2,1935],[29.9,2002],[29.8,2069],[29.7,2135],[29.7,2202],[29.7,2269],[29.7,2335],[29.7,2402],[29.7,2469],[29.7,2536],[29.7,2603],[29.7,2669],[29.7,2736],[29.7,2802],[29.7,2869],[29.7,2936],[29.7,3003],[29.7,3070],[29.7,3136],[29.7,3203],[29.7,3269],[29.7,3336],[29.7,3403],[29.7,3470],[29.7,3537],[29.7,3604],[29.7,3670],[29.7,3737],[29.7,3804],[29.7,3870],[29.7,3937],[29.7,4004],[29.7,4071],[29.7,4137],[29.7,4204],[29.7,4271],[29.7,4337],[29.7,4404],[29.7,4471],[29.7,4538],[29.7,4605],[29.7,4671],[29.7,4738],[29.7,4805],[29.7,4872],[29.7,4938],[29.7,5005],[29.7,5072],[29.7,5138],[29.7,5205],[29.7,5272],[29.7,5338],[29.7,5405],[29.7,5472],[29.7,5539],[29.7,5605],[29.7,5672],[29.7,5739],[29.7,5805],[29.7,5872],[29.7,5939],[29.7,6006],[29.7,6073],[29.7,6139],[29.7,6206],[29.7,6273],[29.7,6340],[29.7,6406],[29.7,6473],[29.7,6540],[29.7,6606],[29.7,6673],[29.7,6740],[29.7,6807],[29.7,6874],[29.7,6940],[29.7,7007],[29.7,7074],[29.7,7140],[29.7,7207],[29.7,7274],[29.7,7341],[29.7,7407],[29.7,7474],[29.7,7540],[29.7,7607],[29.7,7674],[29.7,7741],[32.7,7808],[54,7875],[58.6,7941],[58.6,8008],[58.6,8075],[58.6,8141],[58.6,8208],[58.6,8275],[58.6,8341],[58.6,8408],[58.6,8475],[58.6,8542],[58.6,8608],[58.6,8675],[58.6,8742],[58.6,8809],[58.6,8875],[58.6,8942],[58.6,9009],[58.6,9076],[58.6,9143],[58.6,9209],[58.6,9276],[58.6,9343],[58.6,9409],[58.6,9476],[58.6,9543],[58.6,9609],[58.6,9676],[58.6,9743],[58.6,9810],[58.6,9876],[58.6,9943],[58.6,10010],[58.6,10076],[58.6,10143],[58.6,10210],[58.6,10277],[58.6,10343],[58.6,10410],[58.6,10477],[58.6,10543],[58.6,10610],[58.6,10677],[58.6,10744],[58.6,10811],[58.6,10877],[58.6,10944],[58.6,11011],[58.6,11077],[58.6,11144],[58.6,11211],[58.6,11277],[58.6,11345],[58.6,11411],[58.6,11478],[58.6,11545],[58.6,11612],[58.6,11678],[58.6,11745],[58.6,11812],[58.6,11878],[58.6,11945],[58.6,12011],[58.6,12078],[58.6,12146],[58.6,12212],[58.6,12279],[58.6,12345],[58.6,12412],[58.6,12479],[58.6,12546],[58.6,12613],[58.6,12679],[58.6,12746],[58.6,12813],[58.6,12879],[58.6,12946],[58.6,13013],[58.6,13079],[58.6,13146],[58.6,13213],[58.6,13280],[58.6,13346],[58.6,13413],[58.6,13480],[58.6,13547],[58.6,13613],[58.6,13680],[58.6,13747],[58.6,13814],[58.6,13880],[58.6,13947],[58.6,14014],[58.6,14081],[58.6,14147],[58.6,14214],[58.6,14281],[58.6,14347],[58.6,14414],[58.6,14481],[58.6,14548],[58.6,14615],[58.6,14681],[58.6,14748],[58.6,14814],[58.6,14881],[58.6,14948],[58.6,15015],[58.6,15082],[58.6,15148],[58.6,15215],[58.6,15281],[58.6,15348],[58.6,15415],[58.6,15482],[58.6,15549],[58.6,15615],[58.6,15682],[58.9,15749],[62.7,15816],[63,15882],[63,15949],[63,16016],[63,16082],[63,16149],[63,16216],[62.2,16283],[58.6,16349],[57.7,16416],[56.6,16483],[55.2,16550],[54.9,16616],[54.9,16683],[54.9,16750],[54.9,16817],[54.9,16883],[54.9,16950],[56.2,17017],[56.7,17084],[57.2,17151],[58.2,17217],[58.9,17284],[58.9,17350],[58.9,17417],[59.2,17484],[59.2,17551],[59.6,17617],[60.6,17684],[60.6,17751],[61,17817],[61,17884],[61,17951],[61,18018],[61,18085],[61,18151],[61,18218],[61,18285],[61,18351],[61,18418],[61,18485],[61,18552],[61,18619],[61,18685],[61,18752],[61,18819],[61,18885],[61,18952],[61,19019],[61,19086],[61,19152],[61,19219],[61,19286],[61,19353],[61,19419],[61,19486],[61,19553],[61,19619],[61,19686],[61,19753],[62.6,19819],[62.6,19886],[62.6,19953],[62.6,20020],[62.6,20087],[62.6,20153],[62.6,20220],[62.6,20287],[62.6,20353],[62.6,20420],[62.6,20487],[62.7,20554],[62.7,20620],[62.7,20687],[62.7,20754],[62.7,20821],[62.7,20887],[62.7,20954],[62.7,21021],[62.7,21087],[62.7,21154],[62.7,21221],[62.7,21288],[62.7,21354],[62.7,21421],[62.7,21488],[62.7,21555],[62.7,21621],[62.7,21688],[62.7,21755],[62.7,21822],[62.7,21888],[62.7,21955],[62.7,22022],[62.7,22088],[62.7,22155],[62.7,22222],[62.7,22289],[62.7,22355]]",1,0,342.9657,350.2734,50.83333969,1.9562,"[{""rating"":50.8333396911621,""responseTime"":1.9562000000029798}]",space,6.75,,350.2735,Definitely yes,100,350.2816,,,[],,0,3,3,3,1,audio/Narrative7Situation3.wav,audio/Narrative8Situation3.wav,audio/Narrative5Situation3.wav,audio/Narrative6Situation3.wav,8,4,3,5,,,,,,,,,,,,,,,,,,,,,,,,,,,,,,,,,,,,,
,,,,,,6609619feb79146b62811775,2024-05-13_10h30.48.733,group3.1-3.2-social-tom,2023.2.2,Win32,30.21148036,65c5074098b851296ff0b7ed,6642320cb618aaa09c6cbdf6,,,,,,,,,,,,,,,,,,,,,,,,,,,,,350.2818,1,audio/Narrative8Situation4.wav,353.3093,,353.3093,367.4903,"[[999,6],[999,66],[999,133],[999,200],[999,266],[999,333],[999,400],[999,467],[999,534],[999,600],[999,667],[999,733],[999,800],[999,867],[999,934],[999,1001],[999,1068],[999,1134],[999,1201],[999,1267],[999,1334],[999,1401],[999,1468],[999,1534],[999,1601],[999,1668],[999,1734],[999,1801],[999,1868],[999,1935],[999,2002],[999,2068],[999,2135],[999,2201],[999,2269],[999,2335],[999,2402],[999,2469],[999,2535],[999,2602],[44.9,2669],[45.1,2736],[45.2,2802],[45.3,2870],[45.4,2936],[45.5,3003],[45.5,3069],[45.5,3136],[45.5,3203],[45.5,3269],[45.5,3336],[45.5,3403],[45.5,3470],[45.5,3537],[45.5,3603],[45.5,3670],[45.5,3737],[45.5,3803],[45.5,3870],[45.5,3937],[45.5,4004],[45.5,4070],[45.5,4137],[45.5,4204],[45.5,4270],[45.5,4337],[45.5,4404],[45.5,4471],[45.5,4537],[45.5,4604],[45.5,4671],[45.5,4737],[45.5,4804],[45.5,4871],[45.5,4938],[45.5,5005],[45.5,5071],[45.5,5138],[45.5,5205],[45.5,5272],[45.5,5338],[45.5,5405],[45.5,5472],[45.5,5538],[45.5,5605],[45.5,5672],[45.5,5739],[45.5,5805],[45.5,5872],[45.5,5939],[45.5,6005],[45.5,6072],[45.5,6139],[45.5,6206],[45.5,6273],[45.5,6339],[45.5,6406],[45.5,6473],[45.5,6539],[45.5,6606],[45.5,6673],[45.5,6740],[45.5,6806],[45.5,6873],[45.5,6940],[45.5,7007],[45.5,7073],[45.5,7140],[45.5,7207],[52.3,7274],[57.7,7340],[59.5,7407],[59.5,7474],[59.5,7540],[61,7607],[70.1,7674],[72.4,7740],[72.4,7807],[72.4,7874],[77,7941],[82.5,8008],[82.5,8075],[84.7,8141],[95.6,8208],[98.6,8275],[98.6,8341],[98.6,8408],[98.6,8475],[98.6,8542],[98.6,8608],[98.6,8675],[98.6,8742],[98.6,8809],[98.6,8875],[98.6,8942],[98.6,9008],[98.6,9076],[98.6,9142],[98.6,9209],[98.6,9276],[98.6,9342],[98.6,9409],[98.6,9476],[98.6,9543],[98.6,9609],[98.6,9676],[98.6,9743],[98.8,9810],[98.8,9876],[98.8,9942],[98.8,10010],[95.8,10076],[95.2,11477],[95.4,11545],[95.4,11611],[95.4,11678],[95.4,11745],[95.5,11811],[95.9,11879],[97.6,11945],[97.6,12012],[97.6,12078],[98,12145],[99.4,12211],[99.6,12278],[99.6,12345],[99.6,12412],[99.6,12479],[99.6,12546],[99.6,12612],[99.6,12679],[99.6,12746],[99.6,12812],[99.6,12879],[99.6,12946],[99.6,13013],[99.6,13079],[99.6,13146],[99.6,13213],[99.6,13279],[99.6,13346],[99.6,13413],[99.6,13480],[99.6,13547],[99.6,13613],[99.6,13680],[99.6,13747],[99.6,13813],[99.6,13880],[99.6,13946],[99.6,14014],[99.6,14080],[99.6,14147]]",1,0,367.4905,374.4641,99.53125,2.5077,"[{""rating"":99.53125,""responseTime"":2.5076999999881195}]",space,6.3934,,374.4642,Definitely yes,100,374.4712,,,[],,0,4,4,4,1,audio/Narrative7Situation4.wav,audio/Narrative8Situation4.wav,audio/Narrative5Situation4.wav,audio/Narrative6Situation4.wav,3,3,1,2,,,,,,,,,,,,,,,,,,,,,,,,,,,,,,,,,,,,,
,,,,,,6609619feb79146b62811775,2024-05-13_10h30.48.733,group3.1-3.2-social-tom,2023.2.2,Win32,30.21148036,65c5074098b851296ff0b7ed,6642320cb618aaa09c6cbdf6,,,,,,,,,,,,,,,,,,,,,,,,,,,,,374.4713,1,audio/Narrative8Situation5.wav,376.4993,,376.4993,384.7748,"[[999,0],[999,66],[999,133],[999,200],[999,266],[999,333],[999,400],[999,467],[999,533],[999,600],[999,667],[999,733],[999,800],[999,867],[999,934],[999,1000],[999,1067],[999,1133],[999,1200],[999,1267],[999,1334],[999,1401],[999,1468],[999,1534],[999,1601],[88.7,1668],[83.4,1734],[83.3,1801],[83.3,1867],[83.6,1935],[83.6,2001],[83.6,2068],[83.6,2135],[83.6,2201],[83.6,2268],[83.6,2335],[83.6,2402],[83.6,2468],[83.6,2535],[83.6,2602],[83.6,2669],[83.6,2735],[85.5,2802],[86.5,2869],[87.5,2936],[89.4,3003],[89.7,3069],[91.9,3136],[92.7,3203],[93.8,3269],[93.8,3336],[94,3403],[94,3469],[95.2,3536],[98.1,3603],[98.6,3670],[98.6,3737],[98.6,3803],[98.6,3870],[98.6,3937],[98.6,4003],[98.6,4070],[98.6,4137],[98.6,4204],[98.6,4270],[98.6,4337],[98.6,4404],[98.6,4471],[98.6,4537],[98.6,4604],[98.6,4671],[98.6,4738],[98.6,4804],[98.6,4871],[98.6,4937],[98.6,5004],[98.6,5071],[98.6,5138],[98.6,5205],[98.6,5271],[98.6,5338],[98.6,5405],[98.6,5472],[98.6,5538],[98.6,5605],[98.6,5672],[98.6,5739],[98.6,5805],[98.6,5872],[98.6,5939],[98.6,6005],[98.6,6072],[98.6,6139],[98.6,6206],[98.6,6273],[98.6,6339],[98.6,6406],[98.6,6472],[98.6,6539],[98.6,6606],[98.6,6673],[98.6,6740],[98.6,6806],[98.6,6873],[98.6,6940],[98.6,7007],[98.6,7073],[98.6,7140],[98.6,7207],[98.6,7273],[98.6,7340],[98.6,7407],[98.6,7474],[98.6,7540],[98.6,7607],[98.6,7674],[98.6,7740],[98.6,7807],[98.6,7874],[98.6,7941],[98.6,8007],[98.6,8074],[98.6,8141],[98.6,8208],[98.6,8275]]",1,0,384.775,390.2463,98.69791985,0.1864,"[{""rating"":98.69791984558105,""responseTime"":0.18640000000596046}]",space,4.9,,390.2465,Not at all,0,390.254,,,[],,0,5,5,5,1,audio/Narrative7Situation5.wav,audio/Narrative8Situation5.wav,audio/Narrative5Situation5.wav,audio/Narrative6Situation5.wav,5,2,5,2,,,,,,,,,,,,,,,,,,,,,,,,,,,,,,,,,,,,,
,,,,,,6609619feb79146b62811775,2024-05-13_10h30.48.733,group3.1-3.2-social-tom,2023.2.2,Win32,30.21148036,65c5074098b851296ff0b7ed,6642320cb618aaa09c6cbdf6,,,,,,,,,,,,,,,,,,,,,,,,,,,,,390.2542,1,audio/Narrative8Situation6.wav,392.2816,,392.2816,398.788,"[[999,0],[999,66],[999,133],[999,199],[999,266],[999,333],[999,400],[999,466],[999,533],[999,600],[999,667],[999,734],[999,800],[999,867],[999,934],[999,1001],[999,1067],[999,1134],[999,1201],[999,1267],[999,1334],[999,1401],[999,1467],[999,1534],[999,1601],[999,1668],[999,1735],[999,1801],[999,1868],[999,1935],[999,2002],[999,2069],[999,2135],[999,2202],[999,2268],[999,2335],[999,2401],[999,2468],[999,2535],[999,2602],[999,2669],[999,2736],[999,2802],[999,2869],[999,2936],[999,3002],[999,3069],[999,3136],[999,3203],[999,3269],[999,3336],[999,3403],[999,3469],[999,3537],[999,3603],[999,3670],[999,3737],[999,3803],[999,3870],[999,3937],[999,4003],[999,4070],[999,4137],[999,4204],[999,4270],[999,4337],[999,4404],[999,4471],[999,4537],[999,4604],[999,4671],[999,4738],[999,4804],[999,4871],[999,4938],[999,5004],[999,5071],[999,5138],[999,5205],[999,5271],[999,5338],[999,5405],[999,5472],[999,5538],[999,5605],[52.6,5672],[52.6,5739],[52.6,5805],[52.6,5872],[52.6,5939],[52.6,6005],[52.6,6072],[52.6,6139],[52.6,6206],[52.6,6272],[52.6,6339],[52.6,6406],[52.6,6473]]",1,0,398.7883,412.569,19.16666985,10.5904,"[{""rating"":19.16666984558105,""responseTime"":10.590399999991064}]",space,13.2396,,412.569,Definitely yes,100,412.5718,,,[],,0,6,6,6,1,audio/Narrative7Situation6.wav,audio/Narrative8Situation6.wav,audio/Narrative5Situation6.wav,audio/Narrative6Situation6.wav,3,2,3,2,,,,,,,,,,,,,,,,,,,,,,,,,,,,,,,,,,,,,
,,,,,,6609619feb79146b62811775,2024-05-13_10h30.48.733,group3.1-3.2-social-tom,2023.2.2,Win32,30.21148036,65c5074098b851296ff0b7ed,6642320cb618aaa09c6cbdf6,,,,,,,,,,,,,,,,,,,,,,,,,,,,,412.5719,1,audio/Narrative8Situation7.wav,415.605,,415.605,427.7503,"[[999,6],[999,66],[999,133],[999,199],[999,266],[999,333],[999,399],[999,467],[999,533],[999,600],[999,666],[999,734],[999,800],[999,866],[999,934],[999,1000],[999,1067],[999,1134],[999,1200],[999,1267],[999,1334],[999,1401],[999,1467],[999,1534],[999,1601],[999,1667],[999,1734],[999,1801],[999,1868],[999,1934],[999,2002],[999,2068],[999,2135],[999,2202],[999,2268],[999,2335],[999,2402],[999,2468],[999,2535],[999,2602],[999,2668],[999,2735],[999,2802],[999,2869],[999,2936],[999,3002],[999,3069],[999,3136],[999,3202],[999,3269],[999,3336],[999,3403],[999,3469],[999,3536],[999,3603],[999,3670],[999,3736],[999,3803],[999,3870],[999,3936],[999,4003],[999,4070],[999,4137],[999,4203],[999,4270],[999,4337],[999,4403],[999,4471],[999,4537],[999,4604],[999,4671],[999,4737],[999,4804],[999,4871],[47.8,4938],[45.7,5004],[44,5071],[40.6,5138],[39.9,5205],[39.9,5271],[39.7,5338],[37.7,5405],[35.8,5471],[35.7,5538],[35.7,5605],[35.6,5671],[35.4,5738],[34.2,5805],[33.1,5872],[32.4,5939],[32.4,6005],[31,6072],[31,6139],[31,6206],[31,6272],[31,6339],[31,6406],[31,6472],[31,6539],[29.5,6606],[29.4,6673],[29.4,6740],[29.4,6806],[29.4,6872],[29.4,6940],[29.4,7006],[29.4,7073],[29.4,7140],[29.4,7206],[29.4,7273],[29.4,7340],[29.4,7407],[29.4,7473],[29.4,7540],[29.4,7607],[29.4,7674],[29.4,7741],[29.4,7807],[29.4,7874],[29.4,7941],[29.4,8007],[29.4,8074],[29.4,8141],[29.4,8208],[29.4,8274],[29.4,8341],[29.4,8407],[29.4,8475],[29.4,8541],[29.4,8608],[29.4,8675],[29.4,8741],[29.4,8808],[29.4,8875],[29.4,8942],[29.4,9008],[29.4,9075],[29.4,9142],[29.4,9209],[29.4,9275],[29.4,9342],[29.4,9409],[29.4,9476],[29.4,9542],[29.4,9609],[29.4,9676],[29.4,9742],[29.4,9809],[29.4,9876],[29.4,9943],[29.4,10010],[29.4,10076],[29.4,10143],[29.4,10210],[29.4,10276],[29.4,10343],[29.4,10410],[29.4,10476],[29.4,10543],[29.4,10610],[29.4,10677],[29.4,10743],[29.4,10810],[29.4,10877],[29.4,10944],[29.4,11010],[29.4,11077],[29.4,11144],[29.4,11210],[29.4,11277],[29.4,11344],[29.4,11411],[29.4,11477],[29.4,11544],[27.8,11611],[19,11677],[17.5,11745],[15.6,11811],[12.8,11878],[11.2,11944],[9.8,12011],[6.1,12078],[5.6,12145]]",1,0,427.7506,431.6208,3.75,2.8777,"[{""rating"":3.749999999999998,""responseTime"":2.8777000000029602}]",space,3.3096,,431.6209,Definitely yes,100,431.6225,,,[],,0,7,7,7,1,audio/Narrative7Situation7.wav,audio/Narrative8Situation7.wav,audio/Narrative5Situation7.wav,audio/Narrative6Situation7.wav,5,3,4,5,,,,,,,,,,,,,,,,,,,,,,,,,,,,,,,,,,,,,
,,,,,,6609619feb79146b62811775,2024-05-13_10h30.48.733,group3.1-3.2-social-tom,2023.2.2,Win32,30.21148036,65c5074098b851296ff0b7ed,6642320cb618aaa09c6cbdf6,,,,,,,,,,,,,,,,,,,,,,,,,,,,,431.6227,1,audio/Narrative8Situation8.wav,434.6237,,434.6238,447.5038,"[[6.9,11811],[8.1,11878],[8.1,11944],[9.6,12012],[14.7,12078],[23.8,12145],[23.8,12212],[25.9,12278],[36.7,12345],[48.8,12412],[51.1,12479],[51.1,12546],[56.6,12612],[57.5,12679],[57.5,12745],[57.5,12812],[57.5,12879]]",1,0,447.5039,455.178,61.14583969,4.4534,"[{""rating"":61.14583969116211,""responseTime"":4.453400000005956}]",space,7.1328,,455.178,Partially,50,455.1861,,,[],,0,8,8,8,1,audio/Narrative7Situation8.wav,audio/Narrative8Situation8.wav,audio/Narrative5Situation8.wav,audio/Narrative6Situation8.wav,2,3,3,5,,,,,,,,,,,,,,,,,,,,,,,,,,,,,,,,,,,,,
,,,,,,6609619feb79146b62811775,2024-05-13_10h30.48.733,group3.1-3.2-social-tom,2023.2.2,Win32,30.21148036,65c5074098b851296ff0b7ed,6642320cb618aaa09c6cbdf6,,,,,,,,,,,,,,,,,,,,,,,,,,,,,455.1863,1,audio/Narrative8Situation9.wav,458.2142,,458.2142,469.559,"[[69,10544],[69.7,10610],[71.9,10677],[79.8,10743],[82.7,10810],[87.4,10877],[94.8,10943],[97.3,11011],[97.3,11077],[97.3,11144],[98.1,11211],[100,11277],[100,11344]]",1,0,469.559,474.3971,86.82291985,4.2602,"[{""rating"":97.65625,""responseTime"":1.2232999999970389},{""rating"":86.82291984558105,""responseTime"":4.26020000000301}]",space,4.2937,,474.3972,Not at all,0,484.2731,0.9375,8.0443,"[{""rating"":0.9375000000000022,""responseTime"":8.044299999997065}]",space,0,9,9,9,1,audio/Narrative7Situation9.wav,audio/Narrative8Situation9.wav,audio/Narrative5Situation9.wav,audio/Narrative6Situation9.wav,2,3,3,4,,,9.2842,,,,,,,,,,,,,,,,,,,,,,,,,,,,,,,,,,
,,,,,,6609619feb79146b62811775,2024-05-13_10h30.48.733,group3.1-3.2-social-tom,2023.2.2,Win32,30.21148036,65c5074098b851296ff0b7ed,6642320cb618aaa09c6cbdf6,,,,,,,,,,,,,,,,,,,,,,,,,,,,,484.2735,1,audio/Narrative7Situation1.wav,486.2752,,486.2753,542.1646,"[[6.1,3203],[17.8,3269],[18.1,3336],[18.1,3403],[18.1,3470],[18.1,3536],[19.3,3603],[19.3,3670],[19.3,3737],[19.3,3803],[19.3,3870],[19.3,3937],[19.3,4004],[19.3,4070],[19.3,4137],[19.3,4204],[19.3,4271],[19.3,4337],[19.3,4404],[19.3,4471],[19.3,4537],[19.3,4604],[19.3,4671],[19.4,4738],[19.4,4804],[19.4,4871],[19.4,4938],[19.4,5004],[19.4,5072],[19.4,5138],[19.4,5205],[19.4,5271],[19.4,5338],[19.4,5405],[19.4,5472],[19.4,5538],[19.4,5605],[19.4,5672],[19.4,5738],[19.4,5806],[19.4,5872],[19.4,5939],[19.4,6006],[19.4,6072],[19.4,6139],[19.4,6206],[19.4,6273],[19.4,6340],[19.4,6406],[19.4,6473],[19.4,6540],[19.4,6606],[19.4,6673],[19.4,6740],[19.4,6806],[19.4,6873],[19.4,6940],[19.4,7006],[19.4,7074],[19.4,7140],[19.4,7207],[19.4,7274],[19.4,7340],[19.4,7407],[19.4,7474],[19.4,7540],[19.4,7607],[19.4,7674],[19.4,7740],[19.4,7807],[19.4,7874],[19.4,7941],[19.4,8007],[19.4,8074],[19.4,8141],[19.4,8207],[19.4,8275],[19.4,8341],[19.4,8408],[19.4,8475],[19.4,8541],[19.4,8608],[19.4,8675],[19.4,8742],[19.4,8808],[19.4,8875],[19.4,8942],[19.4,9009],[19.4,9075],[19.4,9142],[19.4,9209],[19.4,9276],[19.4,9342],[19.4,9408],[19.4,9476],[19.4,9543],[19.4,9609],[19.4,9676],[19.4,9743],[19.4,9810],[19.4,9876],[19.4,9943],[19.4,10009],[19.4,10076],[19.4,10143],[19.4,10210],[19.4,10276],[19.4,10343],[19.4,10410],[19.4,10477],[19.4,10543],[19.4,10610],[19.4,10677],[19.4,10744],[19.4,10810],[19.4,10877],[19.4,10944],[19.4,11011],[19.4,11077],[19.4,11144],[19.4,11211],[19.4,11277],[19.4,11344],[19.4,11410],[19.4,11477],[19.4,11544],[19.4,11611],[19.4,11678],[19.4,11744],[19.4,11811],[19.4,11878],[19.4,11945],[19.4,12012],[19.4,12078],[19.4,12145],[19.4,12212],[19.4,12278],[19.4,12345],[19.4,12412],[19.4,12478],[19.4,12545],[19.4,12612],[19.4,12679],[19.4,12746],[19.4,12812],[19.4,12879],[19.4,12946],[19.4,13012],[19.4,13079],[19.4,13146],[19.4,13213],[19.4,13279],[19.4,13346],[19.4,13413],[19.4,13479],[19.4,13547],[19.4,13613],[19.4,13680],[19.4,13747],[19.4,13813],[19.4,13880],[19.4,13946],[19.4,14014],[19.4,14080],[19.4,14147],[19.4,14214],[19.4,14281],[19.4,14347],[19.4,14414],[19.4,14481],[19.4,14547],[19.4,14614],[19.4,14681],[19.4,14747],[19.4,14815],[19.4,14881],[19.4,14948],[19.4,15014],[19.4,15081],[19.4,15148],[19.4,15215],[19.4,15281],[19.4,15348],[19.4,15415],[19.4,15482],[19.4,15548],[19.4,15615],[19.4,15682],[19.4,15749],[19.4,15815],[19.4,15882],[19.4,15949],[19.4,16016],[19.4,16082],[19.4,16149],[19.4,16216],[19.4,16282],[19.4,16349],[19.4,16416],[19.4,16483],[19.4,16549],[19.4,16616],[19.4,16683],[19.4,16750],[19.4,16816],[19.4,16883],[19.4,16950],[19.4,17017],[19.4,17084],[19.4,17150],[19.4,17216],[19.4,17283],[19.4,17350],[19.4,17417],[19.4,17484],[19.4,17550],[19.4,17617],[19.4,17684],[19.4,17750],[19.4,17817],[19.4,17884],[19.4,17950],[19.4,18018],[19.4,18084],[19.4,18151],[19.4,18217],[19.4,18284],[19.4,18351],[19.4,18418],[19.4,18485],[19.4,18551],[19.4,18618],[19.4,18685],[19.4,18751],[19.4,18818],[19.4,18885],[19.4,18952],[19.4,19018],[19.4,19085],[19.4,19152],[19.4,19219],[19.4,19286],[19.4,19352],[19.4,19419],[19.4,19486],[19.4,19552],[19.4,19619],[19.4,19686],[19.4,19753],[19.4,19819],[19.4,19886],[19.4,19953],[19.4,20020],[19.4,20086],[19.4,20153],[19.4,20220],[19.4,20286],[19.4,20353],[19.4,20420],[19.4,20487],[19.4,20553],[19.4,20620],[19.4,20687],[19.4,20753],[19.4,20820],[19.4,20887],[19.4,20954],[19.4,21020],[19.4,21087],[19.4,21154],[19.4,21220],[19.4,21288],[19.4,21354],[19.4,21421],[19.4,21488],[19.4,21554],[19.4,21621],[19.4,21687],[19.4,21754],[19.4,21822],[19.4,21888],[19.4,21955],[19.4,22021],[19.4,22088],[19.4,22155],[19.4,22222],[19.4,22289],[19.4,22355],[19.4,22422],[19.4,22489],[19.4,22556],[19.4,22622],[19.4,22689],[19.4,22755],[19.4,22822],[19.4,22889],[19.4,22956],[19.4,23022],[19.4,23089],[19.4,23156],[19.4,23223],[19.4,23289],[19.4,23356],[19.4,23423],[19.4,23489],[19.4,23556],[19.4,23623],[19.4,23690],[19.4,23756],[19.4,23823],[19.4,23890],[19.4,23957],[19.4,24023],[19.4,24090],[19.4,24157],[19.4,24224],[19.4,24290],[19.4,24357],[19.4,24424],[19.4,24491],[19.4,24557],[19.4,24624],[19.4,24691],[19.4,24758],[19.4,24824],[19.4,24891],[19.4,24958],[19.4,25024],[19.4,25091],[19.4,25158],[19.4,25225],[19.4,25291],[19.4,25358],[19.4,25425],[19.4,25492],[19.4,25558],[19.4,25625],[19.4,25692],[19.4,25758],[19.4,25825],[19.4,25892],[19.4,25959],[19.4,26025],[19.4,26092],[19.4,26158],[19.4,26226],[19.4,26292],[19.4,26359],[19.4,26426],[19.4,26493],[19.4,26559],[19.4,26626],[19.4,26693],[19.4,26759],[19.4,26826],[19.4,26893],[19.4,26960],[19.4,27027],[19.4,27093],[19.4,27160],[19.4,27227],[19.4,27293],[19.4,27360],[19.4,27427],[19.4,27494],[19.4,27560],[19.4,27627],[19.4,27694],[19.4,27760],[19.4,27827],[19.4,27894],[19.4,27961],[19.4,28027],[19.4,28094],[19.4,28161],[19.4,28228],[19.4,28294],[19.4,28361],[19.4,28428],[19.4,28495],[19.4,28561],[19.4,28628],[19.4,28695],[19.4,28761],[19.4,28829],[19.4,28895],[19.4,28961],[19.4,29028],[19.4,29095],[19.4,29162],[19.4,29229],[19.4,29295],[19.4,29362],[19.4,29429],[19.4,29495],[19.4,29562],[19.4,29629],[19.4,29696],[19.4,29763],[19.4,29829],[19.4,29896],[19.4,29963],[19.4,30030],[19.4,30096],[19.4,30163],[19.4,30230],[19.4,30296],[19.4,30363],[19.4,30430],[19.4,30496],[19.4,30563],[19.4,30630],[19.4,30697],[19.4,30763],[19.4,30830],[19.4,30897],[19.4,30964],[19.4,31031],[19.4,31097],[19.4,31164],[19.4,31231],[19.4,31298],[19.4,31364],[19.4,31431],[19.4,31498],[19.4,31564],[19.4,31631],[19.4,31698],[19.4,31764],[19.4,31831],[19.4,31898],[19.4,31965],[19.4,32031],[19.4,32098],[19.4,32165],[19.4,32232],[19.4,32299],[19.4,32365],[19.4,32432],[19.4,32498],[19.4,32565],[19.4,32632],[19.4,32699],[19.4,32765],[19.4,32832],[19.4,32899],[19.4,32966],[19.4,33033],[19.4,33099],[19.4,33166],[19.4,33233],[19.4,33299],[19.4,33366],[19.4,33433],[19.4,33500],[19.4,33566],[19.4,33633],[19.4,33700],[19.4,33766],[19.4,33833],[19.4,33900],[19.4,33967],[19.4,34033],[19.4,34100],[19.4,34167],[19.4,34234],[19.4,34300],[19.4,34367],[19.4,34434],[19.4,34501],[19.4,34567],[19.4,34634],[19.4,34701],[19.4,34768],[19.4,34834],[19.4,34901],[19.4,34967],[19.4,35035],[19.4,35101],[19.4,35168],[19.4,35235],[19.4,35301],[19.4,35368],[19.4,35435],[19.4,35502],[19.4,35568],[19.4,35635],[19.4,35702],[19.4,35768],[19.4,35835],[19.4,35902],[19.4,35969],[19.4,36035],[19.4,36102],[19.4,36168],[19.4,36236],[19.4,36302],[19.4,36369],[19.4,36436],[19.4,36503],[19.4,36569],[19.4,36636],[19.4,36702],[19.4,36769],[19.4,36836],[19.4,36903],[19.4,36970],[19.4,37036],[19.4,37103],[19.4,37170],[19.4,37237],[19.4,37304],[19.4,37370],[19.4,37437],[19.4,37503],[19.4,37570],[19.4,37637],[19.4,37704],[19.4,37770],[19.4,37837],[19.4,37904],[19.4,37971],[19.4,38037],[19.4,38104],[19.4,38171],[19.4,38238],[19.4,38304],[19.4,38371],[19.4,38438],[19.4,38504],[19.4,38571],[19.4,38638],[19.4,38705],[19.4,38772],[19.4,38838],[19.4,38905],[19.4,38972],[19.4,39038],[19.4,39105],[19.4,39172],[19.4,39239],[19.4,39305],[19.4,39372],[19.4,39438],[19.4,39505],[19.4,39572],[19.4,39639],[19.4,39706],[19.4,39772],[19.4,39839],[19.4,39906],[19.4,39973],[19.4,40039],[19.4,40106],[19.4,40173],[19.4,40240],[19.4,40306],[19.4,40373],[19.4,40440],[19.4,40507],[21.4,40574],[24.1,40640],[26.5,40706],[27.3,40773],[28.3,40840],[28.8,40907],[32,40974],[41.9,41041],[41.9,41107],[41.9,41174],[41.9,41241],[42.8,41308],[45.3,41374],[45.5,41441],[45.5,41507],[45.5,41574],[46.4,41641],[47.7,41708],[48.4,41775],[50.3,41841],[51.5,41908],[51.5,41975],[51.5,42041],[51.5,42108],[51.5,42175],[51.5,42241],[51.5,42308],[51.5,42375],[51.6,42442],[51.6,42509],[51.6,42575],[51.6,42642],[51.6,42709],[51.6,42776],[51.6,42842],[52.2,42909],[69.8,42976],[70,43042],[70,43109],[72.9,43176],[84.1,43243],[85.3,43310],[85.3,43376],[86.4,43443],[90.1,43509],[91,43576],[91.5,43643],[93.8,43710],[95.2,43777],[95.4,43843],[95.8,43910],[96,43976],[96.1,44044],[96.3,44110],[98.3,44177],[98.5,44244],[99.3,44311],[100,44377],[100,44444],[100,44511],[100,44577],[100,44644],[100,44711],[100,44778],[100,44844],[100,44911],[100,44978],[100,45044],[100,45111],[100,45178],[100,45245],[100,45311],[100,45378],[100,45445],[100,45512],[100,45579],[100,45645],[100,45712],[100,45779],[100,45845],[100,45912],[100,45979],[100,46045],[100,46112],[100,46179],[100,46246],[100,46312],[100,46379],[100,46446],[100,46512],[100,46579],[100,46646],[100,46713],[100,46779],[100,46846],[100,46913],[100,46980],[100,47046],[100,47113],[100,47180],[100,47247],[100,47313],[100,47380],[100,47447],[100,47514],[100,47580],[100,47647],[100,47714],[100,47780],[100,47847],[100,47914],[100,47981],[100,48048],[100,48114],[100,48181],[100,48248],[100,48314],[100,48381],[100,48448],[100,48515],[100,48581],[100,48648],[100,48715],[100,48781],[100,48848],[100,48915],[100,48982],[100,49049],[100,49115],[100,49182],[100,49248],[100,49315],[100,49382],[100,49449],[100,49515],[100,49582],[100,49649],[100,49716],[100,49782],[100,49849],[100,49916],[100,49983],[100,50050],[100,50116],[100,50183],[100,50250],[100,50316],[100,50383],[100,50450],[100,50517],[100,50583],[100,50650],[100,50717],[100,50783],[100,50850],[100,50917],[100,50984],[100,51050],[100,51117],[100,51184],[100,51251],[100,51318],[100,51384],[100,51451],[100,51518],[100,51584],[100,51651],[100,51717],[100,51785],[100,51851],[100,51918],[100,51984],[100,52051],[100,52118],[100,52185],[100,52252],[100,52318],[100,52385],[100,52452],[100,52518],[100,52585],[100,52652],[100,52719],[100,52785],[100,52852],[100,52919],[100,52986],[100,53052],[100,53119],[100,53186],[100,53253],[100,53320],[100,53386],[100,53453],[100,53519],[100,53586],[100,53653],[100,53720],[100,53786],[100,53853],[100,53920],[100,53987],[100,54053],[100,54120],[100,54187],[100,54254],[100,54320],[100,54387],[100,54454],[100,54521],[100,54587],[100,54654],[100,54721],[100,54788],[100,54854],[100,54921],[100,54988],[100,55054],[100,55121],[100,55188],[100,55255],[100,55321],[100,55388],[100,55455],[100,55522],[100,55588],[100,55655],[100,55722],[100,55788],[100,55855]]",1,0,542.165,551.7409,99.375,8.0662,"[{""rating"":99.375,""responseTime"":8.06620000000305}]",space,8.9973,,551.741,Not at all,0,551.7426,,,[],,0,10,10,10,1,audio/Narrative8Situation1.wav,audio/Narrative7Situation1.wav,audio/Narrative6Situation1.wav,audio/Narrative5Situation1.wav,5,2,2,5,,,,,,,,,,,,,,,,,,,,,,,,,,,,,,,,,,,,,
,,,,,,6609619feb79146b62811775,2024-05-13_10h30.48.733,group3.1-3.2-social-tom,2023.2.2,Win32,30.21148036,65c5074098b851296ff0b7ed,6642320cb618aaa09c6cbdf6,,,,,,,,,,,,,,,,,,,,,,,,,,,,,551.7428,1,audio/Narrative7Situation2.wav,554.7439,,554.7439,562.2513,"[[55.3,5071],[63,5138],[64.1,5204],[64.4,5272],[66.6,5338],[66.8,5404],[66.8,5471],[66.8,5538],[66.8,5605],[66.8,5672],[66.8,5738],[67.3,5805],[69.4,5872],[70,5939],[70,6005],[70,6072],[70,6139],[70,6206],[70,6272],[70,6339],[70,6406],[70,6472],[70,6539],[70,6606],[70,6673],[70,6739],[70,6806],[70,6873],[70,6940],[70,7006],[70,7073],[70,7140],[72.7,7207],[73.2,7273],[74.7,7340],[75,7407],[75.9,7473]]",1,0,562.2514,566.0549,99.63541985,2.9395,"[{""rating"":99.63541984558105,""responseTime"":2.9395000000000664}]",space,3.2409,,566.0549,Definitely yes,100,566.057,,,[],,0,11,11,11,1,audio/Narrative8Situation2.wav,audio/Narrative7Situation2.wav,audio/Narrative6Situation2.wav,audio/Narrative5Situation2.wav,3,3,3,3,,,,,,,,,,,,,,,,,,,,,,,,,,,,,,,,,,,,,
,,,,,,6609619feb79146b62811775,2024-05-13_10h30.48.733,group3.1-3.2-social-tom,2023.2.2,Win32,30.21148036,65c5074098b851296ff0b7ed,6642320cb618aaa09c6cbdf6,,,,,,,,,,,,,,,,,,,,,,,,,,,,,566.0572,1,audio/Narrative7Situation3.wav,574.0632,,574.0632,583.3391,"[[71.9,1134],[71.8,1201],[71.2,1268],[70.2,1334],[68.8,1400],[68.2,1467],[68.2,1534],[68.2,1601],[68.2,1668],[68.2,1734],[68.2,1801],[68.2,1868],[68.2,1934],[68.2,2001],[68.2,2068],[68.2,2135],[68.2,2201],[68.2,2268],[68.2,2335],[68.2,2402],[68.2,2468],[68.2,2535],[68.2,2602],[68.1,2669],[66.9,2735],[66.9,2802],[57.4,2869],[57.4,2935],[57.4,3002],[57.4,3069],[57.4,3136],[57.4,3202],[57.4,3269],[57.4,3336],[55.3,3402],[53,3469],[51.8,3536],[51.8,3603],[51.8,3669],[51.8,3736],[51.8,3803],[51.8,3870],[51.8,3936],[51.8,4003],[51.8,4070],[51.8,4137],[51.6,4204],[51.6,4270],[51.6,4337],[51.6,4403],[51.6,4471],[51.6,4537],[51.6,4604],[51.6,4671],[51.6,4737],[51.6,4804],[51.6,4871],[51.6,4937],[51.6,5004],[51.6,5071],[51.6,5138],[51.6,5204],[51.6,5271],[51.6,5338],[51.6,5405],[51.6,5472],[51.6,5538],[51.6,5605],[51.6,5671],[51.6,5738],[51.6,5805],[51.6,5872],[51.6,5938],[51.6,6005],[51.6,6072],[51.6,6139],[51.6,6206],[51.6,6272],[51.6,6339],[51.6,6405],[51.6,6473],[51.6,6539],[51.6,6606],[51.6,6673],[51.6,6739],[51.6,6806],[51.6,6873],[51.6,6940],[51.6,7006],[51.6,7073],[51.6,7140],[51.6,7206],[51.6,7273],[51.6,7340],[51.6,7407],[51.6,7473],[51.6,7540],[47.3,7607],[39.2,7673],[36.1,7740],[32.3,7807],[30.4,7874],[29.4,7941],[28.9,8007],[26.9,8074],[24.4,8141],[23.4,8207],[23.3,8274],[23.3,8341],[23.3,8408],[23.3,8474],[23.3,8541],[23.3,8608],[23.3,8674],[23.3,8741],[23.3,8808],[23.3,8875],[23.3,8942],[23.3,9008],[23.3,9075],[22.3,9142],[21,9208],[17.8,9275]]",1,0,583.3393,587.4093,1.25,2.0298,"[{""rating"":1.250000000000001,""responseTime"":2.0297999999969534}]",space,3.521,,587.4093,Partially,50,587.4121,,,[],,0,12,12,12,1,audio/Narrative8Situation3.wav,audio/Narrative7Situation3.wav,audio/Narrative6Situation3.wav,audio/Narrative5Situation3.wav,4,8,5,3,,,,,,,,,,,,,,,,,,,,,,,,,,,,,,,,,,,,,
,,,,,,6609619feb79146b62811775,2024-05-13_10h30.48.733,group3.1-3.2-social-tom,2023.2.2,Win32,30.21148036,65c5074098b851296ff0b7ed,6642320cb618aaa09c6cbdf6,,,,,,,,,,,,,,,,,,,,,,,,,,,,,587.4122,1,audio/Narrative7Situation4.wav,590.4125,,590.4125,602.1578,"[[3.1,6406],[4.2,6473],[4.2,6540],[4.2,6606],[4.2,6673],[4.2,6740],[4.2,6806],[4.2,6873],[4.2,6940],[4.2,7007],[4.2,7073],[4.2,7140],[4.2,7207],[4.2,7273],[4.2,7340],[4.2,7407],[4.2,7474],[4.2,7540],[4.2,7607],[4.2,7674],[4.2,7740],[4.2,7807],[4.2,7874],[4.2,7941],[4.2,8008],[4.2,8074],[4.2,8141],[4.2,8207],[4.2,8275],[4.2,8341],[4.2,8408],[4.2,8474],[4.2,8541],[4.2,8608],[4.2,8675],[4.2,8742],[4.2,8808],[4.2,8875],[4.2,8942],[4.2,9009],[4.2,9075],[4.2,9142],[4.2,9209],[4.2,9276],[4.2,9343],[4.2,9409],[4.2,9476],[4.2,9542],[4.2,9609],[4.2,9676],[4.2,9743],[4.2,9809],[4.2,9876],[4.2,9943],[4.2,10009],[4.2,10076],[4.2,10143],[4.2,10209],[4.2,10277],[4.2,10343],[4.2,10410],[4.2,10476],[4.2,10544],[4.2,10610],[4.2,10677],[4.2,10744],[4.2,10810],[4.2,10877],[4.2,10944],[4.2,11011],[4.2,11077],[4.2,11144],[4.2,11211],[4.2,11278],[4.2,11344],[4.2,11411],[4.2,11478],[4.2,11544],[4.2,11611],[4.2,11678],[2.2,11745]]",1,0,602.1579,605.3944,0.364584923,1.3654,"[{""rating"":0.36458492279052845,""responseTime"":1.3653999999910411}]",space,2.6863,,605.3945,Definitely yes,100,605.3971,,,[],,0,13,13,13,1,audio/Narrative8Situation4.wav,audio/Narrative7Situation4.wav,audio/Narrative6Situation4.wav,audio/Narrative5Situation4.wav,3,3,2,1,,,,,,,,,,,,,,,,,,,,,,,,,,,,,,,,,,,,,
,,,,,,6609619feb79146b62811775,2024-05-13_10h30.48.733,group3.1-3.2-social-tom,2023.2.2,Win32,30.21148036,65c5074098b851296ff0b7ed,6642320cb618aaa09c6cbdf6,,,,,,,,,,,,,,,,,,,,,,,,,,,,,605.3972,1,audio/Narrative7Situation5.wav,610.3992,,610.3993,618.9412,[],1,0,618.9413,624.0463,1.927084923,4.2819,"[{""rating"":1.9270849227905285,""responseTime"":4.281899999990969}]",space,4.5586,,624.0464,Not at all,0,624.0483,,,[],,0,14,14,14,1,audio/Narrative8Situation5.wav,audio/Narrative7Situation5.wav,audio/Narrative6Situation5.wav,audio/Narrative5Situation5.wav,2,5,2,5,,,,,,,,,,,,,,,,,,,,,,,,,,,,,,,,,,,,,
,,,,,,6609619feb79146b62811775,2024-05-13_10h30.48.733,group3.1-3.2-social-tom,2023.2.2,Win32,30.21148036,65c5074098b851296ff0b7ed,6642320cb618aaa09c6cbdf6,,,,,,,,,,,,,,,,,,,,,,,,,,,,,624.0485,1,audio/Narrative7Situation6.wav,627.0494,,627.0495,637.0592,"[[6.5,2468],[23,2535],[23.4,2602],[25.8,2669],[30.9,2735],[45.8,2802],[45.8,2869],[47.8,2936],[53.9,3002],[57.5,3069],[57.5,3136],[57.5,3202],[57.5,3269],[57.5,3336],[57.5,3403],[57.5,3469],[57.5,3536],[57.5,3603],[57.5,3669],[57.5,3736],[57.5,3803],[57.5,3870],[57.5,3936],[57.5,4003],[57.5,4070],[57.5,4137],[57.5,4203],[57.5,4270],[57.5,4337],[57.5,4403],[57.5,4470],[57.5,4537],[57.5,4604],[57.5,4670],[57.5,4737],[57.5,4804],[57.5,4870],[57.5,4937],[57.5,5004],[57.5,5071],[57.5,5138],[57.5,5204],[57.5,5271],[57.5,5338],[57.5,5405],[57.5,5471],[57.5,5538],[57.5,5605],[57.5,5672],[57.5,5738],[57.5,5805],[57.5,5871],[57.5,5938],[57.5,6005],[57.5,6071],[57.5,6139],[57.5,6205],[57.5,6272],[57.5,6339],[57.5,6405],[57.5,6472],[57.5,6539],[57.5,6606],[57.5,6673],[57.5,6739],[57.5,6806],[57.5,6873],[57.5,6939],[57.5,7006],[57.5,7073],[57.5,7139],[57.5,7206],[57.5,7273],[57.5,7340],[57.5,7406],[57.5,7473],[57.5,7540],[57.5,7607],[57.5,7673],[57.5,7740],[57.5,7807],[57.5,7874],[57.5,7940],[57.5,8007],[57.5,8074],[57.5,8141],[57.5,8207],[57.5,8274],[57.5,8341],[57.5,8408],[57.5,8475],[57.5,8541],[57.5,8608],[57.5,8674],[57.5,8741],[57.5,8808],[57.5,8875],[57.5,8941],[57.5,9008],[57.5,9075],[57.5,9142],[57.5,9208],[57.5,9275],[57.5,9342],[57.5,9409],[57.2,9476],[57.2,9542],[57.2,9609],[57.2,9675],[57.2,9742],[57.2,9809],[57.2,9876],[57.2,9942],[66,10009]]",1,0,637.0593,639.9287,98.75,1.7241,"[{""rating"":98.75,""responseTime"":1.7240999999939959}]",space,2.3288,,639.9288,Definitely yes,100,639.9307,,,[],,0,15,15,15,1,audio/Narrative8Situation6.wav,audio/Narrative7Situation6.wav,audio/Narrative6Situation6.wav,audio/Narrative5Situation6.wav,2,3,2,3,,,,,,,,,,,,,,,,,,,,,,,,,,,,,,,,,,,,,
,,,,,,6609619feb79146b62811775,2024-05-13_10h30.48.733,group3.1-3.2-social-tom,2023.2.2,Win32,30.21148036,65c5074098b851296ff0b7ed,6642320cb618aaa09c6cbdf6,,,,,,,,,,,,,,,,,,,,,,,,,,,,,639.9309,1,audio/Narrative7Situation7.wav,644.9339,,644.934,662.1511,"[[91,14747],[89.5,14814],[89.5,14881],[89.5,14947],[89.5,15014],[91.1,15081],[95.7,15147],[98.1,15214],[98.1,15281],[98.1,15348],[98.3,15415],[99.4,15481],[99.6,15549],[99.6,15615],[99.6,15681],[99.6,15748],[99.6,15815],[99.6,15882],[99.6,15948],[99.7,16015],[99.7,16082],[99.7,16148],[99.7,16215],[99.7,16282],[99.7,16349],[99.7,16415],[99.7,16482],[99.7,16549],[99.7,16615],[99.7,16683],[99.7,16749],[99.7,16816],[99.7,16882],[99.7,16949],[99.7,17016],[99.7,17083],[99.7,17149],[99.7,17216]]",1,0,662.1514,665.6545,98.75,2.6155,"[{""rating"":98.75,""responseTime"":2.6154999999999973}]",space,2.9041,,665.6546,Definitely yes,100,665.6562,,,[],,0,16,16,16,1,audio/Narrative8Situation7.wav,audio/Narrative7Situation7.wav,audio/Narrative6Situation7.wav,audio/Narrative5Situation7.wav,3,5,5,4,,,,,,,,,,,,,,,,,,,,,,,,,,,,,,,,,,,,,
,,,,,,6609619feb79146b62811775,2024-05-13_10h30.48.733,group3.1-3.2-social-tom,2023.2.2,Win32,30.21148036,65c5074098b851296ff0b7ed,6642320cb618aaa09c6cbdf6,,,,,,,,,,,,,,,,,,,,,,,,,,,,,665.6563,1,audio/Narrative7Situation8.wav,667.6565,,667.6566,677.7327,"[[97.4,1534],[97.3,1601],[97.3,1668],[97.3,1734],[97.3,1801],[97.3,1868],[97.3,1934],[97.3,2001],[97.3,2068],[97.3,2134],[97.3,2201],[97.3,2268],[97.3,2335],[97.3,2402],[97.3,2468],[97.3,2535],[97.3,2601],[97.3,2668],[97.3,2735],[97.3,2802],[97.3,2869],[97.3,2935],[97.3,3002],[97.3,3069],[97.3,3136],[97.3,3202],[97.3,3269],[97.3,3336],[97.3,3403],[97.3,3469],[97.3,3536],[97.3,3603],[97.3,3669],[97.3,3736],[97.3,3803],[97.3,3870],[97.3,3937],[97.3,4003],[97.3,4070],[97.3,4136],[97.3,4203],[97.3,4270],[97.3,4337],[97.3,4403],[97.3,4471],[97.3,4537],[97.3,4604],[97.3,4670],[97.3,4737],[97.3,4804],[97.3,4871],[97.3,4938],[97.3,5004],[97.3,5071],[97.3,5138],[97.3,5204],[97.3,5271],[97.3,5337],[97.3,5405],[97.3,5471],[97.3,5538],[97.3,5605],[97.3,5671],[97.3,5739],[97.3,5805],[97.3,5872],[97.3,5938],[97.3,6005],[97.3,6072],[97.3,6138],[97.3,6206],[97.3,6272],[97.3,6339],[97.3,6405],[97.3,6472],[97.3,6539],[97.3,6606],[97.3,6673],[97.3,6739],[97.3,6805],[97.3,6873],[97.3,6939],[97.3,7006],[97.3,7073],[97.3,7140],[97.3,7206],[97.3,7273],[97.3,7340],[97.3,7407],[97.3,7473],[97.3,7540],[97.3,7607],[97.3,7673],[97.3,7740],[97.3,7807],[97.3,7874],[97.3,7940],[97.3,8007],[97.3,8074],[97.3,8140],[97.3,8207],[97.3,8274],[97.3,8341],[97.3,8407],[97.3,8474],[97.3,8541],[97.3,8608],[97.3,8674],[97.3,8741],[97.3,8808],[95.1,8875],[95.1,8941],[95.1,9008],[95.1,9075],[95.1,9142],[95.1,9208],[95.1,9275],[95.1,9342],[95.1,9409],[95.1,9475],[95.1,9542],[95.1,9609],[95.1,9675],[95.1,9742],[95.1,9809],[95.1,9876],[95.1,9942],[95.1,10009],[95.1,10076]]",1,0,677.7327,687.7765,81.66666985,8.2567,"[{""rating"":81.66666984558105,""responseTime"":8.25670000000298}]",space,9.4786,,687.7765,Partially,50,687.779,,,[],,0,17,17,17,1,audio/Narrative8Situation8.wav,audio/Narrative7Situation8.wav,audio/Narrative6Situation8.wav,audio/Narrative5Situation8.wav,3,2,5,3,,,,,,,,,,,,,,,,,,,,,,,,,,,,,,,,,,,,,
,,,,,,6609619feb79146b62811775,2024-05-13_10h30.48.733,group3.1-3.2-social-tom,2023.2.2,Win32,30.21148036,65c5074098b851296ff0b7ed,6642320cb618aaa09c6cbdf6,,,,,,,,,,,,,,,,,,,,,,,,,,,,,687.7791,1,audio/Narrative7Situation9.wav,689.8121,,689.8122,698.4872,"[[83.5,3135],[87.1,3202],[88.8,3269],[91.1,3336],[93,3402],[96.1,3469],[96.1,3536],[96.1,3603],[96.1,3669],[96.1,3736],[96.1,3802],[96.1,3870],[96.1,3936],[96.1,4003],[96.6,4070],[97.5,4136],[97.7,4203],[98,4270],[98.8,4337],[98.8,4403],[98.8,4470],[98.8,4537],[98.8,4603],[98.8,4670],[98.8,4737],[98.8,4804],[98.8,4871],[98.8,4937],[98.8,5004],[98.8,5071],[98.8,5137],[98.8,5204],[98.8,5271],[98.8,5337],[98.8,5404],[98.8,5471],[98.8,5538],[98.8,5605],[98.8,5671],[98.8,5738],[98.8,5805],[98.8,5872],[98.8,5938],[98.8,6005],[98.8,6072],[98.8,6138],[98.8,6205],[98.8,6272],[98.8,6339],[98.8,6406],[98.8,6472],[98.8,6539],[98.8,6605],[98.8,6673],[98.8,6739],[98.8,6806],[98.8,6872],[98.8,6939],[98.8,7006],[98.8,7073],[98.8,7140],[98.8,7206],[98.8,7273],[98.8,7340],[98.8,7407],[98.8,7473],[98.8,7540],[98.8,7607],[98.8,7673],[98.8,7740],[98.8,7807],[98.8,7873],[98.8,7940],[98.8,8007],[98.8,8074],[98.8,8140],[98.8,8207],[98.8,8274],[98.8,8341],[98.8,8408],[98.8,8474],[98.8,8541],[98.8,8607],[98.8,8674]]",1,0,698.4874,701.6235,98.90625,2.3199,"[{""rating"":98.90625,""responseTime"":2.319900000005873}]",space,2.5973,,701.6236,Not at all,0,701.6262,,,[],,0,18,18,18,1,audio/Narrative8Situation9.wav,audio/Narrative7Situation9.wav,audio/Narrative6Situation9.wav,audio/Narrative5Situation9.wav,3,2,4,3,,,,,,,,,,,,,,,,,,,,,,,,,,,,,,,,,,,,,
,,,,,,6609619feb79146b62811775,2024-05-13_10h30.48.733,group3.1-3.2-social-tom,2023.2.2,Win32,30.21148036,65c5074098b851296ff0b7ed,6642320cb618aaa09c6cbdf6,,,,,,,,,,,,,,,,,,,,,,,,,,,707.5028,710.0653,710.0785,2,audio/Narrative13Situation2.wav,710.0786,,710.0786,739.8619,"[[96.2,987],[95.2,1721],[95.2,1788],[95.2,1855],[95.2,1921],[95.2,1988],[95.2,2055],[95.2,2122],[95.2,2188],[95.2,2255],[95.2,2322],[95.2,2389],[95.2,2456],[95.2,2522],[95.2,2589],[95.2,2655],[95.2,2722],[95.2,2789],[95.2,2856],[95.2,2923],[95.2,2989],[95.2,3056],[95.2,3123],[95.2,3189],[95.2,3256],[95.2,3323],[95.2,3390],[95.2,3456],[95.2,3523],[95.2,3590],[95.2,3657],[95.2,3723],[95.2,3790],[95.2,3857],[95.2,3923],[95.2,3990],[95.2,4057],[95.2,4124],[95.2,4190],[95.2,4257],[93.7,4324],[93.7,4390],[93.7,4457],[93.7,4524],[93.7,4591],[93.2,4657],[92,4724],[91.8,4791],[91.8,4858],[91.8,4924],[91.8,4991],[91.8,5058],[91.8,5125],[91.8,5191],[91.8,5258],[91.8,5325],[91.8,5392],[91.8,5458],[91.8,5525],[91.8,5592],[91.8,5659],[91.8,5725],[91.8,5792],[91.8,5859],[91.8,5925],[91.8,5992],[91.8,6059],[91.8,6126],[91.8,6192],[91.8,6259],[91.8,6326],[91.8,6392],[91.8,6459],[91.8,6526],[91.8,6593],[91.8,6659],[91.8,6726],[91.8,6793],[91.8,6860],[91.8,6927],[91.8,6993],[91.8,7060],[91.8,7126],[91.8,7193],[91.8,7260],[91.8,7327],[91.8,7394],[91.8,7460],[91.8,7527],[91.8,7593],[91.8,7660],[91.8,7727],[91.8,7794],[91.8,7861],[91.8,7928],[91.8,7994],[91.8,8060],[91.8,8128],[91.8,8194],[91.8,8261],[91.8,8328],[91.8,8394],[91.8,8461],[91.8,8528],[91.8,8595],[91.8,8661],[91.8,8728],[91.8,8795],[91.8,8861],[91.8,8928],[91.8,8995],[91.8,9062],[91.8,9128],[91.8,9195],[91.8,9262],[91.8,9328],[91.8,9396],[91.8,9462],[91.8,9529],[91.8,9596],[91.8,9663],[91.8,9729],[91.8,9796],[91.8,9863],[91.8,9930],[91.8,9996],[91.8,10063],[91.8,10130],[91.8,10196],[91.8,10263],[91.8,10330],[91.8,10396],[91.8,10464],[91.8,10530],[91.8,10597],[91.8,10663],[91.8,10730],[91.8,10797],[91.8,10863],[91.8,10930],[91.8,10997],[91.8,11064],[91.8,11131],[91.8,11197],[91.8,11264],[91.8,11331],[91.8,11398],[91.8,11465],[91.8,11531],[91.8,11598],[91.8,11664],[91.8,11731],[91.8,11798],[91.8,11865],[91.8,11931],[91.8,11998],[91.8,12065],[91.8,12131],[91.8,12198],[91.8,12265],[91.8,12332],[91.8,12399],[91.8,12465],[91.8,12532],[91.8,12599],[91.8,12665],[91.8,12732],[94.6,12799],[94.9,12865],[94.9,12932],[94.9,12999],[96.1,13066],[96.3,13132],[96.7,13199],[97.8,13266],[98.9,13332],[99.7,13399],[99.7,13466],[99.7,13533],[99.7,13600],[99.7,13666],[99.7,13733],[99.7,13800],[99.7,13867],[99.7,13934],[99.7,14000],[99.7,14067],[99.7,14133],[99.7,14200],[99.7,14267],[99.7,14334],[99.7,14400],[99.7,14468],[99.7,14534],[99.7,14601],[99.7,14667],[99.7,14734],[99.7,14801],[99.7,14868],[99.7,14934],[99.7,15001],[99.7,15068],[99.7,15135],[99.7,15202],[99.7,15268],[99.7,15335],[99.7,15402],[99.7,15468],[99.7,15535],[99.7,15602],[99.7,15668],[99.7,15735],[99.7,15802],[99.7,15868],[99.7,15935],[99.7,16002],[99.7,16069],[99.7,16135],[99.7,16202],[99.7,16269],[99.7,16336],[99.7,16403],[99.7,16469],[99.7,16536],[99.7,16603],[99.7,16670],[99.7,16736],[99.7,16803],[99.7,16870],[99.7,16936],[99.7,17003],[99.7,17070],[99.7,17137],[99.7,17203],[99.7,17270],[99.7,17336],[99.7,17404],[99.7,17470],[99.7,17537],[99.7,17604],[99.7,17670],[99.7,17737],[99.7,17804],[99.7,17871],[99.7,17938],[99.7,18004],[99.7,18071],[99.7,18138],[99.7,18204],[99.7,18271],[99.7,18338],[99.7,18404],[99.7,18471],[99.7,18538],[99.7,18605],[99.7,18672],[99.7,18738],[99.7,18805],[99.7,18871],[99.7,18939],[99.7,19005],[99.7,19072],[99.7,19139],[99.7,19205],[99.7,19272],[99.7,19339],[99.7,19406],[99.7,19472],[99.7,19539],[99.7,19606],[99.7,19672],[99.7,19739],[99.7,19806],[99.7,19873],[99.7,19939],[99.7,20006],[99.7,20073],[99.7,20140],[99.7,20206],[99.7,20273],[99.7,20340],[99.7,20407],[99.7,20473],[99.7,20540],[99.7,20607],[99.7,20674],[99.7,20740],[99.7,20807],[99.7,20874],[99.7,20940],[99.7,21007],[99.7,21074],[99.7,21141],[99.7,21207],[99.7,21274],[99.7,21341],[99.7,21407],[99.7,21474],[99.7,21541],[99.7,21608],[99.7,21674],[99.7,21741],[99.7,21808],[99.7,21874],[99.7,21942],[99.7,22008],[99.7,22075],[99.7,22142],[99.7,22208],[99.7,22275],[99.7,22342],[99.7,22409],[99.7,22476],[99.7,22542],[99.7,22609],[99.7,22675],[99.7,22742],[99.7,22809],[99.7,22876],[99.7,22942],[99.7,23009],[99.7,23076],[99.7,23143],[99.7,23209],[99.7,23276],[99.7,23343],[99.7,23410],[99.7,23476],[99.7,23543],[99.7,23610],[99.7,23677],[99.7,23743],[99.7,23810],[99.7,23876],[99.7,23943],[99.7,24010],[99.7,24077],[99.7,24144],[99.7,24210],[99.7,24277],[99.7,24344],[99.7,24411],[99.7,24477],[99.7,24544],[99.7,24611],[99.7,24677],[99.7,24744],[99.7,24811],[99.7,24877],[99.7,24944],[99.7,25011],[99.7,25078],[99.7,25145],[99.7,25211],[99.7,25278],[99.7,25345],[99.7,25411],[99.7,25479],[99.7,25545],[99.7,25612],[99.7,25678],[99.7,25745],[99.7,25812],[99.7,25879],[99.7,25945],[99.7,26012],[99.7,26079],[99.7,26146],[99.7,26212],[99.7,26279],[99.7,26346],[99.7,26413],[99.7,26480],[99.7,26546],[99.7,26613],[99.7,26679],[99.7,26746],[99.7,26813],[99.7,26880],[99.7,26946],[99.7,27013],[99.7,27080],[99.7,27147],[99.7,27214],[99.7,27280],[99.7,27347],[99.7,27414],[99.7,27480],[99.7,27547],[99.7,27613],[99.7,27680],[99.7,27747],[99.7,27814],[99.7,27881],[99.7,27947],[99.7,28014],[99.7,28081],[99.7,28148],[99.7,28214],[99.7,28281],[99.7,28348],[99.7,28415],[99.7,28481],[99.7,28548],[99.7,28615],[99.7,28681],[99.7,28748],[99.7,28815],[99.7,28882],[99.7,28948],[99.7,29015],[99.7,29081],[99.7,29148],[99.7,29216],[99.7,29282],[99.7,29349],[99.7,29415],[99.7,29482],[99.7,29549],[99.7,29615],[99.7,29682],[99.7,29749]]",1,0,739.8622,739.8691,,,[],,,,739.8691,Partially,50,739.8705,,,[],,0,0,0,0,1,audio/Narrative13Situation2.wav,audio/Narrative13Situation2.wav,audio/Narrative13Situation2.wav,audio/Narrative13Situation2.wav,2,2,2,2,,,,,701.6267,707.497,space,5.3231,,,,,,,,,,,,,,,,,,,,,,,,,,,,,
,,,,,,6609619feb79146b62811775,2024-05-13_10h30.48.733,group3.1-3.2-social-tom,2023.2.2,Win32,30.21148036,65c5074098b851296ff0b7ed,6642320cb618aaa09c6cbdf6,,,,,,,,,,,,,,,,,,,,,,,,,,,,,739.8706,2,audio/Narrative6Situation1.wav,741.8971,,741.8972,768.4905,"[[95.6,1534],[95.5,1601],[95.5,1667],[95.5,1735],[95.5,1801],[95.5,1868],[95.5,1934],[95.5,2001],[95.5,2068],[95.5,2135],[95.5,2201],[95.5,2268],[95.5,2336],[95.8,2402],[95.8,2469],[95.8,2535],[95.8,2602],[95.8,2669],[95.8,2735],[95.8,2802],[95.8,2869],[95.8,2936],[95.8,3002],[95.8,3069],[95.8,3136],[95.8,3202],[95.8,3269],[95.8,3336],[95.8,3403],[95.8,3469],[95.8,3536],[95.8,3603],[95.8,3669],[95.8,3736],[95.8,3803],[95.8,3870],[95.8,3937],[95.8,4003],[95.9,4070],[95.9,4137],[95.9,4204],[95.9,4270],[95.9,4337],[95.9,4404],[95.9,4471],[95.9,4537],[95.9,4604],[95.9,4671],[95.9,4737],[95.9,4804],[95.9,4871],[95.9,4937],[95.9,5004],[95.9,5071],[95.9,5138],[95.9,5205],[95.9,5271],[95.9,5338],[95.9,5404],[95.9,5471],[95.9,5538],[95.9,5605],[95.9,5672],[95.9,5738],[95.9,5805],[95.9,5872],[95.9,5938],[95.9,6005],[95.9,6072],[95.9,6138],[95.9,6206],[95.9,6272],[98.4,6339],[100,6406],[100,6472],[100,6539],[100,6606],[100,6673],[100,6740],[100,6806],[100,6873],[100,6940],[100,7006],[100,7073],[100,7140],[100,7207],[100,7274],[100,7340],[100,7407],[100,7473],[100,7540],[100,7607],[100,7673],[100,7740],[100,7807],[100,7874],[100,7940],[100,8007],[100,8074],[100,8140],[100,8208],[100,8274],[100,8341],[100,8408],[100,8474],[100,8541],[100,8607],[100,8675],[100,8741],[100,8808],[100,8875],[100,8941],[100,9009],[100,9075],[100,9142],[100,9208],[100,9275],[100,9342],[100,9408],[100,9475],[100,9542],[100,9609],[100,9675],[100,9742],[100,9809],[100,9876],[100,9943],[100,10009],[100,10076],[100,10142],[100,10210],[100,10276],[100,10343],[100,10410],[100,10476],[100,10543],[100,10610],[100,10677],[100,10743],[100,10810],[100,10877],[100,10944],[100,11010],[100,11077],[100,11144],[100,11210],[100,11277],[100,11344],[100,11411],[100,11477],[100,11544],[100,11611],[100,11678],[100,11744],[100,11811],[100,11878],[100,11945],[100,12011],[100,12078],[100,12145],[100,12211],[100,12278],[100,12345],[100,12412],[100,12479],[100,12545],[100,12612],[100,12679],[100,12745],[100,12812],[100,12879],[100,12945],[100,13012],[100,13079],[100,13146],[100,13213],[100,13279],[100,13346],[100,13413],[100,13479],[100,13546],[100,13613],[100,13680],[100,13746],[100,13813],[100,13880],[100,13947],[100,14013],[100,14080],[100,14147],[100,14213],[100,14280],[100,14347],[100,14414],[100,14480],[100,14547],[100,14614],[100,14681],[100,14747],[100,14814],[100,14881],[100,14948],[100,15014],[100,15081],[100,15148],[100,15215],[100,15281],[100,15348],[100,15415],[100,15481],[100,15548],[100,15615],[100,15682],[100,15748],[100,15815],[100,15882],[100,15948],[100,16015],[100,16082],[100,16148],[100,16216],[100,16282],[100,16349],[100,16416],[100,16482],[100,16549],[100,16616],[100,16682],[100,16750],[100,16816],[100,16883],[100,16950],[100,17016],[100,17083],[100,17150],[100,17217],[100,17283],[100,17350],[100,17417],[100,17483],[100,17550],[100,17617],[100,17684],[100,17750],[100,17817],[100,17884],[100,17951],[100,18017],[100,18084],[100,18151],[100,18218],[100,18284],[98.3,18351],[92.6,18418],[91.8,18485],[91.1,18551],[89.1,18618],[88.1,18685],[88.1,18752],[88.1,18818],[88.1,18885],[88.1,18952],[88.1,19018],[88.1,19085],[88.1,19152],[87.9,19219],[87.9,19285],[87.9,19352],[87.9,19419],[87.9,19485],[87.9,19552],[87.9,19619],[87.9,19686],[87.9,19752],[87.9,19819],[87.9,19886],[87.9,19953],[87.9,20019],[87.9,20086],[87.9,20153],[87.9,20219],[87.9,20286],[87.9,20353],[87.9,20420],[87.9,20486],[87.9,20553],[87.9,20620],[87.9,20686],[87.9,20754],[87.9,20820],[87.9,20887],[87.9,20954],[87.9,21020],[87.9,21087],[87.9,21154],[93.9,21221],[95.7,21287],[95.7,21354],[95.7,21421],[95.7,21487],[95.7,21554],[99.6,21621],[99.7,21687],[99.7,21754],[99.7,21821],[99.7,21888],[99.7,21954],[99.7,22021],[99.7,22088],[99.7,22155],[99.7,22221],[99.7,22288],[99.7,22355],[99.7,22422],[99.7,22488],[99.7,22555],[99.7,22622],[99.7,22689],[99.7,22755],[99.7,22822],[99.7,22889],[99.7,22956],[99.7,23022],[99.7,23089],[99.7,23156],[99.7,23223],[99.7,23289],[99.7,23357],[99.7,23423],[99.7,23490],[99.7,23556],[99.7,23623],[99.7,23690],[99.7,23756],[99.7,23823],[99.7,23890],[99.7,23956],[99.7,24023],[99.7,24090],[99.7,24157],[99.7,24224],[99.7,24290],[99.7,24357],[99.7,24424],[99.7,24490],[99.7,24557],[99.7,24624],[99.7,24691],[99.7,24757],[99.7,24824],[99.7,24890],[99.7,24957],[99.7,25024],[99.7,25091],[99.7,25158],[99.7,25224],[99.7,25291],[99.7,25358],[99.7,25425],[99.7,25491],[99.7,25558],[99.7,25625],[99.7,25692],[99.7,25758],[99.7,25825],[99.7,25892],[99.7,25959],[99.7,26025],[99.7,26092],[99.7,26159],[99.7,26226],[99.7,26292],[99.7,26359],[99.7,26425],[99.7,26493],[99.7,26559]]",1,0,768.4908,777.2994,98.28125,4.2381,"[{""rating"":98.28125,""responseTime"":4.238100000008899}]",space,8.2416,,777.2995,Partially,50,783.6387,50.15625,4.2023,"[{""rating"":50.15625,""responseTime"":4.202299999996967}]",space,0,1,1,1,1,audio/Narrative7Situation1.wav,audio/Narrative8Situation1.wav,audio/Narrative5Situation1.wav,audio/Narrative6Situation1.wav,2,5,5,2,,,5.801,,,,,,,,,,,,,,,,,,,,,,,,,,,,,,,,,,
,,,,,,6609619feb79146b62811775,2024-05-13_10h30.48.733,group3.1-3.2-social-tom,2023.2.2,Win32,30.21148036,65c5074098b851296ff0b7ed,6642320cb618aaa09c6cbdf6,,,,,,,,,,,,,,,,,,,,,,,,,,,,,783.6391,2,audio/Narrative6Situation2.wav,786.6418,,786.642,815.1704,"[[46.8,9209],[40.7,9275],[40.4,9342],[40.4,9409],[40.4,9475],[40.4,9542],[40.4,9609],[40.4,9676],[40.4,9742],[41.8,9809],[41.9,9876],[41.9,9943],[41.9,10009],[41.9,10076],[41.9,10143],[41.9,10209],[42.4,10276],[42.4,10343],[42.4,10410],[42.4,10476],[42.4,10543],[42.4,10610],[42.6,10677],[42.6,10743],[42.6,10810],[42.6,10877],[42.6,10944],[42.6,11010],[42.6,11076],[42.6,11144],[42.6,11210],[42.6,11277],[42.6,11344],[42.6,11411],[42.6,11477],[42.6,11544],[42.6,11611],[42.6,11677],[42.6,11744],[42.6,11811],[42.6,11878],[42.6,11944],[42.6,12011],[42.6,12078],[42.6,12145],[42.6,12211],[42.6,12278],[42.6,12345],[42.6,12412],[42.6,12479],[42.6,12545],[42.6,12612],[42.6,12678],[42.6,12745],[42.6,12812],[42.6,12879],[42.6,12946],[42.6,13012],[42.6,13079],[42.6,13146],[42.6,13212],[42.6,13280],[42.6,13346],[42.6,13413],[42.6,13480],[42.6,13546],[42.6,13613],[42.6,13679],[42.6,13746],[42.6,13813],[42.6,13880],[42.6,13947],[42.6,14013],[42.6,14080],[42.6,14147],[42.6,14214],[42.6,14280],[42.6,14347],[42.6,14414],[42.6,14480],[42.6,14547],[42.6,14614],[42.6,14681],[42.6,14747],[42.6,14814],[42.6,14881],[42.6,14947],[42.6,15014],[42.6,15081],[42.6,15148],[42.6,15215],[42.6,15281],[42.6,15348],[42.6,15415],[42.6,15481],[42.6,15548],[42.6,15615],[42.6,15682],[42.6,15749],[42.6,15815],[42.6,15882],[42.6,15949],[42.6,16015],[42.6,16082],[42.6,16149],[42.6,16216],[42.6,16282],[42.6,16349],[42.6,16416],[42.6,16483],[42.6,16549],[42.6,16616],[42.6,16683],[42.6,16749],[42.6,16816],[42.6,16883],[42.6,16950],[42.6,17016],[42.6,17083],[42.6,17150],[42.6,17216],[42.6,17283],[42.6,17350],[42.6,17417],[42.6,17484],[42.6,17550],[42.6,17617],[42.6,17684],[42.6,17750],[42.6,17817],[42.6,17884],[42.6,17951],[42.6,18017],[42.6,18084],[42.6,18151],[42.6,18217],[42.6,18284],[42.6,18351],[42.6,18418],[42.6,18485],[42.6,18551],[42.6,18618],[42.6,18685],[42.6,18752],[42.6,18818],[42.6,18885],[42.6,18951],[42.6,19019],[42.6,19085],[42.6,19152],[42.6,19218],[42.6,19285],[42.6,19352],[42.6,19418],[42.6,19485],[42.6,19552],[42.6,19619],[42.6,19686],[42.6,19752],[42.6,19819],[42.6,19886],[45.3,19953],[46.5,20019],[46.5,20086],[46.5,20153],[46.5,20220],[46.5,20286],[46.5,20353],[46.5,20420],[46.5,20486],[48.4,20553],[49.7,20620],[49.7,20687],[49.7,20753],[49.7,20820],[49.7,20887],[49.7,20953],[49.8,21020],[49.8,21087],[49.8,21154],[49.8,21221],[49.8,21287],[49.8,21354],[49.8,21420],[49.8,21487],[49.8,21554],[49.8,21621],[49.8,21687],[49.8,21754],[49.8,21821],[49.8,21888],[49.8,21955],[49.8,22021],[49.8,22088],[49.8,22154],[49.8,22221],[49.8,22288],[49.8,22355],[49.8,22422],[49.8,22488],[49.8,22555],[49.8,22622],[49.8,22689],[49.8,22755],[49.8,22822],[49.8,22889],[49.8,22956],[49.8,23022],[49.8,23089],[49.8,23156],[49.8,23223],[49.8,23289],[49.8,23356],[49.8,23423],[49.8,23489],[49.8,23556],[49.8,23623],[49.8,23689],[49.8,23756],[49.8,23823],[49.8,23890],[49.8,23956],[49.8,24023],[49.8,24090],[49.8,24156],[49.8,24223],[49.8,24290],[49.8,24357],[49.8,24423],[49.8,24490],[49.8,24557],[49.8,24624],[50.3,24691],[64.7,24757],[64.8,24824],[64.8,24891],[67.4,24957],[71.8,25024],[76.5,25091],[78.3,25158],[78.5,25225],[78.5,25291],[79.9,25358],[80.5,25425],[83.6,25491],[84,25558],[85.9,25625],[86.5,25692],[87,25758],[89.4,25825],[91.1,25892],[92.9,25959],[93.1,26025],[93.1,26092],[93.1,26159],[93.1,26225],[93.3,26293],[94,26359],[94.7,26426],[95,26492],[96.1,26559],[96.6,26626],[96.8,26693],[96.8,26759],[96.8,26826],[96.9,26893],[96.9,26960],[96.9,27027],[96.9,27093],[96.9,27160],[96.9,27226],[97.7,27293],[98,27360],[98,27427],[98,27494],[98,27560],[98,27627],[98,27693],[98,27760],[98,27827],[98,27893],[98,27961],[98,28027],[98,28094],[98,28161],[98,28227],[98,28294],[98,28361],[98,28428],[98,28495]]",1,0,815.1707,818.5738,97.96875,1.3226,"[{""rating"":97.96875,""responseTime"":1.322600000008947}]",space,2.8498,,818.5739,Definitely yes,100,818.5763,,,[],,0,2,2,2,1,audio/Narrative7Situation2.wav,audio/Narrative8Situation2.wav,audio/Narrative5Situation2.wav,audio/Narrative6Situation2.wav,3,3,3,3,,,,,,,,,,,,,,,,,,,,,,,,,,,,,,,,,,,,,
,,,,,,6609619feb79146b62811775,2024-05-13_10h30.48.733,group3.1-3.2-social-tom,2023.2.2,Win32,30.21148036,65c5074098b851296ff0b7ed,6642320cb618aaa09c6cbdf6,,,,,,,,,,,,,,,,,,,,,,,,,,,,,818.5765,2,audio/Narrative6Situation3.wav,823.5787,,823.5787,836.258,"[[79.6,200],[79.1,266],[79.1,333],[79.1,400],[79.1,467],[79.1,533],[79.1,600],[79.1,666],[78.8,733],[76.4,800],[74.3,867],[72.7,934],[72.7,1000],[72.7,1067],[72.1,1134],[69.5,1200],[67.7,1268],[66.8,1334],[65.9,1401],[63.9,1468],[62.6,1534],[62.6,1601],[62.6,1668],[62.6,1734],[62.6,1801],[62.6,1868],[62.6,1935],[62.6,2002],[62.6,2068],[62.6,2135],[62.6,2201],[62.6,2268],[62.6,2335],[62.6,2402],[62.6,2468],[62.6,2535],[62.6,2602],[62.6,2669],[62.6,2735],[62.6,2802],[62.6,2869],[62.6,2936],[62.6,3002],[62.6,3069],[62.6,3136],[62.6,3203],[62.6,3269],[62.6,3336],[62.6,3403],[62.6,3470],[62.6,3536],[62.6,3603],[62.6,3670],[62.6,3736],[62.6,3803],[62.6,3870],[62.6,3937],[62.6,4003],[62.6,4070],[62.6,4137],[62.6,4204],[62.6,4270],[62.6,4337],[62.6,4404],[62.6,4470],[62.6,4537],[62.6,4604],[62.6,4671],[62.6,4738],[62.6,4804],[62.6,4871],[62.6,4938],[62.6,5004],[62.6,5072],[62.6,5138],[62.6,5205],[62.6,5271],[62.6,5338],[62.6,5405],[62.6,5472],[62.6,5538],[62.6,5605],[62.6,5672],[62.6,5738],[62.6,5805],[62.6,5872],[62.6,5939],[62.6,6005],[62.6,6072],[62.6,6139],[62.6,6206],[62.6,6272],[62.6,6339],[62.6,6406],[62.6,6472],[62.6,6540],[62.6,6606],[62.6,6672],[62.6,6740],[62.6,6806],[62.6,6873],[62.6,6939],[62.6,7006],[62.6,7073],[62.6,7140],[62.6,7207],[62.6,7273],[62.6,7340],[62.6,7407],[62.6,7473],[62.6,7540],[62.6,7607],[62.6,7674],[62.6,7740],[62.6,7807],[62.6,7874],[62.6,7941],[62.6,8008],[62.6,8074],[62.6,8141],[62.6,8207],[62.6,8275],[62.6,8341],[62.6,8408],[62.6,8475],[62.6,8541],[62.6,8608],[62.6,8675],[62.6,8742],[62.6,8808],[62.6,8875],[62.6,8942],[62.6,9008],[62.6,9076],[62.6,9142],[62.6,9208],[62.6,9275],[62.6,9342],[62.6,9409],[62.6,9475],[62.6,9542],[62.6,9609],[62.6,9675],[62.6,9743],[62.6,9809],[62.6,9876],[62.6,9943],[62.6,10009],[62.6,10076],[62.6,10143],[62.6,10210],[62.6,10277],[62.6,10343],[62.6,10410],[62.6,10477],[62.6,10543],[62.6,10610],[62.6,10677],[62.6,10743],[62.6,10810],[62.6,10877],[62.6,10944],[62.6,11010],[62.6,11077],[62.6,11144],[62.6,11210],[62.6,11277],[62.6,11344],[62.6,11411],[62.6,11478],[62.6,11544],[62.6,11611],[62.6,11678],[62.6,11744],[62.6,11811],[62.6,11878],[62.6,11945],[62.6,12011],[62.6,12078],[62.6,12145],[62.6,12212],[62.6,12278],[62.6,12345],[62.6,12412],[62.6,12479],[62.6,12545],[62.6,12612],[62.6,12679]]",1,0,836.2582,848.0029,50.83333969,9.3909,"[{""rating"":98.69791984558105,""responseTime"":3.6867000000029293},{""rating"":86.92708969116211,""responseTime"":7.020299999996951},{""rating"":71.61458969116211,""responseTime"":8.340299999997},{""rating"":50.8333396911621,""responseTime"":9.390899999991007}]",space,11.1857,,848.0031,Definitely yes,100,848.0043,,,[],,0,3,3,3,1,audio/Narrative7Situation3.wav,audio/Narrative8Situation3.wav,audio/Narrative5Situation3.wav,audio/Narrative6Situation3.wav,8,4,3,5,,,,,,,,,,,,,,,,,,,,,,,,,,,,,,,,,,,,,
,,,,,,6609619feb79146b62811775,2024-05-13_10h30.48.733,group3.1-3.2-social-tom,2023.2.2,Win32,30.21148036,65c5074098b851296ff0b7ed,6642320cb618aaa09c6cbdf6,,,,,,,,,,,,,,,,,,,,,,,,,,,,,848.0045,2,audio/Narrative6Situation4.wav,850.0049,,850.0049,862.6509,"[[999,0],[69.9,67],[100,600],[100,667],[100,734],[97.8,800],[89.7,867],[84.3,934],[81.1,1001],[81,1067],[80.9,1134],[80.9,1200],[80.9,1267],[80.9,1334],[80.9,1401],[84.3,1467],[86.3,1535],[86.3,1601],[86.3,1668],[86.3,1735],[86.3,1801],[86.3,1868],[86.3,1934],[86.3,2002],[86.3,2068],[86.3,2135],[86.3,2202],[86.3,2268],[86.3,2335],[86.3,2402],[86.3,2469],[86.3,2535],[86.3,2602],[86.3,2670],[86.3,2736],[86.3,2802],[86.3,2869],[86.3,2936],[86.3,3003],[86.3,3069],[86.3,3136],[86.3,3203],[86.3,3270],[86.3,3336],[86.3,3403],[86.3,3470],[86.3,3536],[86.3,3603],[86.3,3670],[86.3,3737],[86.3,3803],[86.3,3870],[86.3,3937],[86.3,4004],[86.3,4070],[86.3,4137],[86.3,4204],[86.3,4271],[86.3,4337],[86.3,4404],[86.3,4471],[86.3,4537],[86.3,4604],[86.3,4671],[86.3,4737],[86.3,4805],[86.3,4871],[86.3,4938],[86.3,5004],[86.3,5071],[86.3,5138],[86.3,5204],[86.3,5271],[86.3,5338],[86.3,5405],[86.3,5472],[86.3,5538],[86.3,5605],[86.3,5672],[86.3,5739],[86.3,5805],[86.3,5872],[86.3,5939],[86.3,6005],[86.3,6072],[86.3,6139],[86.3,6206],[86.3,6272],[86.3,6339],[86.3,6406],[86.3,6473],[86.3,6539],[86.3,6606],[86.3,6673],[86.3,6740],[86.3,6806],[86.3,6874],[86.2,6940],[86.2,7006],[86.1,7073],[86,7140],[85.9,7207],[85.9,7274],[85.9,7340],[85.9,7407],[85.9,7473],[85.9,7540],[85.9,7607],[85.9,7673],[85.9,7740],[85.9,7807],[85.9,7874],[85.9,7941],[85.9,8008],[85.9,8074],[85.9,8141],[85.9,8208],[85.9,8274],[85.9,8341],[85.9,8408],[85.9,8474],[85.9,8541],[85.9,8608],[85.9,8675],[85.9,8741],[85.9,8808],[85.9,8875],[85.9,8942],[85.9,9008],[85.9,9075],[85.9,9142],[85.9,9208],[85.9,9275],[85.9,9342],[85.9,9409],[85.9,9476],[85.9,9542],[85.9,9609],[85.9,9676],[85.9,9742],[85.9,9809],[85.9,9876],[85.9,9943],[85.9,10009],[85.9,10076],[85.9,10142],[85.9,10210],[85.9,10276],[85.9,10343],[85.9,10410],[85.9,10477],[85.9,10544],[85.9,10610],[85.9,10677],[85.9,10744],[85.9,10810],[85.9,10877],[85.9,10944],[85.9,11010],[85.9,11077],[85.9,11144],[85.9,11211],[85.9,11277],[85.9,11344],[85.9,11411],[85.9,11478],[85.9,11545],[85.9,11611],[85.9,11678],[85.9,11745],[85.9,11811],[85.9,11878],[85.9,11945],[85.9,12011],[85.9,12078],[85.9,12145],[85.9,12212],[85.9,12278],[85.9,12345],[85.9,12412],[85.9,12478],[85.9,12546],[85.9,12612]]",1,0,862.6512,873.6291,50.52083969,9.4797,"[{""rating"":50.9375,""responseTime"":3.5499999999999545},{""rating"":71.5625,""responseTime"":6.257900000005975},{""rating"":50.52083969116211,""responseTime"":9.479700000002936}]",space,10.4167,,873.6291,Not at all,0,873.6309,,,[],,0,4,4,4,1,audio/Narrative7Situation4.wav,audio/Narrative8Situation4.wav,audio/Narrative5Situation4.wav,audio/Narrative6Situation4.wav,3,3,1,2,,,,,,,,,,,,,,,,,,,,,,,,,,,,,,,,,,,,,
,,,,,,6609619feb79146b62811775,2024-05-13_10h30.48.733,group3.1-3.2-social-tom,2023.2.2,Win32,30.21148036,65c5074098b851296ff0b7ed,6642320cb618aaa09c6cbdf6,,,,,,,,,,,,,,,,,,,,,,,,,,,,,873.6311,2,audio/Narrative6Situation5.wav,875.664,,875.664,883.6723,"[[50.9,6539],[55.9,6606],[55.9,6673],[55.9,6739],[55.9,6806],[55.9,6872],[55.9,6940],[55.9,7006],[53.5,7073],[53.5,7140],[53.5,7206],[53.5,7274],[53.5,7340],[53.6,7407],[53.6,7473],[53.6,7540],[54.6,7607],[54.9,7674],[54.9,7740],[54.9,7807],[54.9,7874],[54.9,7940],[54.6,8008]]",1,0,883.6724,889.7779,71.875,3.4735,"[{""rating"":71.875,""responseTime"":3.4734999999999445}]",space,5.5157,,889.7779,Definitely yes,100,889.7802,,,[],,0,5,5,5,1,audio/Narrative7Situation5.wav,audio/Narrative8Situation5.wav,audio/Narrative5Situation5.wav,audio/Narrative6Situation5.wav,5,2,5,2,,,,,,,,,,,,,,,,,,,,,,,,,,,,,,,,,,,,,
,,,,,,6609619feb79146b62811775,2024-05-13_10h30.48.733,group3.1-3.2-social-tom,2023.2.2,Win32,30.21148036,65c5074098b851296ff0b7ed,6642320cb618aaa09c6cbdf6,,,,,,,,,,,,,,,,,,,,,,,,,,,,,889.7805,2,audio/Narrative6Situation6.wav,891.8133,,891.8134,902.9244,"[[71.2,467],[71.2,533],[71.2,600],[71.2,667],[71.2,733],[71.2,800],[71.2,867],[71.2,933],[71.2,1000],[71.2,1067],[71.2,1134],[71.2,1201],[71.2,1267],[71.2,1334],[71.2,1401],[71.2,1467],[71.2,1534],[71.2,1601],[71.2,1668],[71.2,1735],[71.2,1801],[71.2,1868],[71.2,1935],[71.2,2001],[71.2,2068],[71.2,2135],[71.2,2201],[71.2,2268],[71.2,2335],[71.2,2402],[71.2,2468],[71.2,2535],[71.2,2602],[71.2,2669],[70.9,2735],[70.9,2802],[70.9,2869],[70.7,2935],[70.7,3002],[70.7,3069],[70.7,3136],[70.7,3203],[70.7,3269],[70.7,3336],[70.7,3403],[70.7,3470],[70.7,3536],[70.7,3603],[70.7,3670],[70.7,3736],[70.7,3803],[70.7,3870],[70.7,3937],[70.7,4003],[70.7,4070],[70.7,4137],[70.7,4203],[70.7,4270],[70.7,4337],[70.7,4404],[70.7,4470],[70.7,4537],[70.7,4604],[70.7,4670],[70.7,4737],[70.7,4804],[70.7,4871],[70.7,4937],[70.7,5004],[70.7,5071],[70.7,5138],[70.7,5204],[70.7,5271],[70.7,5338],[70.7,5405],[70.7,5472],[70.7,5538],[70.7,5605],[70.7,5672],[70.7,5738],[70.7,5805],[70.7,5872],[70.7,5939],[70.7,6005],[70.7,6072],[70.7,6139],[70.7,6206],[70.7,6272],[70.7,6339],[70.7,6406],[70.7,6472],[70.7,6539],[70.7,6606],[70.7,6673],[70.7,6740],[70.7,6806],[70.7,6873],[70.7,6940],[70.7,7006],[70.7,7073],[70.7,7140],[70.7,7207],[70.7,7273],[70.7,7340],[70.7,7407],[70.7,7474],[70.7,7540],[70.7,7607],[70.7,7674],[70.7,7741],[70.7,7807],[70.7,7874],[70.7,7941],[70.7,8007],[70.7,8074],[70.7,8141],[70.7,8208],[70.7,8274],[70.7,8341],[70.7,8408],[70.7,8474],[70.7,8541],[70.7,8608],[70.7,8675],[70.7,8741],[70.7,8808],[70.7,8875],[70.7,8942],[70.7,9008],[70.7,9075],[70.7,9142],[70.7,9209],[70.7,9275],[70.7,9342],[70.7,9409],[70.7,9476],[70.7,9542],[70.7,9609],[70.7,9676],[70.7,9742],[70.7,9809],[70.7,9876],[70.7,9943],[70.7,10009],[70.7,10076],[70.7,10143],[70.7,10210],[70.7,10276],[70.7,10343],[70.7,10410],[70.7,10477],[70.7,10543],[70.7,10610],[70.7,10677],[70.7,10744],[70.7,10810],[70.7,10877],[70.7,10943],[70.7,11010],[70.7,11077]]",1,0,902.9247,912.3342,82.03125,8.5965,"[{""rating"":99.84375,""responseTime"":6.738100000008899},{""rating"":82.03125,""responseTime"":8.596499999999992}]",space,8.8225,,912.3343,Partially,50,912.3369,,,[],,0,6,6,6,1,audio/Narrative7Situation6.wav,audio/Narrative8Situation6.wav,audio/Narrative5Situation6.wav,audio/Narrative6Situation6.wav,3,2,3,2,,,,,,,,,,,,,,,,,,,,,,,,,,,,,,,,,,,,,
,,,,,,6609619feb79146b62811775,2024-05-13_10h30.48.733,group3.1-3.2-social-tom,2023.2.2,Win32,30.21148036,65c5074098b851296ff0b7ed,6642320cb618aaa09c6cbdf6,,,,,,,,,,,,,,,,,,,,,,,,,,,,,912.337,2,audio/Narrative6Situation7.wav,917.3385,,917.3385,942.197,"[[72.8,66],[55,133],[36,200],[34.4,267],[34.4,333],[34.4,400],[34.4,467],[35.6,534],[40.5,600],[43.3,667],[49.5,734],[51.9,800],[55.6,867],[59,934],[62.3,1000],[67.2,1067],[67.4,1134],[67.6,1201],[67.6,1268],[67.6,1334],[67.6,1401],[67.6,1468],[67.6,1534],[67.6,1601],[67.6,1668],[67.6,1735],[67.6,1801],[67.7,1868],[67.7,1935],[67.7,2001],[67.7,2069],[67.7,2135],[67.7,2202],[67.7,2269],[67.7,2335],[67.7,2402],[67.7,2469],[67.7,2535],[67.7,2602],[67.7,2669],[67.7,2736],[67.7,2802],[67.7,2869],[67.7,2936],[67.7,3003],[67.7,3069],[67.7,3136],[67.7,3203],[67.7,3270],[67.7,3336],[67.7,3404],[67.7,3470],[67.7,3537],[67.7,3603],[67.7,3670],[67.7,3737],[67.7,3804],[67.7,3870],[67.7,3937],[67.7,4004],[67.6,4071],[67.6,4137],[67.6,4204],[67.6,4271],[67.6,4337],[67.6,4404],[67.6,4471],[67.6,4538],[67.6,4604],[67.6,4671],[67.6,4738],[67.6,4804],[67.6,4871],[67.6,4938],[67.6,5005],[67.6,5071],[67.6,5138],[67.4,5205],[67.4,5272],[67.4,5338],[67.1,5405],[67.1,5472],[67,5539],[67,5605],[67,5672],[67,5739],[67,5805],[67,5872],[67,5939],[67,6005],[66.8,6072],[66.8,6139],[66.8,6206],[66.8,6273],[66.8,6340],[66.8,6406],[66.8,6473],[66.8,6540],[66.8,6606],[66.7,6673],[66.7,6740],[66.7,6807],[66.7,6873],[66.7,6940],[66.7,7007],[66.7,7073],[66.7,7140],[66.7,7207],[66.5,7274],[65.4,7341],[64.6,7407],[63.3,7473],[61.6,7540],[59.8,7607],[59,7675],[58.4,7741],[58.4,7808],[58.4,7874],[58.4,7941],[58.4,8008],[58.4,8074],[58.4,8141],[58.4,8208],[58.4,8275],[58.4,8341],[58.4,8408],[58.4,8475],[58.4,8542],[58.4,8608],[58.4,8675],[58.4,8742],[58.4,8809],[58.4,8875],[58.4,8942],[58.4,9009],[58.4,9075],[58.4,9142],[58.4,9209],[58.4,9275],[58.4,9342],[58.4,9409],[58.4,9476],[58.4,9543],[58.4,9609],[58.4,9676],[58.4,9743],[58.4,9810],[58.4,9876],[58.4,9943],[58.4,10010],[58.4,10076],[58.4,10143],[62.9,10210],[67.8,10277],[73.7,10343],[78.6,10410],[81.3,10477],[81.8,10544],[85.9,10610],[89.1,10677],[91.1,10744],[91.1,10810],[91.1,10877],[92,10944],[92.9,11011],[92.9,11077],[93.4,11144],[95.1,11211],[96.5,11277],[96.7,11344],[96.7,11412],[96.7,11478],[96.7,11545],[96.7,11611],[97.2,11678],[97.5,11745],[98.3,11812],[98.6,11878],[98.9,11945],[98.9,12012],[98.9,12079],[98.9,12145],[98.9,12212],[98.9,12279],[98.9,12345],[98.9,12412],[98.9,12479],[98.9,12546],[98.9,12612],[98.9,12679],[98.9,12746],[98.9,12812],[98.9,12879],[98.9,12946],[98.9,13013],[98.9,13080],[98.9,13146],[98.9,13213],[98.9,13279],[98.9,13346],[98.9,13413],[98.9,13480],[98.9,13547],[98.9,13613],[98.9,13680],[98.9,13747],[98.9,13813],[98.9,13880],[98.9,13947],[98.9,14014],[98.9,14081],[98.9,14147],[98.9,14214],[98.9,14281],[98.9,14347],[98.9,14414],[98.9,14481],[98.9,14548],[98.9,14614],[98.9,14681],[98.9,14747],[98.9,14814],[98.9,14881],[98.9,14948],[98.9,15015],[98.9,15082],[98.9,15148],[98.9,15215],[98.9,15282],[98.9,15348],[98.9,15416],[98.9,15482],[98.9,15549],[98.9,15615],[98.9,15682],[98.9,15749],[98.9,15816],[98.9,15882],[98.9,15949],[98.9,16015],[98.9,16082],[98.9,16149],[98.9,16216],[98.9,16283],[98.9,16350],[98.9,16416],[98.9,16483],[98.9,16550],[98.9,16616],[98.9,16683],[98.9,16750],[98.9,16816],[98.9,16883],[98.9,16950],[98.9,17017],[98.9,17084],[98.9,17150],[98.9,17217],[98.9,17283],[98.9,17351],[98.9,17417],[98.9,17484],[98.9,17551],[98.9,17617],[98.9,17684],[98.9,17751],[98.9,17818],[98.9,17884],[98.9,17951],[98.9,18018],[98.9,18084],[98.9,18151],[98.9,18218],[98.9,18285],[98.9,18351],[98.9,18418],[98.9,18485],[98.9,18551],[98.9,18618],[98.9,18685],[98.9,18752],[98.9,18818],[98.9,18885],[98.9,18952],[98.9,19019],[98.9,19085],[98.9,19152],[98.9,19219],[98.9,19285],[98.9,19353],[98.9,19420],[98.9,19486],[98.9,19553],[98.9,19619],[98.9,19686],[98.9,19753],[98.9,19820],[98.9,19886],[98.9,19953],[98.9,20019],[98.9,20086],[98.9,20153],[98.9,20220],[98.9,20287],[98.9,20354],[98.9,20420],[98.9,20487],[98.9,20554],[98.9,20620],[98.9,20687],[98.9,20754],[98.9,20821],[98.9,20887],[98.9,20954],[98.9,21021],[98.9,21087],[98.9,21154],[98.9,21221],[98.9,21288],[98.9,21354],[98.9,21421],[98.9,21488],[98.9,21555],[98.9,21621],[98.9,21688],[98.9,21755],[98.9,21822],[98.9,21888],[98.9,21955],[98.9,22022],[98.9,22089],[98.9,22155],[98.9,22222],[98.9,22289],[98.9,22355],[98.9,22422],[98.9,22489],[98.9,22556],[98.9,22622],[98.9,22689],[98.9,22756],[98.9,22822],[98.9,22889],[98.9,22956],[98.9,23023],[98.9,23090],[98.9,23156],[98.9,23223],[98.9,23290],[98.9,23356],[98.9,23423],[98.9,23490],[98.9,23557],[98.9,23623],[98.9,23690],[98.9,23757],[98.9,23824],[98.9,23890],[98.9,23957],[98.9,24024],[98.9,24091],[98.9,24158],[98.9,24224],[98.9,24291],[98.9,24357],[98.9,24424],[98,24491],[97.7,24557],[96.8,24624],[94.4,24691],[89.2,24758],[87.1,24824]]",1,0,942.1973,946.5682,98.69791985,3.0401,"[{""rating"":98.69791984558105,""responseTime"":3.040099999994027}]",space,3.804,,946.5683,Not at all,0,946.5709,,,[],,0,7,7,7,1,audio/Narrative7Situation7.wav,audio/Narrative8Situation7.wav,audio/Narrative5Situation7.wav,audio/Narrative6Situation7.wav,5,3,4,5,,,,,,,,,,,,,,,,,,,,,,,,,,,,,,,,,,,,,
,,,,,,6609619feb79146b62811775,2024-05-13_10h30.48.733,group3.1-3.2-social-tom,2023.2.2,Win32,30.21148036,65c5074098b851296ff0b7ed,6642320cb618aaa09c6cbdf6,,,,,,,,,,,,,,,,,,,,,,,,,,,,,946.571,2,audio/Narrative6Situation8.wav,951.5729,,951.5729,958.4467,"[[96.9,934],[96.1,1000],[96.1,1067],[95.8,1134],[95.8,1201],[95.8,1267],[95.8,1334],[95.8,1401],[95.8,1467],[95.8,1535],[95.8,1601],[95.8,1668],[95.8,1735],[95.8,1801],[95.8,1868],[95.8,1935],[95.8,2002],[95.8,2068],[95.8,2135],[95.8,2201],[95.8,2268],[95.8,2335],[95.8,2402],[95.8,2469],[95.8,2536],[95.8,2602],[95.8,2669],[95.8,2735],[95.8,2802],[95.8,2869],[95.8,2936],[95.8,3002],[95.8,3069],[95.8,3136],[95.8,3203],[95.8,3269],[95.8,3336],[95.8,3403],[95.8,3470],[95.8,3536],[95.8,3603],[95.8,3670],[95.8,3736],[95.8,3803],[95.8,3870],[95.8,3937],[95.8,4004],[95.8,4070],[95.8,4137],[95.8,4204],[95.8,4270],[95.8,4337],[95.8,4404],[95.8,4471],[95.8,4537],[95.8,4604],[95.8,4671],[95.8,4737],[95.8,4804],[95.8,4871],[95.8,4938],[95.8,5004],[94.3,5071],[87.4,5138],[67.7,5204],[64.5,5271],[64.5,5338],[64.5,5405],[63.9,5471],[58.3,5538],[53.5,5605],[53.5,5671],[53.5,5739],[53.5,5805],[53.5,5872],[53.5,5939],[53.5,6005],[53.5,6072],[53.5,6139],[53.5,6206],[53.3,6273],[53.3,6339],[53.3,6406],[53.3,6472],[53.3,6539],[53.3,6606],[53.3,6673],[53.3,6739],[53.3,6806],[53.3,6873]]",1,0,958.4469,962.8509,1.40625,3.2057,"[{""rating"":1.4062499999999978,""responseTime"":3.205699999988042}]",space,3.8472,,962.851,Definitely yes,100,962.8535,,,[],,0,8,8,8,1,audio/Narrative7Situation8.wav,audio/Narrative8Situation8.wav,audio/Narrative5Situation8.wav,audio/Narrative6Situation8.wav,2,3,3,5,,,,,,,,,,,,,,,,,,,,,,,,,,,,,,,,,,,,,
,,,,,,6609619feb79146b62811775,2024-05-13_10h30.48.733,group3.1-3.2-social-tom,2023.2.2,Win32,30.21148036,65c5074098b851296ff0b7ed,6642320cb618aaa09c6cbdf6,,,,,,,,,,,,,,,,,,,,,,,,,,,,,962.8537,2,audio/Narrative6Situation9.wav,966.8547,,966.8548,976.8318,"[[10.1,1067],[10.4,1134],[11.7,1201],[13.5,1267],[13.7,1334],[13.7,1401],[13.7,1468],[13.7,1534],[13.7,1601],[13.7,1668],[13.7,1735],[13.7,1802],[13.7,1868],[13.7,1935],[13.7,2002],[13.7,2068],[13.8,2135],[13.8,2202],[13.8,2269],[13.8,2335],[13.8,2402],[13.8,2468],[13.8,2535],[13.8,2602],[13.8,2669],[13.8,2735],[13.8,2802],[13.8,2869],[13.8,2936],[13.8,3002],[13.8,3069],[13.8,3136],[13.8,3203],[13.8,3270],[13.8,3336],[13.8,3403],[13.8,3469],[13.8,3536],[13.8,3603],[13.8,3670],[13.8,3736],[13.8,3803],[13.8,3870],[13.8,3937],[13.8,4003],[13.8,4070],[13.8,4137],[13.8,4204],[13.8,4270],[13.8,4337],[13.8,4404],[13.8,4471],[13.8,4537],[13.8,4604],[13.8,4671],[13.8,4738],[13.8,4804],[13.8,4871],[13.8,4937],[13.8,5004],[13.8,5071],[13.8,5138],[13.8,5205],[13.8,5271],[13.8,5338],[13.8,5405],[13.8,5472],[13.8,5538],[13.8,5605],[13.8,5672],[13.8,5739],[13.8,5805],[13.8,5872],[13.8,5939],[13.8,6005],[13.8,6072],[13.8,6139],[13.8,6206],[13.8,6272],[13.8,6339],[13.8,6406],[13.8,6473],[13.8,6540],[13.8,6606],[13.8,6673],[13.8,6740],[13.8,6807],[13.8,6873],[13.8,6940],[13.8,7007],[13.6,7073],[9.9,7140],[9.6,7207],[9.1,7274],[8.2,7340],[7.3,7407],[6.8,7473],[6.2,7540],[5.4,7611],[4.8,7677],[4.6,7741],[3.3,7811],[2.4,7877],[2.4,7941],[2.4,8007],[2.4,8074],[2.4,8141],[2.4,8207],[2.4,8274],[2.4,8341],[2.1,8408],[1.5,8479],[1,8545],[0.2,8613],[0.2,8678],[0.2,8742],[0.2,8808],[0.2,8875],[0.2,8941],[0.2,9008],[0.2,9075],[0.2,9145],[0.2,9209],[0.2,9275],[0.2,9342],[0.2,9409],[0.2,9476],[0.2,9542],[0.2,9609],[0.2,9676],[0.2,9743],[0.2,9809],[0.2,9876],[0.2,9944]]",1,0,976.832,979.0666,0.885419846,1.6371,"[{""rating"":0.8854198455810536,""responseTime"":1.6370999999940068}]",space,1.6855,,979.0667,Partially,50,979.0687,,,[],,0,9,9,9,1,audio/Narrative7Situation9.wav,audio/Narrative8Situation9.wav,audio/Narrative5Situation9.wav,audio/Narrative6Situation9.wav,2,3,3,4,,,,,,,,,,,,,,,,,,,,,,,,,,,,,,,,,,,,,
,,,,,,6609619feb79146b62811775,2024-05-13_10h30.48.733,group3.1-3.2-social-tom,2023.2.2,Win32,30.21148036,65c5074098b851296ff0b7ed,6642320cb618aaa09c6cbdf6,,,,,,,,,,,,,,,,,,,,,,,,,,,,,979.0688,2,audio/Narrative5Situation1.wav,984.0754,,984.0755,997.4234,"[[51.1,6346],[51.7,6407],[51.7,6473],[51.7,6536],[51.7,6603],[51.7,6674],[51.7,6736],[51.7,6803],[51.7,6869],[51.7,6936],[51.7,7007],[51.7,7073],[51.7,7137],[51.7,7203],[51.7,7270],[51.7,7337],[51.7,7403],[51.7,7470],[51.7,7540],[51,7608],[49.7,7674],[49.7,7742],[49.7,7804],[49.7,7870],[49.7,7937],[49.7,8004],[49.5,8071],[49.5,8141],[49.5,8205],[49.5,8270],[49.5,8338],[49.5,8404],[49.5,8471],[49.5,8538],[49.5,8604],[49.5,8671],[49.5,8741],[49.5,8808],[49.5,8872],[49.5,8941],[49.5,9005],[49.5,9072],[49.5,9139],[49.5,9205],[49.5,9272],[49.5,9339],[49.5,9406],[49.5,9472],[49.5,9539],[49.5,9606],[49.5,9672],[49.5,9743],[49.5,9809],[49.5,9873],[49.5,9940],[49.5,10010],[49.5,10073],[49.5,10139],[49.5,10206],[49.5,10273],[49.5,10340],[49.5,10407],[49.5,10473],[49.5,10540],[49.5,10612],[49.5,10677],[49.5,10741],[49.5,10807],[49.5,10874],[49.5,10940],[49.5,11007],[49.5,11074],[49.5,11140],[49.5,11207],[49.5,11274],[49.5,11341],[49.5,11408],[49.5,11474],[49.5,11541],[49.5,11608],[49.5,11674],[49.5,11741],[49.5,11808],[49.5,11875],[49.5,11941],[49.5,12008],[49.5,12075],[49.5,12142],[49.5,12208],[49.5,12275],[49.5,12342],[49.5,12408],[49.5,12475],[49.5,12542],[49.5,12609],[49.5,12675],[49.5,12742],[49.2,12819],[49.2,12875],[49.2,12942],[49.2,13009],[49.2,13076],[49.2,13143],[49.2,13209],[49.2,13276],[49.5,13347]]",1,0,997.4234,1006.9284,17.55208492,6.7583,"[{""rating"":2.083334922790525,""responseTime"":5.235500000000002},{""rating"":12.135419845581053,""responseTime"":6.1397000000030175},{""rating"":17.552084922790527,""responseTime"":6.758299999997007}]",space,8.937,,1006.9285,Not at all,0,1006.931,,,[],,0,10,10,10,1,audio/Narrative8Situation1.wav,audio/Narrative7Situation1.wav,audio/Narrative6Situation1.wav,audio/Narrative5Situation1.wav,5,2,2,5,,,,,,,,,,,,,,,,,,,,,,,,,,,,,,,,,,,,,
,,,,,,6609619feb79146b62811775,2024-05-13_10h30.48.733,group3.1-3.2-social-tom,2023.2.2,Win32,30.21148036,65c5074098b851296ff0b7ed,6642320cb618aaa09c6cbdf6,,,,,,,,,,,,,,,,,,,,,,,,,,,,,1006.9311,2,audio/Narrative5Situation2.wav,1009.9316,,1009.9316,1039.431,"[[999,0],[999,71],[999,133],[999,199],[999,266],[999,332],[999,400],[999,466],[999,533],[999,600],[999,666],[999,733],[999,800],[999,867],[999,933],[999,1000],[999,1067],[999,1133],[999,1200],[999,1267],[999,1334],[999,1400],[999,1467],[999,1534],[999,1600],[999,1667],[999,1737],[999,1801],[999,1868],[999,1938],[999,2001],[999,2067],[999,2134],[999,2201],[999,2268],[999,2335],[999,2401],[999,2468],[999,2535],[999,2601],[999,2668],[999,2735],[999,2802],[999,2869],[999,2936],[999,3002],[11.9,3068],[16.6,3139],[20.9,3205],[24,3274],[24,3341],[24,3402],[24,3469],[24,3536],[24,3603],[24,3669],[24.1,3736],[24.1,3803],[24.1,3870],[24.1,3936],[24.1,4003],[24.1,4070],[24.1,4137],[24.1,4203],[24.1,4270],[24.1,4337],[24.1,4403],[24.1,4470],[24.1,4537],[24.1,4603],[24.1,4670],[24.1,4737],[24.1,4804],[24.1,4875],[24.1,4937],[24.1,5004],[24.1,5071],[24.1,5137],[24.1,5204],[24.1,5271],[24.1,5342],[24.1,5404],[24.1,5471],[24.1,5538],[24.1,5605],[24.1,5671],[24.1,5738],[24.1,5805],[24.1,5872],[24.1,5938],[24.1,6005],[24.1,6072],[24.1,6143],[24.1,6205],[24.1,6272],[24.1,6343],[24.1,6405],[24.1,6472],[24.1,6539],[24.1,6606],[24.1,6677],[24.1,6739],[24.1,6806],[24.1,6872],[24.1,6939],[24.1,7006],[24.1,7073],[22.1,7149],[21.3,7211],[19.8,7276],[18.6,7344],[15.3,7410],[13.1,7476],[12.1,7543],[10.5,7610],[9.6,7677],[9.3,7743],[7.1,7811],[6,7877],[5.1,7944],[4,8011],[4,8077],[3.1,8145],[2.4,8211],[2.4,8274],[2.4,8341],[2.4,8407],[2.4,8474],[2.4,8545],[2.4,8608],[2.4,8675],[2.4,8741],[2.4,8808],[2.4,8875],[2.4,8941],[2.4,9008],[2.4,9075],[2.4,9141],[2.4,9208],[2.4,9275],[2.4,9341],[2.4,9408],[2.4,9475],[2.4,9542],[2.4,9608],[2.4,9675],[2.4,9742],[2.4,9809],[2.4,9876],[2.4,9942],[2.4,10009],[2.4,10076],[2.4,10143],[2.4,10209],[2.4,10276],[2.4,10343],[2.4,10410],[2.4,10476],[2.4,10543],[2.4,10610],[2.4,10676],[2.4,10743],[2.4,10810],[2.4,10876],[2.4,10943],[2.4,11010],[2.4,11077],[2.4,11143],[2.4,11210],[2.4,11277],[2.4,11344],[2.4,11410],[2.4,11477],[2.4,11544],[2.4,11614],[2.4,11678],[2.4,11744],[2.4,11811],[2.4,11878],[2.4,11944],[2.4,12014],[2.4,12081],[2.4,12144],[2.4,12211],[2.4,12278],[2.4,12345],[2.4,12412],[2.4,12482],[2.4,12545],[2.4,12611],[2.4,12678],[2.4,12745],[2.4,12812],[2.4,12879],[2.4,12945],[2.4,13012],[2.4,13079],[2.4,13145],[2.4,13212],[2.4,13279],[2.4,13346],[2.4,13412],[2.4,13479],[2.4,13546],[2.4,13613],[2.4,13679],[2.4,13746],[2.4,13813],[2.4,13879],[2.4,13946],[2.4,14013],[2.4,14080],[2.4,14146],[2.4,14213],[2.4,14280],[2.4,14347],[2.4,14413],[2.4,14480],[2.4,14547],[2.4,14613],[2.4,14684],[2.4,14747],[2.4,14814],[2.4,14880],[2.4,14947],[2.4,15018],[2.4,15081],[2.4,15148],[2.4,15214],[2.4,15281],[2.4,15348],[2.4,15414],[2.4,15481],[2.4,15548],[2.4,15615],[2.4,15681],[2.4,15748],[2.4,15815],[2.4,15881],[2.4,15948],[2.4,16015],[2.4,16085],[2.4,16149],[2.4,16215],[2.4,16282],[2.4,16349],[2.4,16415],[2.4,16482],[2.4,16549],[2.4,16615],[2.4,16682],[2.4,16749],[2.4,16816],[2.4,16882],[2.4,16949],[2.4,17016],[2.4,17082],[2.4,17150],[2.4,17216],[2.4,17283],[2.4,17350],[2.4,17417],[2.4,17483],[2.4,17554],[2.4,17617],[2.4,17683],[2.4,17750],[2.4,17817],[2.4,17884],[2.4,17950],[2.4,18017],[2.4,18084],[2.4,18150],[2.4,18217],[2.4,18284],[2.4,18351],[2.4,18418],[2.4,18484],[2.4,18555],[2.4,18618],[2.4,18685],[2.4,18751],[2.4,18818],[2.4,18885],[2.4,18951],[2.4,19022],[2.4,19089],[2.4,19151],[2.4,19218],[2.4,19285],[2.4,19355],[2.4,19418],[2.4,19485],[2.4,19552],[2.4,19619],[2.4,19686],[2.4,19752],[2.4,19819],[2.4,19886],[2.4,19953],[2.4,20019],[2.4,20089],[2.4,20156],[2.4,20219],[2.4,20286],[2.4,20358],[2.4,20424],[2.4,20486],[2.4,20553],[2.4,20619],[2.4,20686],[2.4,20753],[2.4,20820],[2.4,20887],[2.4,20953],[2.4,21020],[2.4,21087],[2.4,21154],[2.4,21220],[2.4,21287],[2.4,21354],[2.4,21420],[2.4,21487],[2.4,21558],[2.4,21620],[2.4,21687],[2.4,21754],[2.4,21821],[2.4,21887],[2.4,21954],[2.4,22021],[2.4,22088],[2.4,22154],[2.4,22221],[2.4,22288],[2.4,22354],[2.4,22421],[2.4,22488],[2.4,22559],[2.4,22621],[2.4,22688],[2.4,22755],[2.4,22822],[2.4,22889],[2.4,22955],[2.4,23022],[2.4,23089],[2.4,23159],[2.4,23222],[2.4,23289],[2.4,23356],[2.4,23422],[2.4,23489],[2.4,23556],[2.4,23627],[2.4,23689],[2.4,23756],[2.4,23823],[2.4,23889],[2.4,23960],[2.4,24026],[2.4,24090],[2.4,24157],[2.4,24223],[2.4,24290],[2.4,24361],[2.4,24427],[2.4,24490],[2.4,24557],[2.4,24624],[2.4,24691],[2.4,24757],[2.4,24824],[2.4,24890],[2.4,24957],[2.4,25024],[2.4,25091],[2.4,25158],[2.4,25224],[2.4,25295],[2.4,25361],[2.4,25424],[2.4,25491],[2.4,25563],[2.4,25625],[2.4,25691],[2.4,25758],[2.4,25825],[2.4,25892],[2.4,25958],[2.4,26025],[2.4,26092],[2.4,26158],[2.4,26225],[2.4,26296],[2.4,26362],[2.4,26425],[2.4,26492],[2.4,26559],[2.4,26626],[2.4,26692],[2.4,26759],[2.4,26826],[2.4,26893],[2.4,26959],[2.4,27031],[2.4,27093],[2.4,27159],[2.4,27226],[2.4,27293],[2.4,27360],[2.4,27426],[2.4,27493],[2.4,27560],[2.4,27627],[4.8,27703],[5.6,27764],[7.1,27830],[7.4,27897],[7.8,27965],[10.4,28030],[12,28097],[17.3,28164],[18.2,28231],[18.2,28294],[19.5,28365],[21.6,28431],[22,28498],[22,28561],[22.9,28627],[24.4,28698],[25.5,28765],[25.5,28828],[27.1,28898],[29,28966],[31.3,29032],[41.8,29099],[44.5,29165],[44.5,29228],[44.7,29295],[49.6,29365],[50.3,29433],[50.3,29499]]",1,0,1039.4312,1042.2006,50.3125,1.2676,"[{""rating"":50.31250000000001,""responseTime"":1.2675999999939904}]",space,2.1757,,1042.2007,Partially,50,1042.2024,,,[],,0,11,11,11,1,audio/Narrative8Situation2.wav,audio/Narrative7Situation2.wav,audio/Narrative6Situation2.wav,audio/Narrative5Situation2.wav,3,3,3,3,,,,,,,,,,,,,,,,,,,,,,,,,,,,,,,,,,,,,
,,,,,,6609619feb79146b62811775,2024-05-13_10h30.48.733,group3.1-3.2-social-tom,2023.2.2,Win32,30.21148036,65c5074098b851296ff0b7ed,6642320cb618aaa09c6cbdf6,,,,,,,,,,,,,,,,,,,,,,,,,,,,,1042.2027,2,audio/Narrative5Situation3.wav,1045.2332,,1045.2333,1059.1468,"[[49.9,1338],[49.9,1400],[49.4,1471],[47.8,1538],[46.8,1604],[46.8,1671],[46.8,1738],[46.8,1801],[46.8,1871],[46.8,1934],[46.8,2001],[46.8,2068],[46.8,2135],[46.8,2201],[46.8,2268],[46.8,2338],[46.8,2401],[46.8,2468],[46.8,2535],[46.8,2601],[46.8,2669],[46.8,2735],[46.8,2802],[46.8,2869],[46.8,2936],[46.8,3002],[46.8,3069],[46.8,3136],[46.8,3202],[46.8,3269],[46.8,3336],[46.8,3403],[46.8,3469],[46.8,3536],[46.8,3602],[46.8,3673],[46.8,3736],[46.8,3807],[46.8,3870],[46.8,3936],[46.8,4003],[46.8,4070],[46.8,4137],[46.8,4203],[46.8,4270],[46.8,4337],[46.8,4404],[46.8,4475],[46.8,4540],[46.8,4604],[46.8,4671],[46.8,4737],[46.8,4804],[46.8,4871],[46.8,4937],[46.8,5004],[46.8,5074],[46.8,5137],[46.8,5204],[46.8,5271],[46.8,5338],[46.8,5405],[46.8,5471],[46.8,5538],[46.8,5605],[46.8,5671],[46.8,5738],[46.8,5805],[46.8,5872],[46.8,5938],[46.8,6005],[46.8,6072],[46.8,6139],[46.8,6205],[46.8,6272],[46.8,6339],[46.8,6405],[46.8,6472],[46.8,6539],[46.8,6606],[46.8,6673],[46.8,6739],[46.8,6806],[46.8,6876],[46.8,6939],[46.8,7006],[46.8,7073],[46.8,7139],[46.8,7206],[46.8,7273],[46.8,7340],[46.8,7407],[46.8,7473],[46.8,7540],[46.8,7607],[46.8,7678],[46.8,7740],[46.8,7807],[46.8,7874],[46.8,7941],[46.8,8007],[46.8,8074],[46.8,8141],[46.8,8207],[46.8,8278],[46.8,8341],[46.8,8408],[46.8,8474],[46.8,8541],[46.8,8608],[46.8,8675],[46.8,8741],[46.8,8808],[46.8,8875],[46.8,8941],[46.8,9012],[46.8,9075],[46.8,9145],[46.8,9208],[46.8,9275],[46.8,9342],[46.8,9409],[46.8,9475],[46.8,9542],[46.8,9609],[46.8,9675],[46.8,9742],[46.7,9809],[46.6,9875],[46.6,9942],[46.6,10009],[46.6,10076],[46.6,10143],[46.6,10210],[46.6,10276],[46.6,10343],[46.6,10409],[46.6,10476],[46.6,10543],[46.6,10610],[46.6,10676],[46.6,10743],[46.6,10810],[46.6,10879],[46.6,10947],[46.6,11010],[46.6,11077],[46.6,11144],[46.6,11210],[47.8,11281],[48.1,11349],[48.9,11410],[49.1,11481],[49.1,11548],[49.1,11611],[49.1,11677],[49.1,11744],[49.1,11811],[49.1,11878],[49.1,11945],[49.1,12011],[49.1,12078],[49.1,12145],[49.1,12211],[49.1,12278],[49.1,12345],[49.1,12412],[49.1,12478],[49.1,12545],[49.1,12612],[49.1,12679],[49.1,12745],[49.1,12812],[49.1,12878],[49.1,12945],[49.1,13012],[49.1,13079],[49.1,13145],[49.1,13212],[49.1,13279],[49.1,13346],[49.1,13413],[49.1,13480],[49.1,13546],[49.1,13613],[49.1,13679],[49.1,13746],[49.1,13813],[49.1,13880]]",1,0,1059.147,1069.5906,76.45833969,9.6304,"[{""rating"":68.28125,""responseTime"":5.04640000000586},{""rating"":80.88541984558105,""responseTime"":7.138599999994085},{""rating"":76.45833969116211,""responseTime"":9.63040000000592}]",space,9.8805,,1069.5906,Not at all,0,1069.5927,,,[],,0,12,12,12,1,audio/Narrative8Situation3.wav,audio/Narrative7Situation3.wav,audio/Narrative6Situation3.wav,audio/Narrative5Situation3.wav,4,8,5,3,,,,,,,,,,,,,,,,,,,,,,,,,,,,,,,,,,,,,
