exp_question,consent.started,consent.stopped,consentResponse.keys,consentResponse.rt,consentResponse.duration,participantID,date,expName,psychopyVersion,OS,frameRate,STUDY_ID,SESSION_ID,opening1.started,opening1.stopped,keyEndingOpening1.keys,keyEndingOpening1.rt,keyEndingOpening1.duration,volumeAdjust.started,volumeAdjust.stopped,endingAdjust.keys,endingAdjust.rt,endingAdjust.duration,opening2.started,opening2.stopped,keyEndingOpening.keys,keyEndingOpening.rt,keyEndingOpening.duration,mouse.x,mouse.y,mouse.leftButton,mouse.midButton,mouse.rightButton,mouse.time,instructionLoop.thisRepN,instructionLoop.thisTrialN,instructionLoop.thisN,instructionLoop.thisIndex,instructionLoop.ran,readyForAudio.started,readyForAudio.stopped,fixation.started,run,audio_played,fixation.stopped,endPractice.keys,audioPre.started,audioPre.stopped,continuousResponses_audio,continuousSlider.response,continuousSlider.rt,intRating.started,intRating.stopped,intQuestionSlider.response,intQuestionSlider.rt,intQuestionSlider.history,confirmResponse.keys,confirmResponse.rt,confirmResponse.duration,catchQuestion.started,catch_label,catch_value,catchQuestion.stopped,catchQuestionSlider.response,catchQuestionSlider.rt,catchQuestionSlider.history,confirmResponse_2.keys,audioRunLoop.thisRepN,audioRunLoop.thisTrialN,audioRunLoop.thisN,audioRunLoop.thisIndex,audioRunLoop.ran,conditions1_1,conditions2_1,conditions1_2,conditions2_2,dur1_1,dur2_1,dur1_2,dur2_2,endPractice.rt,endPractice.duration,confirmResponse_2.rt,confirmResponse_2.duration,runIntervalBreak.started,runIntervalBreak.stopped,endingBreakKey.keys,endingBreakKey.rt,endingBreakKey.duration,connection.started,connection.stopped,connectionEnding.keys,connectionEnding.rt,connectionEnding.duration,readyForText.started,readyForText.stopped,textPre.started,run_dup,textPre.stopped,continuousResponses_text,textRunLoop.thisRepN,textRunLoop.thisTrialN,textRunLoop.thisN,textRunLoop.thisIndex,textRunLoop.ran,text1_1,text1_2,text2_1,text2_2,runBreakText.started,runBreakText.stopped,endingBreakKey_2.keys,endingBreakKey_2.rt,endingBreakKey_2.duration,ending.started,ending.stopped,endingEnding.keys,endingEnding.rt,endingEnding.duration
tom,0.0001,8.4665,y,8.1506,,660d77f6ef756b2e670c240b,2024-05-13_11h41.16.295,group3.1-3.2-social-tom,2023.2.2,Win32,144.9275362,65c5074098b851296ff0b7ed,66423487767615d97820e371,,,,,,,,,,,,,,,,,,,,,,,,,,,,,,,,,,,,,,,,,,,,,,,,,,,,,,,,,,,,,,,,,,,,,,,,,,,,,,,,,,,,,,,,,,,,,,,,,,,,,,,,,,
,,,,,,660d77f6ef756b2e670c240b,2024-05-13_11h41.16.295,group3.1-3.2-social-tom,2023.2.2,Win32,144.9275362,65c5074098b851296ff0b7ed,66423487767615d97820e371,8.4666,17.911,space,9.4199,,,,,,,,,,,,,,,,,,,,,,,,,,,,,,,,,,,,,,,,,,,,,,,,,,,,,,,,,,,,,,,,,,,,,,,,,,,,,,,,,,,,,,,,,,,,,,,,,,,,,,
,,,,,,660d77f6ef756b2e670c240b,2024-05-13_11h41.16.295,group3.1-3.2-social-tom,2023.2.2,Win32,144.9275362,65c5074098b851296ff0b7ed,66423487767615d97820e371,,,,,,17.9111,30.7304,space,12.5092,0.0015,,,,,,,,,,,,,,,,,,,,,,,,,,,,,,,,,,,,,,,,,,,,,,,,,,,,,,,,,,,,,,,,,,,,,,,,,,,,,,,,,,,,,,,,,,,,,,,,
,,,,,,660d77f6ef756b2e670c240b,2024-05-13_11h41.16.295,group3.1-3.2-social-tom,2023.2.2,Win32,144.9275362,65c5074098b851296ff0b7ed,66423487767615d97820e371,,,,,,,,,,,30.733,53.0986,space,22.3583,,[],[],[],[],[],[],0,0,0,0,1,,,,,,,,,,,,,,,,,,,,,,,,,,,,,,,,,,,,,,,,,,,,,,,,,,,,,,,,,,,,,,,,,,,,,,,,,,,,,,,,
,,,,,,660d77f6ef756b2e670c240b,2024-05-13_11h41.16.295,group3.1-3.2-social-tom,2023.2.2,Win32,144.9275362,65c5074098b851296ff0b7ed,66423487767615d97820e371,,,,,,,,,,,53.1033,87.5842,space,34.428,,[],[],[],[],[],[],1,0,1,0,1,,,,,,,,,,,,,,,,,,,,,,,,,,,,,,,,,,,,,,,,,,,,,,,,,,,,,,,,,,,,,,,,,,,,,,,,,,,,,,,,
,,,,,,660d77f6ef756b2e670c240b,2024-05-13_11h41.16.295,group3.1-3.2-social-tom,2023.2.2,Win32,144.9275362,65c5074098b851296ff0b7ed,66423487767615d97820e371,,,,,,,,,,,87.589,106.3967,space,18.7835,,[],[],[],[],[],[],2,0,2,0,1,,,,,,,,,,,,,,,,,,,,,,,,,,,,,,,,,,,,,,,,,,,,,,,,,,,,,,,,,,,,,,,,,,,,,,,,,,,,,,,,
,,,,,,660d77f6ef756b2e670c240b,2024-05-13_11h41.16.295,group3.1-3.2-social-tom,2023.2.2,Win32,144.9275362,65c5074098b851296ff0b7ed,66423487767615d97820e371,,,,,,,,,,,106.4012,141.9034,space,35.4915,,[],[],[],[],[],[],3,0,3,0,1,,,,,,,,,,,,,,,,,,,,,,,,,,,,,,,,,,,,,,,,,,,,,,,,,,,,,,,,,,,,,,,,,,,,,,,,,,,,,,,,
,,,,,,660d77f6ef756b2e670c240b,2024-05-13_11h41.16.295,group3.1-3.2-social-tom,2023.2.2,Win32,144.9275362,65c5074098b851296ff0b7ed,66423487767615d97820e371,,,,,,,,,,,141.9081,151.2438,space,9.3237,,[],[],[],[],[],[],4,0,4,0,1,,,,,,,,,,,,,,,,,,,,,,,,,,,,,,,,,,,,,,,,,,,,,,,,,,,,,,,,,,,,,,,,,,,,,,,,,,,,,,,,
,,,,,,660d77f6ef756b2e670c240b,2024-05-13_11h41.16.295,group3.1-3.2-social-tom,2023.2.2,Win32,144.9275362,65c5074098b851296ff0b7ed,66423487767615d97820e371,,,,,,,,,,,,,,,,,,,,,,,,,,,151.2496,153.8271,153.837,1,audio/Narrative13Situation2.wav,155.8411,,155.8411,185.5774,"[[47,597],[48,680],[48.6,763],[49,847],[49,930],[49,1013],[49,1097],[49,1180],[49,1263],[49,1346],[49,1430],[49,1513],[49,1596],[49,1680],[49,1763],[49,1846],[49,1930],[49,2013],[49,2097],[49,2180],[49,2263],[49,2346],[49,2430],[49,2513],[49,2596],[49,2680],[49,2763],[49,2847],[49,2930],[49,3013],[49,3096],[49,3180],[49,3263],[49,3347],[49,3430],[49,3513],[49,3596],[49,3680],[49,3763],[52.7,3847],[61,3930],[65.3,4013],[65.6,4097],[66.3,4180],[66.3,4263],[66.3,4347],[66.3,4430],[66.3,4513],[66.3,4596],[66.3,4680],[65.8,4763],[65.7,4846],[65.7,4930],[65.7,5013],[65.7,5097],[65.7,5180],[65.7,5263],[65.7,5347],[65.7,5430],[65.7,5513],[65.7,5597],[65.7,5680],[65.7,5763],[65.7,5847],[65.7,5930],[65.7,6013],[65.7,6097],[65.7,6180],[65.7,6263],[65.7,6347],[66.3,6430],[68.1,6513],[72.7,6597],[75.8,6680],[79.3,6763],[81.6,6847],[82.2,6930],[82.2,7013],[82.2,7096],[83.1,7180],[83.1,7263],[83.1,7346],[84.1,7430],[87.5,7513],[89.4,7596],[89.4,7680],[89.6,7763],[91.5,7847],[93.1,7930],[94.1,8013],[95.3,8097],[95.9,8180],[97.2,8263],[97.2,8347],[97.2,8430],[97.2,8513],[97.2,8597],[97.2,8680],[97.4,8763],[97.7,8846],[97.7,8930],[97.7,9013],[97.7,9096],[97.7,9180],[97.7,9263],[97.7,9346],[97.7,9430],[97.7,9513],[97.7,9596],[97.7,9680],[97.7,9763],[97.7,9846],[97.7,9930],[97.7,10013],[97.7,10096],[97.7,10180],[97.7,10263],[97.7,10346],[97.7,10430],[97.7,10513],[97.7,10596],[97.7,10680],[97.7,10763],[97.7,10846],[97.7,10930],[97.7,11013],[97.7,11096],[97.7,11180],[97.7,11263],[97.7,11346],[97.7,11430],[97.7,11513],[97.7,11596],[97.7,11680],[97.6,11763],[97.3,11846],[97.3,11930],[97.3,12013],[97.3,12096],[97.2,12180],[97.2,12263],[97.2,12346],[97.2,12430],[97.2,12513],[97.2,12596],[97.2,12680],[97.2,12763],[97.2,12846],[97.2,12930],[97.2,13013],[97.2,13096],[97.1,13180],[97.1,13263],[97.1,13347],[97.1,13430],[97.1,13513],[97.1,13596],[97.1,13680],[97.1,13763],[97.2,13846],[97.2,13930],[97.2,14013],[97.2,14096],[97.2,14180],[97.2,14263],[97.2,14346],[97.5,14430],[98,14513],[98,14596],[98,14680],[98,14763],[98,14846],[98,14930],[98,15013],[97.9,15096],[97.7,15180],[97.6,15263],[97.6,15346],[97.6,15430],[97.6,15513],[97.6,15597],[97.6,15680],[97.6,15763],[97.6,15846],[97.6,15930],[97.6,16013],[97.6,16096],[97.4,16180],[97.4,16263],[97.4,16346],[97.4,16430],[97.4,16513],[97.4,16596],[97.3,16680],[97.3,16763],[97.3,16846],[97.3,16930],[97.3,17013],[97.3,17096],[97.3,17180],[97.3,17263],[97.1,17347],[97.1,17430],[97.1,17513],[97.1,17596],[97.1,17680],[97.1,17763],[97.1,17846],[97.1,17930],[97.1,18013],[97.1,18096],[97.1,18180],[97.1,18263],[97.1,18347],[97.1,18430],[97.1,18513],[97.1,18596],[97.1,18680],[97.1,18763],[97.1,18846],[97.1,18930],[97.1,19013],[97.1,19096],[97.1,19180],[97.1,19263],[97.1,19346],[97.1,19430],[97.1,19513],[97,19596],[97,19680],[97,19763],[97,19846],[97,19930],[97,20013],[97,20096],[97,20180],[97,20263],[97,20346],[97,20430],[96.8,20513],[96.7,20596],[96.7,20680],[96.7,20763],[96.7,20846],[96.5,20930],[96.1,21013],[95.7,21096],[95.4,21180],[95.4,21263],[95.4,21346],[95.4,21430],[95.4,21513],[95.4,21596],[95.4,21680],[95.4,21763],[95.4,21846],[95.4,21930],[95.4,22013],[95.4,22096],[94.8,22180],[93.6,22263],[93.2,22346],[93.2,22430],[93.2,22513],[93.2,22596],[93.2,22680],[93.2,22763],[93.2,22846],[93.2,22930],[93.2,23013],[93.2,23096],[93.8,23180],[93.8,23263],[93.8,23346],[93.8,23430],[93.8,23513],[93.8,23596],[94,23680],[94.1,23763],[94.4,23846],[94.7,23930],[94.7,24013],[94.7,24096],[94.7,24180],[95,24263],[95.3,24346],[95.5,24430],[95.6,24513],[95.6,24596],[95.6,24680],[95.6,24763],[95.5,24846],[95.1,24930],[94.9,25013],[94.9,25096],[94.9,25180],[94.9,25263],[94.8,25346],[94.8,25430],[94.8,25513],[94.6,25596],[94.5,25680],[94.5,25763],[94.5,25846],[94.5,25930],[94.5,26013],[94.2,26096],[94.2,26180],[94.2,26263],[93.9,26346],[93.9,26430],[93.9,26513],[93.6,26596],[93.5,26680],[93.5,26763],[93.5,26846],[93.5,26930],[93.5,27013],[93.5,27096],[93.5,27180],[93.5,27263],[93.5,27346],[93.5,27430],[93.5,27513],[93.5,27596],[93.5,27680],[93.5,27763],[93.5,27846],[93.5,27930],[93.5,28013],[93.5,28096],[93.5,28180],[93.5,28263],[93.5,28346],[93.5,28430],[93.5,28513],[93.5,28596],[93.5,28680],[93.5,28763],[93.5,28846],[93.5,28930],[93.5,29013],[93.5,29096],[93.5,29180],[93.5,29263],[93.5,29346],[93.5,29430],[93.5,29513],[93.5,29596],[93.5,29680]]",1,0,185.5777,197.6953,99.16666985,8.9314,"[{""rating"":99.16666984558105,""responseTime"":8.931399999998519}]",space,11.6019,,197.6954,Not at all,0,197.6975,,,[],,0,0,0,0,1,audio/Narrative13Situation2.wav,audio/Narrative13Situation2.wav,audio/Narrative13Situation2.wav,audio/Narrative13Situation2.wav,2,2,2,2,,,,,,,,,,,,,,,,,,,,,,,,,,,,,,,,,,,,,,,
,,,,,,660d77f6ef756b2e670c240b,2024-05-13_11h41.16.295,group3.1-3.2-social-tom,2023.2.2,Win32,144.9275362,65c5074098b851296ff0b7ed,66423487767615d97820e371,,,,,,,,,,,,,,,,,,,,,,,,,,,,,197.6976,1,audio/Narrative7Situation1.wav,201.1047,space,201.1047,256.9795,"[[999,4],[999,83],[999,166],[999,249],[999,333],[999,416],[999,499],[999,583],[999,666],[999,749],[999,833],[999,916],[999,999],[999,1083],[999,1166],[999,1249],[999,1333],[999,1416],[999,1499],[999,1583],[83.4,1666],[88.3,1749],[89.5,1833],[94.4,1916],[98.8,2000],[99.7,2083],[100,2166],[100,2249],[100,2333],[100,2416],[100,2499],[100,2583],[99.8,2666],[99.3,2749],[99.3,2833],[99.3,2916],[99.3,2999],[99.3,3083],[99.3,3166],[99.3,3249],[99.3,3333],[99.3,3416],[99.3,3499],[99.3,3583],[99.3,3666],[99.3,3749],[99.3,3833],[99.3,3916],[99.2,3999],[99.2,4083],[99.2,4166],[99.2,4249],[99.2,4333],[98.6,4416],[97.7,4499],[96.4,4583],[95.7,4666],[95.7,4749],[95.7,4833],[95.7,4916],[95.7,4999],[96.6,5083],[97.4,5166],[98,5249],[98.1,5333],[98.1,5416],[98.1,5499],[98.1,5583],[98.1,5666],[98.1,5749],[98,5833],[97.9,5916],[97.4,5999],[97.3,6083],[97.3,6166],[97.3,6249],[97.3,6333],[97.3,6416],[97.3,6499],[97.3,6583],[97.3,6666],[97.3,6749],[97.3,6833],[97.3,6916],[97.3,6999],[97.3,7083],[97.3,7166],[97.3,7249],[97.3,7333],[97.3,7416],[97.3,7499],[97.3,7583],[97.3,7666],[97.3,7749],[97.3,7833],[97.3,7916],[97.3,7999],[97.3,8083],[97,8166],[97,8249],[97,8333],[97,8416],[97,8499],[97,8583],[97,8666],[97,8749],[97,8833],[97,8916],[97,8999],[97,9083],[97,9166],[97,9249],[97,9333],[97,9416],[97,9499],[97,9583],[97,9666],[97,9749],[96.8,9833],[96.7,9916],[95.8,9999],[95.5,10083],[95.5,10166],[95.5,10249],[95.5,10333],[95.5,10416],[95.5,10499],[95.5,10583],[95.5,10666],[95.4,10749],[94.9,10833],[94.8,10916],[94.8,10999],[94.8,11083],[94.8,11166],[94.6,11249],[94.6,11333],[94.6,11416],[94.6,11499],[94.6,11583],[94.6,11666],[94.6,11749],[94.6,11833],[94.6,11916],[94.6,11999],[93.4,12083],[87.2,12166],[80.1,12249],[74.8,12333],[73.6,12416],[73.5,12499],[73.5,12583],[73.5,12666],[73.5,12749],[73.5,12833],[73.5,12916],[73.5,12999],[73.5,13083],[73.5,13166],[73.5,13249],[73.5,13333],[73.5,13416],[73.5,13499],[73.5,13583],[75.2,13666],[81.5,13749],[84,13833],[84,13916],[84,13999],[84,14083],[84,14166],[84,14249],[84,14333],[84,14416],[84,14499],[84,14583],[84,14666],[84,14749],[84,14833],[84,14916],[84,14999],[84,15083],[84,15166],[84,15249],[84,15333],[84,15416],[84.1,15499],[84.1,15583],[84.1,15666],[84.1,15749],[84.1,15833],[84.1,15916],[84.1,15999],[84.1,16083],[84.1,16166],[84.1,16249],[84.1,16333],[84.3,16416],[84.3,16499],[84.3,16583],[84.3,16666],[84.3,16749],[84.3,16833],[84.4,16916],[84.6,16999],[84.7,17083],[84.9,17166],[84.9,17249],[84.9,17333],[84.9,17416],[84.9,17499],[84.9,17583],[84.9,17666],[86.3,17749],[91.6,17833],[94.7,17916],[95.3,17999],[95.3,18083],[95.3,18166],[95.3,18249],[95.6,18333],[95.6,18416],[95.6,18499],[95.6,18583],[95.6,18666],[95.8,18749],[95.8,18833],[95.8,18916],[95.8,18999],[95.8,19083],[95.8,19166],[95.8,19249],[95.8,19333],[95.8,19416],[95.8,19499],[95.9,19583],[95.9,19666],[95.9,19749],[96.1,19833],[96.1,19916],[96.3,19999],[96.3,20083],[96.3,20166],[96.3,20249],[96.3,20333],[96.6,20416],[96.6,20499],[96.6,20583],[96.6,20666],[96.6,20749],[96.6,20833],[96.6,20916],[96.6,20999],[96.6,21083],[96.6,21166],[96.6,21249],[96.6,21333],[96.6,21416],[96.6,21499],[96.6,21583],[96.6,21666],[96.6,21749],[96.6,21833],[96.6,21916],[96.6,21999],[96.6,22083],[96.6,22166],[96.6,22249],[96.1,22333],[96,22416],[95.8,22499],[95.8,22583],[95.8,22666],[95.8,22749],[95.8,22833],[95.8,22916],[95.8,22999],[95.8,23083],[95.8,23166],[95.8,23249],[95.8,23333],[95.8,23416],[95.8,23499],[95.8,23583],[95.8,23666],[95.8,23749],[95.8,23833],[95.8,23916],[95.8,23999],[95.8,24083],[95.8,24166],[95.8,24249],[96.1,24333],[96.3,24416],[96.3,24499],[96.3,24583],[96.3,24666],[96.3,24749],[96.7,24833],[96.7,24916],[96.7,24999],[96.7,25083],[96.8,25166],[96.9,25249],[97.2,25333],[97.2,25416],[97.2,25499],[97.2,25583],[97.2,25666],[97.2,25749],[97.2,25833],[97.2,25916],[97.2,25999],[97.2,26083],[97.2,26166],[97.2,26249],[97.2,26333],[97.2,26416],[97.4,26499],[97.4,26583],[97.4,26666],[97.4,26749],[97.4,26833],[97.4,26916],[97.4,26999],[97.4,27083],[97.3,27166],[96.5,27249],[96.4,27333],[96.4,27416],[96.4,27499],[96.4,27583],[96.4,27666],[96.4,27749],[96.4,27833],[96.4,27916],[96.4,27999],[96.4,28083],[96.4,28166],[96.4,28249],[96.4,28333],[96.4,28416],[96.4,28499],[96.6,28583],[96.9,28666],[96.9,28749],[96.9,28833],[96.9,28916],[96.9,28999],[96.9,29083],[96.9,29166],[96.9,29249],[96.9,29333],[96.9,29416],[96.9,29499],[96.9,29583],[96.9,29666],[96.9,29749],[96.9,29833],[96.9,29916],[96.9,29999],[96.9,30083],[96.9,30166],[96.9,30249],[97.1,30333],[97.1,30416],[97.1,30499],[97.1,30583],[97.1,30666],[97.1,30749],[97.1,30833],[97.1,30916],[97.1,30999],[97.1,31083],[97.1,31166],[97.1,31249],[97.1,31333],[97.1,31416],[97.1,31499],[97.2,31583],[97.4,31666],[97.8,31749],[98.3,31833],[98.4,31916],[98.4,31999],[98.4,32083],[98.4,32166],[98.4,32249],[98.5,32333],[99,32416],[99.4,32499],[99.6,32583],[99.7,32666],[99.7,32749],[99.7,32833],[99.7,32916],[99.7,32999],[99.7,33083],[99.7,33166],[99.7,33249],[99.7,33333],[99.7,33416],[99.9,33499],[100,33583],[100,33666],[100,33749],[100,33833],[100,33916],[100,33999],[100,34666],[100,34749],[100,34833],[100,34916]]",1,0,256.9796,265.0697,99.58333969,4.1013,"[{""rating"":99.58333969116211,""responseTime"":4.101300000004471}]",space,7.5704,0.0015,265.0697,Half the time,50,265.0759,,,[],,0,1,1,1,1,audio/Narrative7Situation1.wav,audio/Narrative8Situation1.wav,audio/Narrative5Situation1.wav,audio/Narrative6Situation1.wav,2,5,5,2,3.3943,,,,,,,,,,,,,,,,,,,,,,,,,,,,,,,,,,,,,,
,,,,,,660d77f6ef756b2e670c240b,2024-05-13_11h41.16.295,group3.1-3.2-social-tom,2023.2.2,Win32,144.9275362,65c5074098b851296ff0b7ed,66423487767615d97820e371,,,,,,,,,,,,,,,,,,,,,,,,,,,,,265.0759,1,audio/Narrative7Situation2.wav,268.0766,,268.0766,275.5419,"[[999,0],[999,83],[999,166],[999,249],[999,333],[999,416],[999,500],[999,583],[999,666],[999,749],[999,833],[999,916],[999,1000],[999,1083],[999,1166],[999,1250],[999,1333],[999,1416],[999,1500],[80.7,1583],[81,1666],[81,1749],[81,1833],[81,1916],[82.7,2000],[84.4,2083],[84.4,2166],[84.4,2249],[84.4,2333],[84.4,2416],[84.4,2499],[84.4,2583],[84.4,2666],[84.4,2750],[84.4,2833],[84.4,2916],[84.4,2999],[84.4,3083],[84.4,3166],[84.4,3250],[84.4,3333],[84.4,3416],[84.4,3499],[84.4,3583],[84.4,3666],[84.4,3749],[84.4,3833],[84.4,3916],[84.4,3999],[84.4,4083],[84.4,4166],[84.4,4250],[84.4,4333],[84.4,4416],[84.4,4499],[84.4,4583],[84.4,4666],[84.4,4750],[84.4,4833],[84.4,4916],[84.4,5000],[84.7,5083],[85,5166],[85,5249],[85,5333],[85,5416],[85.2,5499],[85.2,5583],[85.3,5666],[85.3,5749],[85.3,5833],[85.3,5916],[85.3,5999],[85.3,6083],[85.3,6166],[85.3,6250],[85.3,6333],[85.3,6416],[85.3,6499],[85.3,6583],[85.3,6666],[85.3,6749],[85.3,6833],[85.3,6916],[85.6,6999],[85.9,7083],[86.8,7166],[87.2,7249],[87.5,7333],[88,7416]]",1,0,275.542,281.1112,96.66666985,3.6889,"[{""rating"":96.66666984558105,""responseTime"":3.688900000005958}]",space,5.0516,,281.1113,Not at all,0,281.1128,,,[],,0,2,2,2,1,audio/Narrative7Situation2.wav,audio/Narrative8Situation2.wav,audio/Narrative5Situation2.wav,audio/Narrative6Situation2.wav,3,3,3,3,,,,,,,,,,,,,,,,,,,,,,,,,,,,,,,,,,,,,,,
,,,,,,660d77f6ef756b2e670c240b,2024-05-13_11h41.16.295,group3.1-3.2-social-tom,2023.2.2,Win32,144.9275362,65c5074098b851296ff0b7ed,66423487767615d97820e371,,,,,,,,,,,,,,,,,,,,,,,,,,,,,281.1129,1,audio/Narrative7Situation3.wav,289.1182,,289.1183,298.3612,"[[999,5],[999,83],[999,166],[999,249],[999,333],[999,416],[999,499],[999,583],[999,666],[999,749],[999,833],[999,916],[999,999],[77.7,1083],[78.4,1166],[78.8,1249],[79.1,1333],[81.4,1416],[84.3,1499],[85,1583],[86.8,1666],[88.8,1749],[89.7,1833],[89.9,1916],[89.9,1999],[89.9,2083],[89.9,2166],[90,2249],[90.2,2333],[90.2,2416],[90.2,2499],[90.2,2583],[90.2,2666],[90.2,2749],[90.2,2833],[90.2,2916],[90.2,2999],[90.2,3083],[90.2,3166],[90.2,3249],[90.2,3333],[90.2,3416],[90.2,3499],[90.2,3583],[90.2,3666],[90.2,3749],[90.2,3833],[90.2,3916],[90.2,3999],[90.2,4083],[90.2,4166],[90.2,4249],[90.2,4333],[90.2,4416],[90.2,4499],[90.2,4583],[90.2,4666],[90.2,4749],[90.2,4833],[90.2,4916],[90.2,4999],[90.2,5083],[90.2,5166],[90.2,5249],[90.2,5333],[90.2,5416],[90.1,5499],[90.1,5583],[90.1,5666],[90.1,5749],[90.1,5833],[90.1,5916],[90.1,5999],[90.1,6083],[90.1,6166],[90.1,6249],[89.6,6333],[86.7,6416],[86.4,6499],[86.4,6583],[86.4,6666],[86.4,6749],[86.4,6833],[86,6916],[85.7,6999],[85.1,7083],[83.1,7166],[81.4,7249],[81.1,7333],[81.1,7416],[81.1,7499],[81.1,7583],[81.1,7666],[81.1,7749],[81.1,7833],[81.1,7916],[81.8,7999],[82.8,8083],[83.8,8166],[84.3,8249],[85.3,8333],[85.8,8416],[85.8,8499],[85.8,8583],[85.8,8666],[85.8,8749],[85.8,8833],[85.8,8916],[85.8,8999],[85.8,9083],[85.8,9166]]",1,0,298.3613,307.9584,91.35416985,7.5428,"[{""rating"":91.35416984558105,""responseTime"":7.542799999997044}]",space,9.0763,0.0011,307.9585,Half the time,50,307.9604,,,[],,0,3,3,3,1,audio/Narrative7Situation3.wav,audio/Narrative8Situation3.wav,audio/Narrative5Situation3.wav,audio/Narrative6Situation3.wav,8,4,3,5,,,,,,,,,,,,,,,,,,,,,,,,,,,,,,,,,,,,,,,
,,,,,,660d77f6ef756b2e670c240b,2024-05-13_11h41.16.295,group3.1-3.2-social-tom,2023.2.2,Win32,144.9275362,65c5074098b851296ff0b7ed,66423487767615d97820e371,,,,,,,,,,,,,,,,,,,,,,,,,,,,,307.9606,1,audio/Narrative7Situation4.wav,310.9653,,310.9653,322.6806,"[[999,0],[999,83],[999,166],[999,250],[999,333],[999,416],[999,500],[999,583],[999,666],[999,750],[68.2,1000],[68.4,1083],[69.1,1166],[69.6,1250],[70.3,1333],[70.6,1416],[70.9,1500],[71.8,1583],[72.8,1666],[73.1,1750],[73.1,1833],[73.1,1916],[73.4,1999],[73.6,2083],[73.6,2166],[74.1,2250],[75.3,2333],[75.9,2416],[76.5,2499],[76.6,2583],[76.9,2666],[76.9,2750],[76.9,2833],[76.9,2916],[76.9,3000],[76.9,3083],[76.9,3166],[76.7,3250],[73.2,3333],[66.9,3416],[65.2,3500],[65.2,3583],[65.2,3666],[65.2,3750],[65.2,3833],[65.2,3916],[65.2,3999],[65.2,4083],[65.2,4166],[65.2,4250],[65.2,4333],[65.2,4416],[65.2,4500],[65.2,4583],[65.2,4666],[65.2,4750],[66.3,4833],[68.5,4916],[69.7,5000],[69.9,5083],[70,5166],[70,5249],[70,5333],[70,5416],[70,5499],[70,5583],[70,5666],[70,5750],[71.5,5833],[74.3,5916],[78.4,6000],[79.6,6083],[79.6,6166],[79.6,6250],[79.6,6333],[80,6416],[81,6500],[81.3,6583],[81.5,6666],[81.6,6749],[82.5,6833],[83.4,6916],[83.4,6999],[83.4,7083],[83.6,7166],[86.8,7250],[86.9,7333],[86.9,7416],[86.9,7500],[86.9,7583],[86.9,7666],[86.9,7749],[86.9,7833],[86.9,7916],[86.9,8000],[86.9,8083],[86.9,8166],[86.9,8250],[88.5,8333],[91.3,8416],[91.6,8499],[91.6,8583],[91.6,8666],[91.6,8750],[91.6,8833],[91.6,8916],[91.6,9000],[91.6,9083],[91.6,9166],[91.6,9249],[91.6,9333],[91.6,9416],[91.6,9499],[91.6,9583],[91.6,9666],[91.6,9750],[91.6,9833],[91.6,9916],[91.6,10000],[91.6,10083],[91.6,10166],[91.6,10250],[91.6,10333],[91.6,10416],[91.6,10500],[91.6,10583],[91.6,10666],[91.9,10750],[91.9,10833],[91.9,10916],[91.9,11000],[91.9,11083],[91.9,11166],[91.9,11250],[91.9,11333],[91.9,11416],[91.9,11500],[91.9,11583],[91.9,11666]]",1,0,322.6808,326.4374,99.16666985,1.9786,"[{""rating"":99.16666984558105,""responseTime"":1.9786000000015065}]",space,3.2359,,326.4375,All the time,100,326.439,,,[],,0,4,4,4,1,audio/Narrative7Situation4.wav,audio/Narrative8Situation4.wav,audio/Narrative5Situation4.wav,audio/Narrative6Situation4.wav,3,3,1,2,,,,,,,,,,,,,,,,,,,,,,,,,,,,,,,,,,,,,,,
,,,,,,660d77f6ef756b2e670c240b,2024-05-13_11h41.16.295,group3.1-3.2-social-tom,2023.2.2,Win32,144.9275362,65c5074098b851296ff0b7ed,66423487767615d97820e371,,,,,,,,,,,,,,,,,,,,,,,,,,,,,326.4391,1,audio/Narrative7Situation5.wav,331.4444,,331.4445,339.9167,"[[67.3,499],[66.7,583],[67.2,666],[70.8,750],[76.4,833],[80.3,916],[82.2,999],[82.5,1083],[82.5,1166],[82.5,1249],[82.5,1333],[82.5,1416],[82.5,1499],[82.5,1583],[82.5,1666],[82.3,1749],[82.3,1833],[82.3,1916],[82.3,1999],[82.3,2083],[82.1,2166],[81.8,2249],[80,2333],[76.8,2416],[76.7,2499],[76.7,2583],[76.7,2666],[76.7,2749],[76.7,2833],[76.9,2916],[78.1,2999],[80,3083],[80.9,3166],[80.9,3249],[80.9,3333],[80.9,3416],[80.9,3499],[80.9,3583],[80.9,3666],[80.9,3749],[80.9,3833],[80.9,3916],[80.9,3999],[80.8,4083],[80.8,4166],[80.8,4249],[80.8,4333],[80.8,4416],[80.8,4499],[80.7,4583],[80.4,4666],[80.1,4749],[79.5,4833],[78.9,4916],[78.5,4999],[78,5083],[78,5166],[78,5249],[78,5333],[78,5416],[78,5499],[78,5583],[78,5666],[77.1,5749],[76.8,5833],[76.8,5916],[76.8,5999],[76.8,6083],[76.8,6166],[76.8,6249],[76.8,6333],[76.8,6416],[76.8,6499],[76.8,6583],[76.8,6666],[76.8,6749],[76.8,6833],[76.8,6916],[76.8,6999],[76.8,7083],[76.8,7166],[76.8,7249],[76.8,7333],[76.8,7416],[76.7,7499],[76.7,7583],[76.7,7666],[76.7,7749],[76.7,7833],[76,7916],[75.5,7999],[75.4,8083],[75.4,8166],[75.4,8249],[75.4,8333],[75.4,8416]]",1,0,339.9168,346.2777,78.85416985,2.7208,"[{""rating"":78.85416984558105,""responseTime"":2.720799999997041}]",space,5.8421,,346.2778,All the time,100,346.2835,,,[],,0,5,5,5,1,audio/Narrative7Situation5.wav,audio/Narrative8Situation5.wav,audio/Narrative5Situation5.wav,audio/Narrative6Situation5.wav,5,2,5,2,,,,,,,,,,,,,,,,,,,,,,,,,,,,,,,,,,,,,,,
,,,,,,660d77f6ef756b2e670c240b,2024-05-13_11h41.16.295,group3.1-3.2-social-tom,2023.2.2,Win32,144.9275362,65c5074098b851296ff0b7ed,66423487767615d97820e371,,,,,,,,,,,,,,,,,,,,,,,,,,,,,346.2836,1,audio/Narrative7Situation6.wav,349.2846,,349.2846,359.243,"[[53.4,500],[54.4,583],[54.9,666],[55.6,750],[58.8,833],[59,916],[59,1000],[59,1083],[59,1166],[58.8,1250],[58.8,1333],[58.8,1416],[59,1500],[59.3,1583],[59.7,1666],[60,1750],[60,1833],[60,1916],[60,2000],[60,2083],[60.8,2166],[61.9,2250],[63,2333],[63.1,2416],[63.1,2499],[63.1,2583],[63.1,2666],[63.1,2750],[63.1,2833],[63.1,2916],[63.1,3000],[63.1,3083],[67,3166],[69.3,3250],[69.3,3333],[69.3,3416],[69.3,3499],[69.3,3583],[69.3,3666],[69.3,3750],[71.8,3833],[74.2,3916],[74.2,3999],[74.2,4083],[74.2,4166],[74.2,4249],[74.2,4333],[74.2,4416],[74.2,4500],[74.2,4583],[74.2,4666],[74.2,4750],[74.2,4833],[74.2,4916],[74.2,5000],[74.2,5083],[74.2,5166],[74.2,5249],[74.2,5333],[74.2,5416],[74.2,5500],[74.2,5583],[74.2,5666],[74.2,5750],[74.2,5833],[74.2,5916],[74.2,6000],[74.2,6083],[74.2,6166],[74.2,6250],[74.2,6333],[74.2,6416],[74.2,6499],[74.2,6583],[74.2,6666],[74.9,6750],[75.9,6833],[77.4,6916],[78.6,7000],[79.3,7083],[80.8,7166],[82.2,7250],[84.1,7333],[84.1,7416],[84.1,7500],[84.1,7583],[84.1,7666],[84.4,7750],[84.4,7833],[84.4,7916],[84.4,8000],[84.4,8083],[84.4,8166],[84.7,8250],[84.7,8333],[84.7,8416],[84.7,8500],[84.7,8583],[84.7,8666],[84.7,8750],[84.7,8833],[84.2,8916],[84,9000],[83.9,9083],[83.6,9166],[83.6,9250],[83.6,9333],[83.6,9416],[83.6,9500],[83.6,9583],[83.6,9666],[83.6,9750],[83.6,9833],[83.6,9916]]",1,0,359.2432,362.1944,78.54166985,1.454,"[{""rating"":78.54166984558105,""responseTime"":1.4540000000000077}]",space,2.4308,0.0015,362.1945,All the time,100,362.1956,,,[],,0,6,6,6,1,audio/Narrative7Situation6.wav,audio/Narrative8Situation6.wav,audio/Narrative5Situation6.wav,audio/Narrative6Situation6.wav,3,2,3,2,,,,,,,,,,,,,,,,,,,,,,,,,,,,,,,,,,,,,,,
,,,,,,660d77f6ef756b2e670c240b,2024-05-13_11h41.16.295,group3.1-3.2-social-tom,2023.2.2,Win32,144.9275362,65c5074098b851296ff0b7ed,66423487767615d97820e371,,,,,,,,,,,,,,,,,,,,,,,,,,,,,362.1958,1,audio/Narrative7Situation7.wav,367.2012,,367.2012,384.361,"[[56.7,666],[66.1,750],[70.9,833],[70.9,916],[70.9,1000],[73.4,1083],[81.3,1166],[81.3,1250],[81.3,1333],[81.3,1416],[80.5,1500],[79.6,1583],[78.5,1666],[77.9,1750],[77.9,1833],[77.9,1916],[77.9,2000],[77.9,2083],[77.9,2166],[77.9,2250],[77.9,2333],[77.9,2416],[77.9,2500],[77.9,2583],[77.9,2666],[77.7,2750],[77.3,2833],[77.1,2916],[76.7,2999],[76.7,3083],[76.7,3166],[76.7,3250],[76.7,3333],[76.7,3416],[76.7,3499],[76.5,3583],[76.4,3666],[76.4,3750],[76.4,3833],[76.4,3916],[76.4,3999],[76.4,4083],[76.4,4166],[76.4,4250],[76.4,4333],[76.4,4416],[76.4,4500],[76.4,4583],[76.4,4666],[76.4,4750],[75.4,4833],[74.3,4916],[74.3,5000],[74.3,5083],[74.3,5166],[74.3,5250],[78.8,5333],[79,5416],[79,5500],[79,5583],[79,5666],[79,5750],[79,5833],[79,5916],[79,6000],[78.9,6083],[78.6,6166],[78.5,6250],[78.5,6333],[78.5,6416],[78.5,6500],[78.5,6583],[78.5,6666],[78.5,6750],[77,6833],[75.5,6916],[72.3,7000],[69.5,7083],[68.5,7166],[68.2,7250],[67.6,7333],[67.6,7416],[67.4,7500],[67.4,7583],[67.4,7666],[67.4,7750],[67.4,7833],[67.4,7916],[67.4,7999],[67.4,8083],[67.4,8166],[67.4,8250],[68.8,8333],[71.8,8416],[72.8,8500],[73.8,8583],[75.3,8666],[75.8,8749],[77.5,8833],[78.3,8916],[78.3,9000],[78.4,9083],[78.4,9166],[78.8,9250],[79,9333],[79.1,9416],[79.1,9500],[79.1,9583],[79.1,9666],[79.1,9750],[79.1,9833],[79.1,9916],[79.1,10000],[79.1,10083],[79.1,10166],[79.1,10250],[79.1,10333],[79.1,10416],[79.1,10500],[79.1,10583],[79.1,10666],[79.1,10750],[79.1,10833],[79.1,10916],[79.1,11000],[79.1,11083],[79.1,11166],[79.1,11250],[79.1,11333],[79.1,11416],[79.1,11500],[79.1,11583],[79.1,11666],[79.1,11750],[79.1,11833],[79.1,11916],[79.1,12000],[79.1,12083],[79.1,12166],[79.1,12250],[79.1,12333],[79.1,12416],[79.1,12500],[79.1,12583],[79.1,12666],[79.1,12749],[79.1,12833],[79.1,12916],[79.1,13000],[79.1,13083],[79.1,13166],[79.1,13249],[79.1,13333],[79.1,13416],[79.1,13499],[79.1,13583],[79.1,13666],[79.1,13750],[79.1,13833],[79.1,13916],[79.1,13999],[79.1,14083],[79.1,14166],[79.1,14250],[79.1,14333],[79.1,14416],[79.1,14499],[79.1,14583],[79.1,14666],[79.1,14749],[79.1,14833],[79.1,14916],[79.1,15000],[79.1,15083],[79.1,15166],[79.1,15250],[79.1,15333],[79.1,15416],[79.3,15500],[79.6,15583],[80,15666],[80.9,15749],[80.9,15833],[80.9,15916],[80.9,15999],[80.9,16083],[80.9,16166],[80.9,16250],[80.9,16333],[83.3,16416],[83.4,16500],[83.8,16583],[83.8,16666],[84.1,16749],[84.4,16833],[84.6,16916],[85,17000],[85.3,17083]]",1,0,384.3612,392.6317,81.875,1.51,"[{""rating"":81.875,""responseTime"":1.509999999999991}]",space,7.7551,,392.6318,Not at all,0,407.3817,0.104169846,9.7625,"[{""rating"":0.10416984558105358,""responseTime"":9.762499999999989}]",space,0,7,7,7,1,audio/Narrative7Situation7.wav,audio/Narrative8Situation7.wav,audio/Narrative5Situation7.wav,audio/Narrative6Situation7.wav,5,3,4,5,,,14.2289,,,,,,,,,,,,,,,,,,,,,,,,,,,,,,,,,,,,
,,,,,,660d77f6ef756b2e670c240b,2024-05-13_11h41.16.295,group3.1-3.2-social-tom,2023.2.2,Win32,144.9275362,65c5074098b851296ff0b7ed,66423487767615d97820e371,,,,,,,,,,,,,,,,,,,,,,,,,,,,,407.3866,1,audio/Narrative7Situation8.wav,409.3886,,409.3887,419.3956,"[[999,0],[999,83],[999,166],[999,250],[999,333],[999,416],[999,499],[999,583],[999,666],[999,749],[999,833],[999,916],[999,999],[68.5,1083],[68.8,1166],[68.8,1249],[68.8,1333],[68.8,1416],[68.8,1499],[68.8,1583],[68.8,1666],[68.6,1749],[68.2,1833],[68,1916],[68.4,2000],[69.1,2083],[70,2166],[70,2249],[70,2333],[70.5,2416],[70.5,2499],[70.5,2583],[70.5,2666],[71.1,2749],[70.5,2833],[70.5,2916],[70.5,2999],[70.4,3083],[70.2,3166],[70.2,3249],[70.2,3333],[70.2,3416],[69.9,3500],[69.4,3583],[69.3,3666],[69.3,3749],[69.3,3833],[69.3,3916],[69.3,3999],[69.3,4083],[69.3,4166],[69.2,4249],[69.2,4333],[68.9,4416],[68.9,4499],[68.9,4583],[68.9,4666],[68.9,4749],[68.9,4833],[68.9,4916],[68.9,4999],[68.9,5083],[68.9,5166],[68.9,5249],[68.9,5333],[68.9,5416],[68.9,5499],[68.9,5583],[68.9,5666],[68.9,5749],[68.9,5833],[68.9,5916],[68.9,5999],[68.9,6083],[68.9,6166],[68.9,6249],[68.9,6333],[68.9,6416],[68.9,6499],[68.9,6583],[68.9,6666],[68.9,6749],[68.9,6833],[68.9,6916],[68.9,6999],[68.9,7083],[68.9,7166],[68.9,7249],[69,7333],[69.1,7416],[69.1,7499],[69.1,7583],[69.1,7666],[69.1,7749],[69.1,7833],[69.1,7916],[69.1,7999],[69.1,8083],[69.4,8166],[70.5,8249],[70.9,8333],[71.3,8416],[71.3,8499],[71.3,8583],[71.3,8666],[71.3,8749],[71.3,8833],[71.3,8916],[71.3,8999],[72,9083],[72.5,9166],[72.8,9249],[74,9333],[75.5,9416],[76.8,9499],[78.4,9583],[79.7,9666],[80.3,9749],[82.9,9833],[84.7,9916],[85.6,9999]]",1,0,419.3957,421.6941,83.22916985,1.0874,"[{""rating"":83.22916984558105,""responseTime"":1.0873999999984676}]",space,1.78,0.0017,421.6942,All the time,100,421.6957,,,[],,0,8,8,8,1,audio/Narrative7Situation8.wav,audio/Narrative8Situation8.wav,audio/Narrative5Situation8.wav,audio/Narrative6Situation8.wav,2,3,3,5,,,,,,,,,,,,,,,,,,,,,,,,,,,,,,,,,,,,,,,
,,,,,,660d77f6ef756b2e670c240b,2024-05-13_11h41.16.295,group3.1-3.2-social-tom,2023.2.2,Win32,144.9275362,65c5074098b851296ff0b7ed,66423487767615d97820e371,,,,,,,,,,,,,,,,,,,,,,,,,,,,,421.6958,1,audio/Narrative7Situation9.wav,423.7011,,423.7011,432.3191,"[[59.8,500],[66.3,583],[70.2,666],[73.4,749],[77.8,833],[78.4,916],[78.4,999],[78.4,1083],[77.3,1166],[76,1249],[75.1,1333],[75.1,1416],[75.1,1499],[75.1,1583],[75.1,1666],[75.1,1749],[75.1,1833],[74.5,1916],[73.8,1999],[73.6,2083],[73.6,2166],[73.2,2249],[72.3,2333],[72.3,2416],[72.3,2499],[72.3,2583],[72.3,2666],[72.3,2749],[72.2,2833],[73.3,2916],[73.8,3000],[74,3083],[74.6,3166],[75.3,3249],[75.9,3333],[76.6,3416],[76.9,3500],[78.1,3583],[78.4,3666],[78.4,3749],[78.4,3833],[78.4,3916],[78.4,3999],[78.4,4083],[78.4,4166],[78.4,4249],[78.4,4333],[78.4,4416],[78.4,4499],[78.4,4583],[78.4,4666],[78.4,4749],[78.4,4833],[78.6,4916],[78.6,4999],[78.8,5083],[78.8,5166],[78.8,5249],[78.8,5333],[78.8,5416],[78.8,5499],[78.8,5583],[78.8,5666],[78.8,5749],[78.8,5833],[78.8,5916],[78.8,5999],[79,6083],[79.1,6166],[79.4,6249],[80.3,6333],[80.9,6416],[81.3,6499],[81.3,6583],[81.6,6666],[81.9,6749],[82.8,6833],[83.3,6916],[83.6,6999],[85.3,7083],[87.8,7166],[88.1,7249],[88.1,7333],[88.1,7416],[88.1,7499],[88.1,7583],[88.1,7666],[88.1,7749],[88.1,7833],[88.1,7916],[88.1,7999],[88.1,8083],[88.1,8166],[88.1,8249],[88.1,8333],[88.1,8416],[88.1,8499],[88.1,8583]]",1,0,432.3193,434.8052,85,1.3678,"[{""rating"":85,""responseTime"":1.3677999999969757}]",space,1.9674,0.0027,434.8052,Half the time,50,434.8071,,,[],,0,9,9,9,1,audio/Narrative7Situation9.wav,audio/Narrative8Situation9.wav,audio/Narrative5Situation9.wav,audio/Narrative6Situation9.wav,2,3,3,4,,,,,,,,,,,,,,,,,,,,,,,,,,,,,,,,,,,,,,,
,,,,,,660d77f6ef756b2e670c240b,2024-05-13_11h41.16.295,group3.1-3.2-social-tom,2023.2.2,Win32,144.9275362,65c5074098b851296ff0b7ed,66423487767615d97820e371,,,,,,,,,,,,,,,,,,,,,,,,,,,,,434.8074,1,audio/Narrative8Situation1.wav,439.8121,,439.8121,455.7219,"[[999,4],[999,83],[999,166],[999,250],[999,333],[999,416],[999,499],[999,583],[999,666],[999,749],[999,833],[999,916],[999,1000],[999,1083],[999,1166],[999,1250],[999,1333],[999,1416],[999,1499],[999,1583],[999,1666],[999,1750],[67.8,1833],[67.4,1916],[67,1999],[66.9,2083],[66.9,2166],[66.8,2250],[65.4,2333],[64.2,2416],[64.2,2499],[64.2,2583],[64.2,2666],[64.2,2750],[65.3,2833],[65.3,2916],[65.3,2999],[65.3,3083],[65.3,3166],[65.4,3249],[63.3,3333],[62.9,3416],[62.6,3499],[60.8,3583],[59.8,3666],[59.8,3750],[59.8,3833],[59.8,3916],[59.8,4000],[60.5,4083],[60.9,4166],[61.6,4250],[62.4,4333],[62.7,4416],[63.8,4499],[65.8,4583],[67.2,4666],[67.2,4749],[67.2,4833],[67.2,4916],[67.2,5000],[67.2,5083],[67.2,5166],[67.2,5249],[67.2,5333],[67.2,5416],[67.2,5499],[67.2,5583],[67.2,5666],[67.2,5750],[67.2,5833],[67.2,5916],[67.2,6000],[67.2,6083],[67.2,6166],[67.2,6249],[67.2,6333],[67.2,6416],[67.2,6499],[67.2,6583],[67.2,6666],[67.2,6749],[67.2,6833],[67.2,6916],[67.2,7000],[67.2,7083],[67.2,7166],[67.2,7250],[67.2,7333],[67.2,7416],[67.5,7500],[68,7583],[69.3,7666],[69.7,7749],[69.7,7833],[69.7,7916],[69.7,8000],[69.7,8083],[69.7,8166],[69.7,8249],[69.7,8333],[69.7,8416],[69.7,8499],[69.7,8583],[69.7,8666],[69.7,8749],[69.7,8833],[69.7,8916],[69.7,9000],[69.7,9083],[69.7,9166],[69.2,9249],[68.5,9333],[68.2,9416],[68.2,9500],[67.7,9583],[67.3,9666],[67,9749],[66.1,9833],[65.8,9916],[65.8,10000],[65.8,10083],[65.8,10166],[65.8,10249],[65.8,10333],[65.8,10416],[65.8,10499],[65.8,10583],[65.8,10666],[65.8,10749],[65.8,10833],[65.8,10916],[66.3,11000],[66.3,11083],[66.3,11166],[66.8,11250],[67.2,11333],[67.8,11416],[67.8,11499],[67.8,11583],[67.8,11666],[67.8,11749],[67.8,11833],[67.8,11916],[67.8,11999],[67.8,12083],[67.8,12166],[67.8,12250],[67.8,12333],[67.8,12416],[67.8,12499],[68,12583],[68.8,12666],[69.7,12749],[69.9,12833],[69.9,12916],[70,12999],[70.3,13083],[70.3,13166],[70.3,13249],[70.3,13333],[70.3,13416],[70.3,13499],[70.3,13583],[70.3,13666],[70.3,13749],[70.3,13833],[70.3,13916],[70.3,13999],[70.3,14083],[70.3,14166],[70.3,14249],[70.3,14333],[70.3,14416],[70.3,14499],[70.3,14583],[70.3,14666],[70.3,14750],[70.5,14833],[70.9,14916],[71.3,14999],[71.8,15083],[71.9,15166],[72.4,15249],[73.1,15333],[73.4,15416],[73.8,15499],[73.8,15583],[73.8,15666],[74,15749],[74.7,15833]]",1,0,455.722,461.2496,68.64583969,1.272,"[{""rating"":68.64583969116211,""responseTime"":1.2719999999999914}]",space,5.0069,0.0009,461.2496,Half the time,50,461.2551,,,[],,0,10,10,10,1,audio/Narrative8Situation1.wav,audio/Narrative7Situation1.wav,audio/Narrative6Situation1.wav,audio/Narrative5Situation1.wav,5,2,2,5,,,,,,,,,,,,,,,,,,,,,,,,,,,,,,,,,,,,,,,
,,,,,,660d77f6ef756b2e670c240b,2024-05-13_11h41.16.295,group3.1-3.2-social-tom,2023.2.2,Win32,144.9275362,65c5074098b851296ff0b7ed,66423487767615d97820e371,,,,,,,,,,,,,,,,,,,,,,,,,,,,,461.2552,1,audio/Narrative8Situation2.wav,464.2565,,464.2566,474.3606,"[[62.2,833],[62.4,916],[62.7,999],[63,1083],[63.8,1166],[64.1,1249],[65.6,1333],[68.1,1416],[69.7,1499],[69.7,1583],[69.7,1666],[69.7,1749],[69.7,1833],[69.7,1916],[69.7,1999],[69.7,2083],[69.7,2166],[69.7,2249],[69.7,2333],[69.7,2416],[69.7,2499],[69.7,2583],[69.7,2666],[69.7,2749],[69.7,2833],[69.7,2916],[69.7,2999],[69.7,3083],[69.7,3166],[69.7,3249],[69.7,3333],[69.7,3416],[69.7,3499],[69.7,3583],[69.7,3666],[69.7,3749],[69.7,3833],[69.7,3916],[69.9,3999],[70,4083],[70.2,4166],[70.6,4249],[70.9,4333],[70.9,4416],[70.9,4499],[70.9,4583],[71.1,4666],[71.3,4749],[71.5,4833],[71.5,4916],[71.5,4999],[71.5,5083],[71.5,5166],[71.5,5249],[71.6,5333],[72.7,5416],[73,5499],[73,5583],[73,5666],[73,5749],[73,5833],[73,5916],[73,5999],[73,6083],[73,6166],[73,6249],[73,6333],[73,6416],[73,6499],[73,6583],[73,6666],[73,6749],[73,6833],[73,6916],[73,6999],[73,7083],[73,7166],[73,7249],[73,7333],[73,7416],[73,7499],[73,7583],[73,7666],[73,7749],[73,7833],[73,7916],[73,7999],[73,8083],[73,8166],[73,8249],[73.1,8333],[73.1,8416],[73.1,8499],[73.3,8583],[74,8666],[74.3,8749],[74.7,8833],[74.7,8916],[74.7,8999],[74.7,9083],[75.3,9166],[76.1,9249],[76.8,9333],[78.1,9416],[79.1,9499],[79.3,9583],[79.3,9666],[80.6,9749],[81.6,9833],[81.6,9916],[81.6,9999],[81.6,10083]]",1,0,474.3606,476.6106,80.41666985,1.2042,"[{""rating"":80.41666984558105,""responseTime"":1.2042000000029702}]",space,1.7378,0.0028,476.6106,Half the time,50,476.6115,,,[],,0,11,11,11,1,audio/Narrative8Situation2.wav,audio/Narrative7Situation2.wav,audio/Narrative6Situation2.wav,audio/Narrative5Situation2.wav,3,3,3,3,,,,,,,,,,,,,,,,,,,,,,,,,,,,,,,,,,,,,,,
,,,,,,660d77f6ef756b2e670c240b,2024-05-13_11h41.16.295,group3.1-3.2-social-tom,2023.2.2,Win32,144.9275362,65c5074098b851296ff0b7ed,66423487767615d97820e371,,,,,,,,,,,,,,,,,,,,,,,,,,,,,476.6116,1,audio/Narrative8Situation3.wav,480.6177,,480.6177,502.9855,"[[999,4],[999,83],[999,166],[999,249],[999,333],[999,416],[999,499],[68.2,583],[68.9,666],[70.3,749],[70.3,833],[70.3,916],[70.6,999],[70.6,1083],[70.6,1166],[70.6,1249],[71.5,1333],[72.5,1416],[72.8,1499],[73.4,1583],[74.7,1666],[78.1,1749],[78.8,1833],[78.8,1916],[78.8,1999],[80.1,2083],[80.9,2166],[81.3,2249],[81.9,2333],[82.6,2416],[85.8,3249],[85.8,3333],[85.8,3416],[86.1,3499],[88.5,3583],[92.1,3666],[92.2,3749],[92.2,3833],[92.2,3916],[92.2,3999],[92.2,4083],[92.2,4166],[92.2,4249],[92.2,4333],[92.2,4416],[92.2,4499],[92.2,4583],[92.2,4666],[92.2,4749],[92.2,4833],[91.8,4916],[90.7,4999],[90.5,5083],[90.5,5166],[90.5,5249],[90.5,5333],[89.3,5416],[88.5,5499],[88.5,5583],[88.5,5666],[88.5,5749],[88.5,5833],[88.5,5916],[88.5,5999],[88.5,6083],[88.8,6166],[88.8,6249],[88.8,6333],[88.8,6416],[88.8,6499],[88.8,6583],[88.8,6666],[88.8,6749],[88.8,6832],[88.8,6916],[88.8,6999],[88.8,7083],[88.8,7166],[88.8,7249],[89,7333],[89.1,7416],[89.1,7499],[89.1,7582],[89.1,7666],[89.1,7749],[89.9,7832],[90.3,7916],[90.3,7999],[90.3,8083],[90.3,8166],[90.5,8249],[90.5,8333],[90.5,8416],[90.5,8499],[90.5,8583],[90.5,8666],[90.5,8749],[90.5,8833],[90.5,8916],[90.5,8999],[90.5,9083],[90.5,9166],[90.5,9249],[90.5,9332],[90.5,9416],[90.5,9499],[90.5,9583],[90.5,9666],[90.5,9749],[90.5,9832],[90.5,9916],[90.5,9999],[90.5,10083],[90.5,10166],[90.5,10249],[90.5,10333],[90.5,10416],[90.5,10499],[90.5,10582],[90.5,10666],[90.5,10749],[90.5,10832],[90.5,10916],[90.5,10999],[90.5,11083],[90.5,11166],[90.5,11249],[90.5,11333],[90.5,11416],[90.5,11499],[90.5,11583],[90.5,11666],[90.5,11749],[90.5,11832],[90.5,11916],[90.5,11999],[90.5,12083],[90.5,12166],[90.5,12249],[90.5,12332],[90.5,12416],[90.5,12499],[90.5,12583],[90.5,12666],[90.5,12749],[90.5,12833],[90.5,12916],[90.5,12999],[90.5,13082],[90.5,13166],[90.5,13249],[90.5,13333],[90.5,13416],[90.5,13499],[90.5,13583],[90.5,13666],[90.5,13749],[90.5,13833],[90.5,13916],[90.5,13999],[90.5,14083],[90.5,14166],[90.5,14249],[90.5,14332],[90.5,14416],[90.5,14499],[90.5,14582],[90.5,14666],[90.5,14749],[90.5,14832],[90.5,14916],[90.5,14999],[90.5,15083],[90.5,15166],[90.5,15249],[90.5,15332],[90.5,15416],[90.5,15499],[90.5,15582],[90.5,15666],[90.5,15749],[90.5,15833],[90.5,15916],[90.5,15999],[90.5,16083],[90.5,16166],[90.5,16249],[90.5,16333],[90.5,16416],[90.5,16499],[90.5,16582],[90.5,16666],[90.5,16749],[90.5,16833],[90.5,16916],[90.5,16999],[90.5,17083],[90.5,17166],[90.5,17249],[90.5,17332],[90.5,17416],[90.5,17499],[90.5,17582],[90.5,17666],[90.5,17749],[90.5,17833],[90.4,17916],[90.2,17999],[90.1,18082],[90.1,18166],[90.1,18249],[90.1,18333],[90.1,18416],[90.1,18499],[90.1,18582],[90.1,18666],[90.1,18749],[90.1,18833],[90.1,18916],[90.1,18999],[90.1,19083],[90.1,19166],[90.1,19249],[90.1,19333],[90.1,19416],[90.1,19499],[90.1,19582],[90.1,19666],[90.1,19749],[90.1,19832],[90.1,19916],[90.1,19999],[90.1,20082],[90.1,20166],[89.8,20249],[89.6,20333],[89.6,20416],[89.6,20499],[89.6,20582],[89.6,20666],[89.6,20749],[89.6,20833],[89.6,20916],[89.6,20999],[89.6,21082],[89.6,21166],[89.6,21249],[89.6,21332],[89.6,21416],[89.6,21499],[89.6,21582],[89.6,21666],[89.6,21749],[89.6,21832],[89.6,21916],[89.6,21999],[89.6,22082],[89.6,22166],[89.6,22249],[89.6,22332]]",1,0,502.9856,506.0827,87.91666985,1.8713,"[{""rating"":87.91666984558105,""responseTime"":1.871300000004453}]",space,2.5772,0.0018,506.0827,All the time,100,506.0842,,,[],,0,12,12,12,1,audio/Narrative8Situation3.wav,audio/Narrative7Situation3.wav,audio/Narrative6Situation3.wav,audio/Narrative5Situation3.wav,4,8,5,3,,,,,,,,,,,,,,,,,,,,,,,,,,,,,,,,,,,,,,,
,,,,,,660d77f6ef756b2e670c240b,2024-05-13_11h41.16.295,group3.1-3.2-social-tom,2023.2.2,Win32,144.9275362,65c5074098b851296ff0b7ed,66423487767615d97820e371,,,,,,,,,,,,,,,,,,,,,,,,,,,,,506.0843,1,audio/Narrative8Situation4.wav,509.0896,,509.0897,523.2493,"[[82.6,83],[82.6,166],[82.6,249],[82.3,333],[82,416],[81.7,500],[80.7,583],[79.9,666],[79.9,749],[79.7,833],[79.5,916],[79.5,999],[79.3,1083],[78.3,1166],[77.3,1250],[76.4,1333],[76.4,1416],[76.4,1499],[76.4,1583],[76.4,1666],[76.4,1749],[76.4,1833],[76.4,1916],[75.8,1999],[75.5,2083],[75.5,2166],[75.5,2249],[75.5,2333],[75.5,2416],[75.5,2499],[75.5,2583],[75.5,2666],[75.4,2749],[75.4,2833],[75.1,2916],[74.5,2999],[73.9,3083],[73.9,3166],[73.9,3249],[73.9,3333],[73.9,3416],[73.6,3499],[73.6,3583],[73.6,3666],[73.6,3749],[73.6,3833],[73.6,3916],[73.6,3999],[73.2,4083],[72.9,4166],[72.3,4249],[72.3,4333],[72.3,4416],[72.1,4500],[72.1,4583],[72.1,4666],[72.1,4749],[70.1,4833],[68.2,4916],[68.2,4999],[68.2,5083],[68.2,5166],[68.2,5249],[68.2,5333],[68.2,5416],[68.2,5499],[68.2,5583],[68.8,5666],[68.8,5749],[69,5833],[69.9,5916],[70,5999],[70.1,6083],[70.1,6166],[70.4,6249],[71.8,6333],[73,6416],[73,6499],[73,6583],[73,6666],[73,6749],[73,6833],[73,6916],[73,6999],[73,7083],[73,7166],[73,7250],[73,7333],[73.3,7416],[77.7,7500],[78,7583],[78,7666],[78.8,7750],[80.5,7833],[80.5,7916],[80.6,7999],[82.2,8083],[84.6,8166],[84.7,8249],[84.7,8333],[84.7,8416],[84.7,8499],[84.7,8583],[84.7,8666],[84.7,8749],[84.7,8833],[84.7,8916],[84.7,8999],[84.7,9083],[84.7,9166],[84.7,9249],[84.7,9333],[84.7,9416],[84.7,9499],[84.7,9583],[84.7,9666],[84.7,9749],[84.7,9833],[84.7,9916],[84.7,9999],[84.7,10083],[85,10166],[85.3,10249],[85.8,10333],[86.6,10416],[87.4,10499],[87.7,10583],[87.7,10666],[87.7,10749],[87.7,10833],[87.7,10916],[87.7,10999],[87.7,11083],[87.7,11166],[87.7,11249],[87.7,11333],[87.7,11416],[87.7,11499],[87.7,11583],[87.7,11666],[87.7,11749],[87.7,11833],[87.7,11916],[87.7,11999],[87.7,12083],[87.7,12166],[87.7,12249],[87.7,12333],[87.7,12416],[87.7,12499],[87.7,12583],[87.7,12666],[87.7,12749],[87.7,12833],[87.7,12916],[87.7,12999],[87.7,13083],[87.7,13166],[87.7,13249],[87.7,13333],[87.7,13416],[87.7,13499],[87.7,13583],[87.7,13666],[87.6,13749],[87.3,13833],[87,13916],[87,13999],[87,14083]]",1,0,523.2494,525.8881,84.47916985,1.571,"[{""rating"":84.47916984558105,""responseTime"":1.5710000000000264}]",space,2.1294,,525.8882,All the time,100,525.8893,,,[],,0,13,13,13,1,audio/Narrative8Situation4.wav,audio/Narrative7Situation4.wav,audio/Narrative6Situation4.wav,audio/Narrative5Situation4.wav,3,3,2,1,,,,,,,,,,,,,,,,,,,,,,,,,,,,,,,,,,,,,,,
,,,,,,660d77f6ef756b2e670c240b,2024-05-13_11h41.16.295,group3.1-3.2-social-tom,2023.2.2,Win32,144.9275362,65c5074098b851296ff0b7ed,66423487767615d97820e371,,,,,,,,,,,,,,,,,,,,,,,,,,,,,525.8894,1,audio/Narrative8Situation5.wav,527.8952,,527.8952,536.1243,"[[999,0],[999,83],[999,166],[999,249],[78.1,333],[79.5,416],[79.7,499],[79.6,583],[78.9,666],[77.3,750],[76.5,833],[76.5,916],[76.4,999],[76,1083],[75.4,1166],[74.8,1250],[74.8,1333],[74.8,1416],[74.8,1499],[74.8,1583],[74.8,1666],[74.8,1749],[74.8,1833],[74.8,1916],[74.8,1999],[74.8,2083],[74.8,2166],[74.8,2249],[74.8,2333],[76.9,2416],[78.3,2499],[79.4,2583],[80.5,2666],[82.5,2750],[83,2833],[83,2916],[83.1,2999],[83.1,3083],[83.1,3166],[83.1,3249],[83.1,3333],[83.4,3416],[84.1,3500],[84.6,3583],[85.2,3666],[85.9,3749],[88.1,3833],[88.6,3916],[88.6,3999],[88.6,4083],[88.6,4166],[88.6,4249],[88.6,4333],[88.6,4416],[88.6,4499],[88.6,4583],[88.6,4666],[88.6,4749],[89.1,4833],[89.7,4916],[90,4999],[90.3,5083],[90.6,5166],[90.6,5249],[90.6,5333],[90.6,5416],[90.6,5499],[90.9,5583],[90.9,5666],[90.9,5749],[90.9,5833],[90.9,5916],[90.9,5999],[90.9,6083],[90.9,6166],[90.9,6249],[90.9,6333],[90.9,6416],[90.9,6499],[90.9,6583],[90.9,6666],[90.9,6749],[90.9,6833],[90.9,6916],[90.9,6999],[90.9,7083],[90.9,7166],[90.9,7249],[90.9,7333],[90.9,7416],[90.9,7499],[90.9,7583],[90.9,7666],[90.9,7749],[90.9,7833],[90.9,7916],[90.9,7999],[90.9,8083],[90.9,8166]]",1,0,536.1243,542.9229,89.79166985,1.1864,"[{""rating"":89.79166984558105,""responseTime"":1.1863999999985708}]",space,6.2794,,542.923,Half the time,50,542.9293,,,[],,0,14,14,14,1,audio/Narrative8Situation5.wav,audio/Narrative7Situation5.wav,audio/Narrative6Situation5.wav,audio/Narrative5Situation5.wav,2,5,2,5,,,,,,,,,,,,,,,,,,,,,,,,,,,,,,,,,,,,,,,
,,,,,,660d77f6ef756b2e670c240b,2024-05-13_11h41.16.295,group3.1-3.2-social-tom,2023.2.2,Win32,144.9275362,65c5074098b851296ff0b7ed,66423487767615d97820e371,,,,,,,,,,,,,,,,,,,,,,,,,,,,,542.9294,1,audio/Narrative8Situation6.wav,544.9299,,544.9299,551.3881,"[[54.6,499],[55.8,583],[58.4,666],[84.7,749],[88.4,833],[88.4,916],[88.3,1000],[86.5,1083],[78,1166],[72.5,1249],[72.5,1333],[72.4,1416],[72.4,1499],[72.4,1583],[72.4,1666],[72.4,1749],[73.4,1833],[74.4,1916],[75,1999],[75.2,2083],[75.2,2166],[75.2,2249],[75.2,2333],[75.2,2416],[75.2,2499],[75.2,2583],[75.2,2666],[75.2,2749],[75.2,2833],[75.2,2916],[75.6,2999],[75.9,3083],[76.6,3166],[77.2,3249],[78.6,3333],[79.1,3416],[79.4,3499],[80.3,3583],[81.6,3666],[82.2,3749],[82.4,3833],[82.4,3916],[82.4,3999],[82.4,4083],[82.4,4166],[82.4,4249],[82.4,4333],[82.4,4416],[82.4,4499],[82.4,4583],[82.8,4666],[83,4749],[83.1,4833],[83.3,4916],[83.3,4999],[83.3,5083],[83.3,5166],[83.4,5249],[83.6,5333],[84,5416],[84.1,5499],[84.1,5583],[84.1,5666],[84.1,5749],[84.1,5833],[84.1,5916],[84.1,5999],[84.1,6083],[84.1,6166],[84.1,6249],[84.1,6333],[84.1,6416]]",1,0,551.3882,554.277,84.16666985,1.1165,"[{""rating"":84.16666984558105,""responseTime"":1.1164999999999736}]",space,2.3695,,554.2771,All the time,100,554.2784,,,[],,0,15,15,15,1,audio/Narrative8Situation6.wav,audio/Narrative7Situation6.wav,audio/Narrative6Situation6.wav,audio/Narrative5Situation6.wav,2,3,2,3,,,,,,,,,,,,,,,,,,,,,,,,,,,,,,,,,,,,,,,
,,,,,,660d77f6ef756b2e670c240b,2024-05-13_11h41.16.295,group3.1-3.2-social-tom,2023.2.2,Win32,144.9275362,65c5074098b851296ff0b7ed,66423487767615d97820e371,,,,,,,,,,,,,,,,,,,,,,,,,,,,,554.2784,1,audio/Narrative8Situation7.wav,557.2839,,557.2839,569.3534,"[[999,4],[999,83],[999,166],[999,249],[999,333],[70.7,416],[70.7,500],[70.7,583],[70.7,666],[70.7,750],[70.9,833],[71.3,916],[72.2,1000],[74.1,1083],[74.4,1166],[75.3,1250],[75.3,1333],[75.3,1416],[75.3,1500],[75.3,1583],[75.3,1666],[75.3,1750],[75.3,1833],[75.3,1916],[75.3,1999],[75.3,2083],[75.3,2166],[75.3,2249],[74.9,2333],[74.5,2416],[73.9,2500],[73.5,2583],[73.5,2666],[72.9,2750],[72.6,2833],[72.3,2916],[72.1,2999],[72.1,3083],[72.1,3166],[72.1,3250],[72.1,3333],[72.1,3416],[72.1,3499],[72.1,3583],[72.1,3666],[72.1,3750],[72.1,3833],[72.1,3916],[71.9,4000],[71.7,4083],[71.4,4166],[71.4,4250],[71.4,4333],[71.4,4416],[70.4,4500],[69.9,4583],[69.5,4666],[69.5,4750],[69.5,4833],[69.5,4916],[69.5,4999],[69.5,5083],[69.5,5166],[69.5,5249],[69.5,5333],[69.5,5416],[69.5,5499],[69.4,5583],[69.4,5666],[69.4,5749],[69.4,5833],[69.6,5916],[69.7,6000],[69.9,6083],[70,6166],[70,6250],[70,6333],[70,6416],[70,6500],[70,6583],[70,6666],[70,6750],[70,6833],[70,6916],[69.8,7000],[69.6,7083],[69.6,7166],[69.6,7249],[69.6,7333],[69.6,7416],[69.6,7499],[69.2,7583],[68.9,7666],[68.4,7749],[68.4,7833],[68.4,7916],[68.4,8000],[68.4,8083],[68.4,8166],[68.4,8249],[68.4,8333],[68.4,8416],[68.3,8500],[68.3,8583],[68.2,8666],[68.2,8749],[68.2,8833],[68.2,8916],[68.2,8999],[68.2,9083],[68.2,9166],[68.2,9249],[68.2,9333],[68.2,9416],[68.2,9499],[68.2,9583],[68.2,9666],[68.2,9749],[68.2,9833],[68.2,9916],[68.2,9999],[68.2,10083],[68.2,10166],[68.2,10249],[68.2,10333],[68.2,10416],[68.2,10500],[68.2,10583],[68.2,10666],[68.2,10750],[69,10833],[70.6,10916],[71.1,11000],[71.3,11083],[72.1,11166],[73,11250],[73.1,11333],[73.1,11416],[73.2,11500],[74.3,11583],[74.9,11666],[75,11750],[75.4,11833],[75.8,11916],[76.5,12000]]",1,0,569.3534,571.3602,76.35416985,0.939,"[{""rating"":76.35416984558105,""responseTime"":0.9389999999999645}]",space,1.4892,,571.3603,Not at all,0,571.3618,,,[],,0,16,16,16,1,audio/Narrative8Situation7.wav,audio/Narrative7Situation7.wav,audio/Narrative6Situation7.wav,audio/Narrative5Situation7.wav,3,5,5,4,,,,,,,,,,,,,,,,,,,,,,,,,,,,,,,,,,,,,,,
,,,,,,660d77f6ef756b2e670c240b,2024-05-13_11h41.16.295,group3.1-3.2-social-tom,2023.2.2,Win32,144.9275362,65c5074098b851296ff0b7ed,66423487767615d97820e371,,,,,,,,,,,,,,,,,,,,,,,,,,,,,571.362,1,audio/Narrative8Situation8.wav,574.3672,,574.3673,587.2075,"[[53.8,250],[55.4,333],[58.2,416],[60,499],[60.3,583],[62.7,666],[64.3,749],[67.8,833],[68.1,916],[68.1,999],[68.1,1083],[68.1,1166],[68.1,1249],[68.1,1333],[68.1,1416],[68.1,1499],[68.1,1583],[68.1,1666],[68.1,1749],[68.1,1833],[68.1,1916],[68.1,1999],[68.1,2083],[68.1,2166],[68.1,2249],[68.1,2333],[68.1,2416],[68.1,2499],[68.1,2583],[68.4,2666],[68.8,2749],[69.3,2833],[69.6,2916],[70,2999],[70.3,3083],[70.8,3166],[70.9,3249],[70.9,3333],[70.9,3416],[70.9,3499],[70.9,3583],[70.9,3666],[70.9,3749],[70.9,3833],[70.9,3916],[70.9,3999],[70.9,4083],[70.9,4166],[70.9,4249],[70.9,4333],[70.9,4416],[70.9,4499],[70.9,4583],[70.9,4666],[71.3,4749],[71.3,4833],[71.3,4916],[71.3,4999],[71.3,5083],[71.3,5166],[71.5,5249],[71.5,5333],[71.8,5416],[71.9,5499],[71.9,5583],[71.9,5666],[71.9,5749],[71.9,5833],[71.9,5916],[71.9,5999],[71.9,6083],[71.9,6166],[71.9,6249],[71.9,6333],[71.9,6416],[71.9,6499],[71.9,6583],[71.9,6666],[71.9,6749],[71.9,6833],[71.9,6916],[71.9,6999],[71.9,7083],[71.9,7166],[72.5,7249],[74.1,7333],[75.9,7416],[76.3,7499],[76.3,7583],[76.3,7666],[77.2,7749],[78.4,7833],[78.8,7916],[78.8,7999],[79.4,8083],[80.8,8166],[81.5,8249],[81.5,8333],[81.5,8416],[81.9,8499],[82.4,8583],[82.7,8666],[82.7,8749],[82.7,8833],[82.7,8916],[82.7,8999],[82.7,9083],[82.7,9166],[82.7,9249],[82.7,9333],[82.7,9416],[82.7,9499],[82.7,9583],[82.7,9666],[82.7,9749],[82.7,9833],[82.7,9916],[82.7,9999],[82.7,10083],[82.7,10166],[82.7,10249],[82.7,10333],[82.7,10416],[82.7,10499],[82.7,10583],[82.7,10666],[82.7,10749],[82.7,10833],[82.7,10916],[82.7,10999],[82.7,11083],[82.7,11166],[82.7,11249],[82.7,11333],[82.7,11416],[82.7,11499],[82.7,11583],[82.7,11666],[82.7,11749],[82.7,11833],[82.7,11916],[82.7,11999],[82.7,12083],[82.7,12166],[82.7,12249],[82.7,12333],[82.7,12416],[82.7,12499],[82.7,12583],[82.7,12666],[82.7,12749],[82.7,12833]]",1,0,587.2076,589.4435,82.70833969,0.8326,"[{""rating"":82.70833969116211,""responseTime"":0.8326000000015483}]",space,1.7167,,589.4436,All the time,100,589.4451,,,[],,0,17,17,17,1,audio/Narrative8Situation8.wav,audio/Narrative7Situation8.wav,audio/Narrative6Situation8.wav,audio/Narrative5Situation8.wav,3,2,5,3,,,,,,,,,,,,,,,,,,,,,,,,,,,,,,,,,,,,,,,
,,,,,,660d77f6ef756b2e670c240b,2024-05-13_11h41.16.295,group3.1-3.2-social-tom,2023.2.2,Win32,144.9275362,65c5074098b851296ff0b7ed,66423487767615d97820e371,,,,,,,,,,,,,,,,,,,,,,,,,,,,,589.4452,1,audio/Narrative8Situation9.wav,592.4504,,592.4504,603.756,"[[67.7,83],[67.6,166],[67.6,250],[67.6,333],[67.6,416],[67.6,500],[67.8,583],[68.8,666],[69.7,750],[71.1,833],[71.6,916],[71.6,1000],[72.1,1083],[72.8,1166],[73.1,1250],[73.3,1333],[73.5,1416],[73.5,1500],[73.5,1583],[73.5,1666],[75,1750],[75.3,1833],[75.3,1916],[75.3,2000],[75.3,2083],[75.3,2166],[75.3,2250],[75.3,2333],[75.3,2416],[75.5,2500],[75.8,2583],[75.9,2666],[75.9,2750],[75.9,2833],[75.9,2916],[75.9,3000],[75.9,3083],[75.9,3166],[75.9,3250],[75.9,3333],[75.9,3416],[75.9,3499],[75.9,3583],[75.9,3666],[75.9,3750],[76,3833],[76,3916],[76,4000],[76,4083],[75.8,4166],[75.6,4250],[75.6,4333],[76.3,4416],[76.5,4500],[76.6,4583],[76.6,4666],[76.6,4750],[76.6,4833],[76.6,4916],[76.6,5000],[76.6,5083],[76.6,5166],[76.9,5250],[76.9,5333],[76.9,5416],[76.9,5500],[77.2,5583],[78.4,5666],[79.3,5750],[79.4,5833],[79.4,5916],[79.4,6000],[79.4,6083],[79.4,6166],[79.4,6250],[79.4,6333],[79.4,6416],[79.4,6500],[79.7,6583],[79.7,6666],[80.6,6750],[81.1,6833],[81.5,6916],[82.2,7000],[83.6,7083],[84.9,7166],[86.6,7250],[87.4,7333],[87.4,7416],[87.4,7500],[87.5,7583],[87.7,7666],[87.7,7750],[87.7,7833],[87.7,7916],[87.7,8000],[87.7,8083],[87.7,8166],[87.7,8250],[87.7,8333],[87.7,8416],[87.7,8500],[87.7,8583],[87.6,8666],[87.6,8750],[87.4,8833],[87.4,8916],[87.3,9000],[87.3,9083],[87.3,9166],[87.3,9250],[87.3,9333],[87.3,9416],[87.3,9500],[87.3,9583],[87.3,9666],[87.3,9750],[87.3,9833],[87.3,9916],[87.3,9999],[87.3,10083],[87.3,10166],[87.3,10249],[87.3,10333],[87.3,10416],[87.3,10500],[87.3,10583],[87.3,10666],[87.3,10749],[87.3,10833],[87.3,10916],[87.3,11000],[87.3,11083],[87.3,11166],[87.3,11249]]",1,0,603.7561,606.0407,88.85416985,1.3343,"[{""rating"":88.85416984558105,""responseTime"":1.3342999999970289}]",space,1.766,0.0007,606.0407,Half the time,50,606.0425,,,[],,0,18,18,18,1,audio/Narrative8Situation9.wav,audio/Narrative7Situation9.wav,audio/Narrative6Situation9.wav,audio/Narrative5Situation9.wav,3,2,4,3,,,,,,,,,,,,,,,,,,,,,,,,,,,,,,,,,,,,,,,
,,,,,,660d77f6ef756b2e670c240b,2024-05-13_11h41.16.295,group3.1-3.2-social-tom,2023.2.2,Win32,144.9275362,65c5074098b851296ff0b7ed,66423487767615d97820e371,,,,,,,,,,,,,,,,,,,,,,,,,,,609.5944,612.1727,612.1785,2,audio/Narrative13Situation2.wav,612.1785,,612.1785,641.9156,"[[999,0],[999,77],[999,160],[999,244],[999,327],[999,410],[999,494],[999,577],[999,660],[999,744],[999,827],[999,910],[999,994],[53.1,1077],[53.4,1160],[53.4,1244],[53.4,1327],[53.4,1410],[53.4,1494],[55.4,1577],[63.6,1660],[72.1,1744],[72.1,1827],[72.1,1910],[70.3,1994],[68.4,2077],[66.1,2160],[65.4,2244],[64.8,2327],[63.5,2410],[62.7,2494],[62.6,2577],[62.6,2660],[62.7,2744],[64.9,2827],[66.3,2910],[66.9,2994],[66.9,3077],[66.9,3160],[66.9,3244],[66.9,3327],[66.9,3410],[66.9,3494],[68.6,3577],[76.1,3660],[80.6,3744],[80.6,3827],[80.6,3910],[80.8,3994],[82.4,4077],[82.7,4160],[82.7,4244],[82.7,4327],[82.7,4410],[82.7,4494],[81.7,4577],[81.5,4660],[81.5,4744],[81.4,4827],[81.1,4910],[81,4994],[81,5077],[81,5160],[81,5244],[81,5327],[81,5410],[81,5494],[81,5577],[81,5660],[81.6,5744],[81.9,5827],[82.1,5910],[82.2,5994],[82.2,6077],[82.2,6160],[82.2,6244],[82.2,6327],[82.2,6410],[82.2,6494],[82.2,6577],[82.1,6660],[82,6744],[81.7,6827],[81.7,6910],[81.7,6994],[81.7,7077],[81.7,7160],[81.7,7244],[81.7,7327],[81.5,7410],[81.5,7494],[81.5,7577],[81.5,7660],[81.5,7744],[81.5,7827],[81.4,7910],[81.4,7994],[81.4,8077],[81.4,8160],[81.4,8244],[81.1,8327],[81.1,8410],[81.1,8494],[81.1,8577],[81.1,8660],[81,8744],[80.1,8827],[79.3,8910],[78.9,8994],[78.2,9077],[77.7,9160],[77.6,9244],[77.6,9327],[76.9,9410],[75.3,9494],[74.5,9577],[73.9,9660],[72.8,9744],[71.4,9827],[70.7,9910],[69.5,9994],[68.2,10077],[67.1,10160],[67.1,10244],[67.1,10327],[67.1,10410],[67,10494],[67.3,10577],[69.5,10660],[69.2,10744],[68.9,10827],[68.6,10910],[68.6,10994],[68.2,11077],[66.1,11160],[63.9,11244],[62.3,11327],[61.4,11410],[60.7,11494],[55.6,13910],[55.9,13994],[55.9,14077],[55.9,14160],[55.1,14244],[52.8,14327],[51,14410],[50.7,14494],[50.7,14577],[50.7,14660],[50.7,14744],[49.8,14827],[47.2,14910],[44.9,14994],[43.3,15077],[43,15160],[43,15244],[43,15327],[43,15410],[42.8,15494],[42.8,15577],[42.8,15660],[42.8,15744],[42.8,15827],[42.8,15910],[42.8,15994],[42.8,16077],[42.8,16160],[42.8,16244],[42.8,16327],[42.8,16410],[42.8,16494],[42.8,16577],[42.8,16660],[42.8,16743],[42.8,16827],[42.8,16910],[42.8,16994],[42.8,17077],[42.8,17160],[42.8,17244],[42.8,17327],[42.8,17410],[42.8,17494],[42.8,17577],[42.8,17660],[42.3,17744],[41.5,17827],[40.5,17910],[39.6,17993],[39.2,18077],[39.2,18160],[39.2,18244],[38.6,18327],[38.1,19327],[37.6,19410],[37,19494],[36.6,19577],[35.2,19660],[33.5,19744],[33.2,19827],[33.2,19910],[33.2,19994],[33.2,20077],[33.2,20160],[33.2,20244],[33.2,20327],[33.2,20410],[33.2,20494],[33.2,20577],[33.2,20660],[33.2,20743],[33.2,20827],[33.2,20910],[33.2,20994],[33.2,21077],[33.2,21160],[33.2,21244],[33.2,21327],[33.2,21410],[33.2,21494],[33.2,21577],[33.2,21660],[33.2,21743],[33.2,21827],[33.2,21910],[33.2,21993],[33.2,22077],[33.2,22160],[33.2,22244],[33.2,22327],[33.2,22410],[33.2,22493],[33.2,22577],[33.2,22660],[33.2,22744],[33.2,22827],[33.2,22910],[33.2,22994],[34,23077],[34.4,23160],[34.6,23244],[34.6,23327],[34.6,23410],[34.6,23493],[34.6,23577],[34.6,23660],[34.6,23744],[34.6,23827],[34.6,23910],[34.6,23994],[34.6,24077],[34.6,24160],[34.6,24243],[34.6,24327],[34.6,24410],[34.6,24494],[34.6,24577],[34.6,24660],[34.6,24744],[34.6,24827],[35.8,24910],[44.1,24994],[47.4,25077],[47.4,25160],[47.4,25243],[48.4,25327],[50.3,25410],[52.5,25494],[53.6,25577],[55,25660],[60,25744],[62.2,25827],[62.8,25910],[63.4,25994],[63.4,26077],[63.4,26160],[63.4,26244],[63.4,26327],[63.4,26410],[63.8,26493],[64.4,26577],[64.7,26660],[65,26744],[65,26827],[67.2,26910],[69.4,26994],[69.9,27077],[69.9,27160],[69.9,27243],[69.9,27327],[69.9,27410],[71.1,27494],[73.8,27577],[74.3,27660],[74.3,27744],[74.3,27827],[74.3,27910],[74.3,27994],[74.3,28077],[74.3,28160],[74.3,28244],[74.3,28327],[74.3,28410],[74.3,28494],[74.3,28577],[74.3,28660],[74.3,28744],[74.3,28827],[74.3,28910],[74.3,28993],[74.3,29077],[74.3,29160],[74.3,29244],[74.3,29327],[74.3,29410],[74.3,29493],[74.3,29577],[74.3,29660]]",1,0,641.9158,641.9168,,,[],,,,641.9168,Not at all,0,641.9177,,,[],,0,0,0,0,1,audio/Narrative13Situation2.wav,audio/Narrative13Situation2.wav,audio/Narrative13Situation2.wav,audio/Narrative13Situation2.wav,2,2,2,2,,,,,606.0428,609.5896,space,3.0378,,,,,,,,,,,,,,,,,,,,,,,,,,,,,,,
,,,,,,660d77f6ef756b2e670c240b,2024-05-13_11h41.16.295,group3.1-3.2-social-tom,2023.2.2,Win32,144.9275362,65c5074098b851296ff0b7ed,66423487767615d97820e371,,,,,,,,,,,,,,,,,,,,,,,,,,,,,641.9177,2,audio/Narrative5Situation1.wav,646.9225,,646.9226,660.1952,"[[999,4],[999,83],[999,166],[999,249],[999,333],[999,416],[999,499],[999,583],[999,666],[999,749],[999,833],[999,916],[999,999],[999,1083],[999,1166],[999,1249],[999,1333],[999,1416],[999,1499],[999,1583],[999,1666],[999,1749],[999,1833],[999,1916],[999,1999],[36.8,2083],[44.8,2166],[50,2249],[51.3,2333],[51.3,2416],[51.3,2499],[51.3,2583],[51.3,2666],[52.1,2750],[57,2833],[57.7,2916],[57.7,2999],[57.8,3083],[57.8,3166],[57.8,3249],[57.6,3333],[56,3416],[53.5,3499],[52.9,3583],[51.8,3666],[51.7,3749],[51.4,3833],[50.7,3916],[47.6,3999],[46.8,4083],[46.4,4166],[46.4,4249],[46.4,4333],[46.4,4416],[46.4,4499],[46.4,4584],[46,4666],[45.8,4749],[45.8,4833],[45.8,4916],[45.8,4999],[45.8,5083],[45.2,5166],[44.2,5251],[42.9,5334],[41.7,5416],[41,5499],[41,5583],[41,5666],[41,5749],[41,5833],[38.1,5918],[34.8,6001],[34.8,6083],[34.8,6167],[34.8,6249],[34.8,6335],[34.8,6416],[35.3,6501],[42.6,6584],[57.6,6668],[69.8,6751],[73,6833],[73,6916],[73,6999],[73,7084],[73.4,7168],[74,7249],[74.6,7333],[77,7418],[77.5,7499],[77.5,7583],[77.5,7666],[77.6,7749],[77.6,7833],[77.6,7916],[77.6,8001],[77.6,8083],[77.6,8166],[77.6,8249],[77.3,8333],[77.1,8416],[77.1,8499],[77.1,8583],[77.1,8667],[77.1,8749],[77.1,8833],[77.1,8916],[77.1,8999],[77.1,9083],[77.1,9166],[77.1,9249],[77.1,9333],[77.1,9416],[77.1,9499],[77.1,9583],[77.1,9666],[77.1,9749],[77.1,9834],[77.1,9917],[77.1,9999],[77.1,10083],[77.1,10166],[77.1,10249],[77.1,10333],[77.1,10416],[77,10499],[77,10583],[77,10666],[77,10749],[77,10833],[77,10916],[77,10999],[77,11083],[77,11166],[77,11249],[77,11333],[77,11416],[77,11499],[77,11583],[77,11666],[77,11751],[77,11833],[77,11916],[77,11999],[77,12083],[77,12166],[77,12249],[77.1,12334],[77.4,12418],[77.7,12499],[77.8,12584],[77.6,12668],[77.6,12749],[77.6,12833],[78.1,12916],[78.8,12999],[79.3,13085],[79.4,13168],[79.4,13249]]",1,0,660.1953,662.9514,72.8125,1.6972,"[{""rating"":72.8125,""responseTime"":1.6972000000029084}]",space,2.2426,0,662.9515,All the time,100,662.9529,,,[],,0,1,1,1,1,audio/Narrative7Situation1.wav,audio/Narrative8Situation1.wav,audio/Narrative5Situation1.wav,audio/Narrative6Situation1.wav,2,5,5,2,,,,,,,,,,,,,,,,,,,,,,,,,,,,,,,,,,,,,,,
,,,,,,660d77f6ef756b2e670c240b,2024-05-13_11h41.16.295,group3.1-3.2-social-tom,2023.2.2,Win32,144.9275362,65c5074098b851296ff0b7ed,66423487767615d97820e371,,,,,,,,,,,,,,,,,,,,,,,,,,,,,662.953,2,audio/Narrative5Situation2.wav,665.9571,,665.9571,695.4033,"[[999,0],[999,83],[999,166],[999,251],[999,334],[60.7,424],[62.7,508],[63.1,590],[63.1,673],[63.1,756],[63.1,840],[62.6,923],[62.6,1006],[62.4,1092],[62.3,1173],[62.3,1256],[62.3,1340],[64.1,1424],[65.8,1506],[65.8,1590],[65.8,1673],[65.9,1756],[65.9,1840],[65.9,1923],[66.1,2006],[66.3,2090],[66.8,2173],[67.1,2258],[67.7,2341],[67.8,2423],[67.8,2508],[67.8,2590],[67.8,2673],[67.8,2756],[67.8,2840],[67.8,2923],[67.8,3006],[67.8,3090],[67.8,3173],[67.8,3256],[67.8,3340],[67.8,3423],[67.8,3506],[67.8,3590],[67.8,3673],[67.8,3757],[67.8,3840],[67.8,3923],[67.8,4006],[67.8,4090],[67.8,4173],[67.8,4256],[67.8,4340],[67.8,4423],[67.8,4506],[67.8,4590],[67.8,4673],[67.8,4756],[67.8,4841],[67.8,4923],[67.8,5006],[67.8,5090],[67.8,5173],[67.8,5256],[67.8,5340],[67.8,5423],[67.8,5508],[67.8,5590],[68,5679],[68.1,5756],[68.3,5840],[68.4,5923],[68.4,6006],[68.4,6090],[68.4,6173],[68.4,6256],[68.4,6340],[68.4,6423],[68.4,6506],[68.4,6590],[68.4,6674],[68.4,6756],[68.4,6840],[68.4,6923],[68.4,7006],[68.4,7090],[68.4,7173],[65.1,7258],[62.9,7342],[61.1,7425],[59.8,7506],[59.2,7590],[58.3,7674],[57.9,7758],[57.6,7840],[57.6,7923],[57.6,8006],[57.6,8090],[57.6,8173],[57.6,8256],[57.6,8340],[57.6,8423],[57.6,8506],[57.6,8591],[57.6,8673],[57.6,8756],[57.6,8840],[57.6,8924],[57.3,9008],[56.1,9090],[55.7,9173],[55.7,9256],[55.7,9340],[55.7,9423],[55.7,9506],[55.7,9590],[57.5,9675],[60.8,9758],[64,9841],[65.8,9925],[68.8,10008],[69.9,10092],[72.1,10175],[72.5,10256],[72.7,10340],[72.7,10423],[72.7,10506],[72.7,10590],[72.7,10673],[72.7,10756],[72.7,10840],[72.7,10924],[72.7,11006],[72.7,11090],[72.7,11173],[72.7,11256],[72.7,11340],[72.7,11423],[73.8,11508],[74.9,11590],[76.1,11675],[77.5,11758],[78.8,11841],[79.4,11924],[79.4,12006],[79.4,12091],[79.4,12175],[79.4,12256],[79.4,12340],[79.4,12423],[79.4,12506],[79.4,12590],[79.4,12673],[79.4,12756],[79.4,12840],[79.4,12923],[79.4,13006],[79.4,13090],[79.4,13173],[79.4,13256],[79.4,13340],[79.4,13423],[79.4,13506],[79.4,13590],[79.4,13673],[79.4,13756],[79.4,13840],[79.4,13923],[79.4,14008],[79.4,14090],[79.4,14173],[79.4,14256],[79.4,14341],[79.4,14423],[79.4,14508],[79.4,14590],[79.4,14673],[79.4,14756],[79.4,14840],[79.4,14923],[79.4,15006],[79.4,15090],[79.4,15173],[79.4,15256],[79.9,15341],[81.1,15423],[81.9,15506],[82.2,15590],[83.1,15675],[85.1,15756],[85.9,15840],[86.3,15923],[86.3,16008],[86.3,16090],[86.3,16173],[86.3,16256],[86.3,16340],[86.3,16423],[86.3,16506],[86.3,16590],[86.3,16673],[86.3,16756],[86.8,16842],[88.1,16925],[89.1,17008],[90.2,17091],[90.3,17173],[90.8,17256],[91.3,17340],[92.7,17423],[93.4,17506],[93.6,17590],[93.6,17673],[93.6,17756],[93.6,17840],[93.6,17925],[93.6,18006],[93.6,18091],[93.6,18173],[93.6,18258],[93.6,18340],[93.6,18423],[93.6,18508],[93.6,18590],[93.6,18673],[93.6,18756],[93.6,18840],[93.6,18923],[93.6,19006],[93.6,19090],[93.6,19173],[93.6,19256],[93.6,19340],[93.6,19423],[93.6,19506],[93.6,19590],[93.6,19673],[93.6,19757],[93.6,19840],[93.6,19924],[93.6,20008],[93.6,20090],[93.6,20173],[93.6,20256],[93.6,20340],[93.6,20423],[93.6,20506],[93.6,20590],[93.6,20673],[93.6,20756],[93.6,20840],[93.6,20923],[93.6,21006],[93.6,21090],[93.6,21173],[93.6,21256],[93.6,21341],[93.6,21423],[93.6,21506],[93.6,21590],[93.6,21673],[93.6,21758],[93.6,21840],[93.6,21923],[93.6,22006],[93.6,22090],[93.6,22173],[93.6,22256],[93.6,22340],[93.6,22423],[93.6,22506],[93.6,22591],[93.6,22673],[93.6,22756],[93.6,22840],[93.6,22923],[93.6,23006],[93.6,23090],[93.6,23173],[93.6,23256],[93.6,23340],[93.6,23423],[93.6,23507],[93.6,23590],[93.6,23675],[93.6,23756],[93.6,23840],[93.6,23923],[93.6,24006],[93.6,24090],[93.6,24173],[93.6,24256],[93.6,24340],[93.6,24424],[93.6,24508],[93.6,24590],[93.6,24673],[93.6,24756],[93.6,24840],[93.6,24923],[93.6,25006],[93.6,25090],[93.6,25173],[93.6,25256],[93.6,25340],[93.6,25424],[93.6,25506],[93.6,25591],[93.6,25673],[93.6,25756],[93.6,25840],[93.6,25923],[93.6,26006],[93.6,26090],[93.6,26173],[93.6,26256],[93.6,26340],[93.6,26423],[93.6,26506],[93.6,26590],[93.6,26673],[93.6,26756],[93.6,26840],[93.6,26923],[93.6,27006],[93.6,27090],[93.6,27174],[93.6,27256],[93.8,27346],[94,27423],[94.1,27506],[94.1,27590],[94.1,27673],[94.1,27756],[94.1,27840],[94.1,27923],[94.1,28006],[94.1,28090],[94.1,28173],[94.1,28257],[94.1,28340],[94.3,28423],[94.3,28506],[94.3,28590],[94.3,28673],[94.3,28756],[94.3,28840],[94.3,28923],[94.3,29006],[94.3,29090],[94.3,29173],[94.3,29256],[94.3,29341],[94.3,29423]]",1,0,695.4034,697.5764,91.14583969,0.941,"[{""rating"":91.14583969116211,""responseTime"":0.9410000000000309}]",space,1.6484,0.0028,697.5764,Not at all,0,697.5778,,,[],,0,2,2,2,1,audio/Narrative7Situation2.wav,audio/Narrative8Situation2.wav,audio/Narrative5Situation2.wav,audio/Narrative6Situation2.wav,3,3,3,3,,,,,,,,,,,,,,,,,,,,,,,,,,,,,,,,,,,,,,,
,,,,,,660d77f6ef756b2e670c240b,2024-05-13_11h41.16.295,group3.1-3.2-social-tom,2023.2.2,Win32,144.9275362,65c5074098b851296ff0b7ed,66423487767615d97820e371,,,,,,,,,,,,,,,,,,,,,,,,,,,,,697.5779,2,audio/Narrative5Situation3.wav,700.5821,,700.5821,714.4789,"[[82.3,84],[82.3,166],[82.3,249],[82.3,333],[82.3,417],[81,501],[80.1,583],[79.6,666],[79.3,750],[77.9,833],[76.8,916],[76,999],[76,1083],[76,1166],[75.9,1249],[75.9,1333],[75.9,1416],[75.9,1499],[75.9,1585],[74.8,1666],[74.3,1749],[74.2,1833],[74.2,1916],[74.2,1999],[74.2,2083],[74.2,2166],[74.2,2249],[74.2,2333],[74.2,2416],[74.2,2499],[74.1,2583],[74.8,2668],[75,2749],[75.5,2834],[75.9,2916],[76.3,2999],[76.8,3084],[77.3,3168],[78,3251],[78,3334],[78,3416],[78,3499],[78.1,3583],[78.1,3666],[78.1,3749],[78.1,3834],[78.1,3916],[78.1,3999],[78.1,4083],[78.1,4166],[78.1,4249],[78.1,4333],[77.7,4417],[75.5,4501],[70.8,4584],[69.9,4668],[68.5,4750],[65.5,4834],[62.6,4916],[61.4,5001],[60.2,5084],[60.1,5166],[60.1,5249],[60.1,5333],[60.1,5416],[60.1,5499],[60.1,5583],[60.1,5666],[60.1,5749],[60.1,5833],[60.1,5916],[60.1,5999],[57.9,6085],[55.8,6166],[55.8,6251],[55.8,6333],[55.8,6416],[55.8,6499],[55.8,6583],[55.8,6666],[55.8,6750],[55.8,6833],[55.8,6916],[55.8,7001],[55.8,7083],[55.8,7166],[55.8,7249],[55.8,7333],[55.8,7416],[55.8,7499],[55.8,7583],[55.8,7666],[55.8,7749],[55.8,7834],[55.8,7916],[55.8,8001],[55.8,8083],[55.8,8166],[55.8,8250],[55.8,8333],[55.8,8418],[55.8,8499],[55.8,8583],[55.8,8666],[55.8,8749],[55.8,8833],[55.8,8916],[55.8,8999],[55.8,9084],[55.8,9167],[55.8,9249],[55.8,9333],[55.8,9416],[57.4,9501],[61.7,9584],[68.2,9667],[71.1,9751],[72.5,9834],[76.1,9918],[78.4,10001],[79.7,10084],[80,10166],[80,10249],[80.3,10333],[82.7,10418],[82.8,10499],[82.8,10583],[82.8,10666],[82.8,10749],[83.6,10833],[84.3,10916],[85.3,11001],[86.6,11084],[87.2,11166],[87.4,11249],[87.4,11333],[87.8,11417],[89.4,11501],[90.3,11584],[90.6,11668],[90.6,11749],[90.6,11833],[90.6,11916],[91.5,12001],[91.6,12083],[92.1,12168],[92.2,12249],[92.7,12333],[92.8,12416],[93.1,12499],[93.1,12583],[93.3,12666],[93.3,12749],[93.3,12833],[93.3,12916],[93.4,12999],[93.4,13083],[93.4,13168],[93.4,13249],[93.4,13333],[93.4,13416],[93.4,13499],[93.4,13583],[93.4,13666],[93.4,13749],[93.4,13833]]",1,0,714.479,716.4586,83.54166985,1.1554,"[{""rating"":83.54166984558105,""responseTime"":1.155399999998508}]",space,1.453,,716.4586,Not at all,0,716.4594,,,[],,0,3,3,3,1,audio/Narrative7Situation3.wav,audio/Narrative8Situation3.wav,audio/Narrative5Situation3.wav,audio/Narrative6Situation3.wav,8,4,3,5,,,,,,,,,,,,,,,,,,,,,,,,,,,,,,,,,,,,,,,
,,,,,,660d77f6ef756b2e670c240b,2024-05-13_11h41.16.295,group3.1-3.2-social-tom,2023.2.2,Win32,144.9275362,65c5074098b851296ff0b7ed,66423487767615d97820e371,,,,,,,,,,,,,,,,,,,,,,,,,,,,,716.4595,2,audio/Narrative5Situation4.wav,717.4655,,717.4655,737.8388,"[[999,0],[999,83],[73.8,166],[77.5,248],[77.5,331],[77.2,416],[75.6,498],[74.5,583],[72.6,665],[71.5,748],[71.5,831],[72.4,917],[73.6,1000],[75.6,1083],[76.3,1164],[76.5,1248],[77.2,1331],[77.8,1414],[77.7,1498],[77.7,1581],[77.7,1664],[77.7,1748],[79.6,1833],[82.2,1916],[82.4,1998],[82.4,2081],[82.4,2166],[80.4,2250],[80.1,2331],[80.1,2414],[79.8,2499],[79.8,2581],[79.6,2665],[78.6,2750],[77.8,2831],[77.8,2914],[77.8,2998],[77.8,3081],[77.8,3164],[77.8,3248],[77.8,3331],[77.7,3414],[77.6,3498],[77.6,3581],[77.4,3664],[77.4,3748],[77.1,3833],[75.2,3916],[74.2,3998],[73.9,4081],[73.9,4164],[73.9,4248],[73.9,4331],[73.9,4414],[73.6,4498],[73.6,4581],[73.6,4664],[73.6,4748],[73.6,4831],[73.6,4914],[73.6,4998],[73.6,5081],[73.6,5164],[73.6,5248],[73.6,5331],[72.4,5416],[72,5499],[72,5581],[72,5664],[72,5748],[72,5831],[72,5914],[73.4,5998],[76.3,6083],[79.6,6166],[83.4,6250],[85,6333],[86.1,6414],[87.8,6499],[89.6,6581],[89.7,6665],[90,6750],[90,6831],[90,6915],[90,6999],[90,7083],[90,7164],[90,7248],[90,7331],[90,7414],[90,7498],[90,7581],[90,7664],[90,7748],[90,7832],[90,7914],[90,7998],[90,8081],[90,8164],[90,8248],[90,8331],[90,8416],[90,8498],[90,8581],[90,8664],[90,8748],[90,8831],[90,8914],[90,8998],[90,9083],[90,9164],[90,9248],[90,9331],[90,9416],[90,9498],[90,9581],[89.5,9665],[89.3,9748],[89.3,9831],[89.3,9914],[89.3,9998],[89.3,10081],[89.3,10164],[89.3,10249],[89.3,10331],[89.3,10414],[89.6,10499],[89.7,10581],[90,10664],[90.2,10748],[90.2,10831],[90.2,10914],[90.2,10998],[90.2,11081],[90.2,11165],[90.2,11248],[90.2,11331],[90.3,11414],[90.3,11498],[90.6,11581],[90.6,11664],[90.6,11748],[90.6,11831],[90.6,11914],[90.9,11998],[90.9,12081],[91.3,12164],[91.5,12248],[91.5,12331],[91.5,12414],[91.5,12499],[91.6,12582],[92,12664],[92.1,12748],[92.2,12831],[92.2,12914],[92.2,12998],[92.2,13081],[92.2,13164],[92.2,13249],[92.2,13331],[92.2,13414],[92.2,13498],[92.2,13581],[92.2,13664],[92.2,13748],[92.2,13831],[92.2,13914],[92.4,13998],[92.4,14081],[92.4,14164],[92.4,14248],[92.4,14333],[92.4,14414],[92.4,14498],[92.4,14581],[92.4,14666],[92.4,14748],[92.4,14831],[92.4,14914],[92.4,14998],[92.4,15082],[92.4,15164],[92.4,15248],[92.4,15331],[92.4,15414],[92.4,15498],[92.4,15581],[92.4,15664],[92.5,15748],[92.5,15833],[92.5,15914],[92.5,15998],[92.5,16081],[92.5,16164],[92.5,16248],[92.7,16331],[92.7,16414],[92.8,16498],[92.8,16582],[93,16664],[93.1,16750],[93.3,16831],[93.3,16914],[93.3,16998],[93.3,17081],[93.3,17164],[93.3,17248],[93.3,17331],[93.3,17414],[93.3,17498],[93.3,17581],[93.3,17664],[93.3,17748],[93.3,17831],[93.3,17916],[93.3,17998],[93.3,18081],[93.3,18164],[93.3,18248],[93.3,18331],[93.3,18414],[93.3,18498],[93.3,18583],[93.3,18664],[93.3,18748],[93.3,18832],[93.3,18914],[93.3,18998],[93.3,19081],[93.3,19164],[93.3,19248],[93.3,19331],[93.3,19414],[93.3,19498],[93.3,19581],[93.3,19664],[93.3,19748],[93.3,19831],[93.3,19914],[93.3,19998],[93.3,20083],[93.3,20164],[93.3,20249],[93.3,20331]]",1,0,737.839,739.9655,92.29166985,1.1047,"[{""rating"":92.29166984558105,""responseTime"":1.1047000000030494}]",space,1.6117,0.0038,739.9655,All the time,100,739.9668,,,[],,0,4,4,4,1,audio/Narrative7Situation4.wav,audio/Narrative8Situation4.wav,audio/Narrative5Situation4.wav,audio/Narrative6Situation4.wav,3,3,1,2,,,,,,,,,,,,,,,,,,,,,,,,,,,,,,,,,,,,,,,
,,,,,,660d77f6ef756b2e670c240b,2024-05-13_11h41.16.295,group3.1-3.2-social-tom,2023.2.2,Win32,144.9275362,65c5074098b851296ff0b7ed,66423487767615d97820e371,,,,,,,,,,,,,,,,,,,,,,,,,,,,,739.9669,2,audio/Narrative5Situation5.wav,744.9707,,744.9707,760.3805,"[[75.4,416],[75.4,500],[75.4,583],[75.4,666],[77.2,752],[78.6,833],[79.7,918],[80.6,1001],[81.7,1083],[81.8,1166],[81.8,1251],[81.8,1333],[81.8,1416],[81.8,1500],[81.8,1583],[81.8,1666],[81.8,1751],[81.8,1834],[81.8,1916],[81.8,2000],[81.7,2083],[80.7,2166],[79.6,2251],[78.2,2335],[75.4,2418],[73.2,2501],[71.1,2584],[69.2,2668],[67,2751],[66.7,2833],[66.7,2916],[66.7,3000],[66.7,3083],[66.7,3166],[66.7,3250],[65.8,3335],[64.1,3418],[63,3500],[63,3583],[63,3668],[63,3750],[63,3834],[63,3916],[63,4000],[62.6,4083],[62.4,4166],[62.4,4251],[62.4,4333],[62.4,4416],[62.4,4499],[62.4,4583],[62.4,4666],[65.9,4751],[68.1,4834],[73.3,4918],[77.5,5001],[78.6,5083],[78.8,5166],[80.2,5251],[81.6,5333],[81.6,5416],[81.8,5500],[83.5,5585],[87.2,5666],[87.2,5750],[87.2,5833],[87.2,5917],[87.2,6001],[87.2,6084],[87.2,6166],[87.2,6249],[87.2,6333],[87.2,6416],[87.2,6500],[87.2,6583],[87.2,6666],[87.2,6750],[87.2,6833],[87.2,6916],[87.2,7000],[87.2,7083],[87.2,7166],[87.2,7250],[87.2,7333],[87.2,7416],[87.2,7500],[87.2,7583],[87.4,7666],[87.5,7750],[87.8,7833],[88.1,7918],[88.4,8001],[88.8,8083],[88.8,8167],[88.8,8250],[88.8,8333],[88.8,8416],[89,8500],[89.4,8583],[89.7,8666],[90,8749],[90,8833],[90,8916],[90,9000],[90,9083],[90,9166],[90,9249],[90,9333],[90,9416],[90,9499],[90,9583],[90,9666],[90,9750],[90,9833],[90,9918],[90,9999],[90,10083],[90,10167],[90,10250],[90,10333],[90,10416],[90,10500],[90,10583],[90,10666],[90,10750],[90,10833],[90,10916],[90,11000],[90,11083],[90,11167],[90,11250],[90,11333],[90,11416],[90,11500],[90,11584],[90,11666],[90,11749],[90.2,11835],[90.6,11916],[91.3,12001],[91.3,12083],[91.3,12166],[91.3,12250],[91.3,12333],[91.3,12416],[91.3,12500],[91.3,12583],[91.3,12666],[91.3,12749],[91.3,12834],[91.3,12916],[91.3,13000],[91.3,13083],[91.3,13166],[91.3,13249],[91.3,13333],[91.3,13416],[91.3,13500],[91.3,13583],[91.3,13668],[91.3,13750],[91.3,13834],[91.3,13916],[91.3,13999],[91.3,14083],[91.3,14166],[91.3,14251],[91.3,14333],[91.3,14416],[91.3,14499],[91.3,14583],[91.3,14666],[91.3,14749],[91.3,14833],[91.3,14916],[91.3,14999],[91.3,15083],[91.3,15166],[91.3,15250],[91.3,15333]]",1,0,760.3805,766.215,91.77083969,0.8733,"[{""rating"":91.77083969116211,""responseTime"":0.8732999999970161}]",space,5.3171,,766.2151,Not at all,0,773.9998,0.416669846,6.7805,"[{""rating"":0.41666984558105247,""responseTime"":6.780499999999961}]",space,0,5,5,5,1,audio/Narrative7Situation5.wav,audio/Narrative8Situation5.wav,audio/Narrative5Situation5.wav,audio/Narrative6Situation5.wav,5,2,5,2,,,7.2706,,,,,,,,,,,,,,,,,,,,,,,,,,,,,,,,,,,,
,,,,,,660d77f6ef756b2e670c240b,2024-05-13_11h41.16.295,group3.1-3.2-social-tom,2023.2.2,Win32,144.9275362,65c5074098b851296ff0b7ed,66423487767615d97820e371,,,,,,,,,,,,,,,,,,,,,,,,,,,,,773.9999,2,audio/Narrative5Situation6.wav,777.0054,,777.0054,782.672,"[[63.6,583],[63.5,666],[63.5,749],[63.5,833],[63.2,916],[62.2,1001],[60.5,1083],[60.4,1166],[60.4,1249],[61.7,1751],[61.7,1833],[61.4,1916],[61,2000],[60.9,2083],[60.9,2166],[60.9,2249],[67.3,2334],[68.6,2416],[68.6,2500],[68.6,2583],[68.5,2666],[67,2750],[64.5,2834],[61.7,2917],[61.4,2999],[61.4,3083],[61.4,3166],[60.9,3251],[58,3334],[57.6,3416],[56.8,3499],[56.7,3583],[58,3668],[63,3751],[65.9,3834],[65.9,3916],[65.9,3999],[63,4085],[59.3,4168],[59.2,4249],[59.2,4333],[59.2,4416],[59.2,4501],[60.5,4584],[61.5,4666],[65.8,4751],[70.2,4835],[73.9,4918],[76.9,5001],[76.9,5083],[76.9,5167],[77.1,5249],[77.1,5333],[76.3,5418],[76.3,5499],[76.1,5583],[76.1,5666]]",1,0,782.6722,786.3682,66.04166985,2.35,"[{""rating"":66.04166984558105,""responseTime"":2.3500000000000227}]",space,3.1763,,786.3682,All the time,100,786.3695,,,[],,0,6,6,6,1,audio/Narrative7Situation6.wav,audio/Narrative8Situation6.wav,audio/Narrative5Situation6.wav,audio/Narrative6Situation6.wav,3,2,3,2,,,,,,,,,,,,,,,,,,,,,,,,,,,,,,,,,,,,,,,
,,,,,,660d77f6ef756b2e670c240b,2024-05-13_11h41.16.295,group3.1-3.2-social-tom,2023.2.2,Win32,144.9275362,65c5074098b851296ff0b7ed,66423487767615d97820e371,,,,,,,,,,,,,,,,,,,,,,,,,,,,,786.3696,2,audio/Narrative5Situation7.wav,790.3734,,790.3734,811.3942,"[[999,4],[999,83],[999,166],[999,250],[999,333],[999,416],[999,499],[65.1,584],[67.4,666],[68.2,750],[68.2,833],[68.2,916],[68.2,1001],[68.2,1083],[68.2,1166],[68.2,1249],[68.2,1333],[68.2,1416],[68.2,1499],[68.2,1583],[68.2,1666],[68.2,1749],[68.2,1833],[65.2,1918],[59,2001],[57.8,2083],[57.8,2167],[57.8,2250],[57.8,2333],[57.4,2416],[57.2,2499],[57,2583],[57,2666],[57,2749],[57,2833],[57,2916],[57,2999],[57,3084],[57,3166],[57,3249],[57,3333],[56.5,3416],[55.2,3501],[52.3,3584],[51.4,3666],[50.8,3750],[50.1,3833],[50.1,3916],[50.1,3999],[50.1,4083],[50.1,4168],[50.1,4251],[49,4334],[48.5,4416],[48.5,4499],[48.5,4583],[48.5,4666],[48.5,4749],[48.5,4833],[48.5,4916],[48.5,5000],[48.5,5083],[48.5,5168],[48.5,5249],[48.5,5333],[48.5,5416],[48.5,5499],[48.5,5583],[48.5,5666],[48.5,5749],[48.5,5833],[48.5,5916],[48.5,5999],[48.5,6083],[48.5,6166],[48.2,6251],[48.2,6333],[48.2,6416],[48.2,6499],[48.2,6584],[48.2,6666],[48.2,6750],[48.2,6834],[48.2,6916],[48.2,6999],[48.2,7083],[48.2,7166],[48.2,7251],[48.2,7334],[48.2,7416],[48,7499],[48,7583],[48,7666],[47.9,7749],[47.5,7833],[46.1,7918],[45.8,8001],[45.7,8083],[45.1,8166],[44,8250],[43.9,8333],[43.9,8416],[43.9,8499],[43.9,8583],[43.9,8666],[43.9,8749],[43.9,8833],[43.9,8916],[43.9,9001],[43.9,9083],[43.9,9166],[43.9,9249],[43.9,9333],[43.9,9416],[43.9,9499],[43.9,9584],[43.9,9666],[43.9,9749],[43.9,9833],[43.9,9916],[43.6,9999],[43.6,10083],[43.6,10166],[43.6,10249],[43.6,10333],[43.6,10416],[43.6,10499],[43.6,10583],[43.6,10666],[43.6,10749],[43.6,10833],[43.6,10918],[46.6,11002],[48.8,11083],[48.8,11166],[48.8,11249],[48.8,11333],[48.8,11418],[48.8,11501],[48.8,11583],[48.8,11666],[48.8,11750],[48.8,11833],[48.8,11916],[48.8,11999],[48.8,12084],[48.8,12166],[48.8,12249],[48.8,12333],[48.8,12416],[48.8,12499],[48.8,12584],[48.8,12666],[48.8,12750],[48.8,12833],[48.8,12916],[48.8,12999],[48.8,13083],[48.8,13166],[48.8,13249],[48.8,13333],[48.8,13416],[49,13499],[49,13583],[49,13667],[49,13749],[49,13834],[49,13916],[49,13999],[49,14083],[49,14166],[49,14249],[49,14333],[49,14416],[49,14499],[49,14584],[49,14666],[49,14751],[49,14833],[49,14916],[49,14999],[49,15083],[49,15166],[49,15249],[49,15333],[49,15416],[49,15499],[49,15583],[49,15666],[48,15751],[45.8,15835],[42.5,15918],[40.4,16001],[40.4,16083],[40.4,16166],[40.4,16249],[40.4,16333],[40.4,16416],[40.4,16501],[40.4,16583],[40.4,16666],[40.4,16749],[40.5,16833],[40.5,16916],[40.5,16999],[40.5,17083],[40.5,17166],[40.4,17249],[39.2,17334],[38.9,17416],[38.3,17499],[38.3,17583],[37.9,17666],[37.3,17751],[37.3,17833],[37.3,17916],[37.3,17999],[37.3,18085],[37.3,18166],[37.1,18249],[37,18333],[37,18416],[37,18499],[37,18584],[37,18666],[37,18751],[37,18833],[37,18916],[37,18999],[37,19083],[37,19166],[37,19249],[37,19333],[37,19416],[37,19499],[37,19583],[37,19666],[37,19749],[37,19833],[37,19916],[37,19999],[37,20083],[37,20166],[37,20249],[37,20333],[37,20416],[37,20499],[37,20583],[37,20666],[37,20749],[37,20834],[37,20917],[37,20999]]",1,0,811.3943,813.2917,45.10416985,1.0239,"[{""rating"":45.104169845581055,""responseTime"":1.0238999999984344}]",space,1.3762,0.0038,813.2917,Not at all,0,813.293,,,[],,0,7,7,7,1,audio/Narrative7Situation7.wav,audio/Narrative8Situation7.wav,audio/Narrative5Situation7.wav,audio/Narrative6Situation7.wav,5,3,4,5,,,,,,,,,,,,,,,,,,,,,,,,,,,,,,,,,,,,,,,
,,,,,,660d77f6ef756b2e670c240b,2024-05-13_11h41.16.295,group3.1-3.2-social-tom,2023.2.2,Win32,144.9275362,65c5074098b851296ff0b7ed,66423487767615d97820e371,,,,,,,,,,,,,,,,,,,,,,,,,,,,,813.2931,2,audio/Narrative5Situation8.wav,816.2969,,816.2969,825.1034,"[[999,4],[999,83],[999,166],[999,251],[999,334],[999,418],[999,501],[999,583],[999,668],[999,750],[999,833],[999,918],[999,1001],[999,1083],[999,1166],[999,1250],[46.7,1335],[47.3,1418],[47.4,1501],[47.7,1584],[49.4,1668],[50,1751],[50,1833],[50,1918],[50.3,2001],[50.3,2083],[50.3,2167],[50.3,2250],[50.3,2334],[50.3,2416],[50.3,2500],[50.3,2583],[50.3,2667],[50.3,2751],[50.3,2834],[51.1,2918],[53.4,3001],[55.9,3084],[56.9,3166],[57.2,3251],[57.2,3333],[57.2,3416],[57.2,3499],[57.2,3583],[57.2,3667],[57.2,3749],[57.2,3834],[57.2,3916],[57.2,3999],[57.2,4083],[57.2,4166],[57.1,4249],[57.1,4333],[57.1,4418],[57,4500],[57,4583],[57,4666],[57,4749],[57,4834],[57,4916],[57,5000],[57,5083],[57,5166],[57,5249],[57,5333],[57.2,5416],[57.4,5500],[57.7,5584],[58.3,5666],[59.1,5751],[59.7,5833],[60.2,5916],[60.9,6001],[61.6,6083],[62.5,6173],[63.4,6256],[63.8,6341],[63.8,6423],[63.8,6506],[63.8,6591],[63.8,6673],[63.8,6758],[64.4,6841],[64.6,6923],[64.6,7006],[64.6,7090],[64.6,7173],[64.6,7256],[64.6,7340],[64.6,7423],[64.6,7506],[64.6,7590],[64.6,7673],[64.6,7758],[64.6,7840],[64.6,7923],[64.6,8006],[64.6,8090],[64.6,8173],[64.6,8256],[64.6,8340],[64.6,8423],[64.6,8506],[64.6,8590],[64.6,8673],[64.6,8756]]",1,0,825.1035,830.8455,65.9375,1.8613,"[{""rating"":65.9375,""responseTime"":1.8613000000044622}]",space,5.2231,0.0027,830.8455,Not at all,0,830.8513,,,[],,0,8,8,8,1,audio/Narrative7Situation8.wav,audio/Narrative8Situation8.wav,audio/Narrative5Situation8.wav,audio/Narrative6Situation8.wav,2,3,3,5,,,,,,,,,,,,,,,,,,,,,,,,,,,,,,,,,,,,,,,
,,,,,,660d77f6ef756b2e670c240b,2024-05-13_11h41.16.295,group3.1-3.2-social-tom,2023.2.2,Win32,144.9275362,65c5074098b851296ff0b7ed,66423487767615d97820e371,,,,,,,,,,,,,,,,,,,,,,,,,,,,,830.8514,2,audio/Narrative5Situation9.wav,833.8524,,833.8524,873.38,"[[60.7,83],[60.7,166],[60.7,250],[60.4,333],[60.4,416],[60.4,500],[60.4,583],[60.4,666],[60.4,750],[60.4,833],[60.4,916],[60.4,999],[60.4,1083],[60.2,1166],[60.2,1249],[60.2,1333],[60.2,1416],[59.6,1500],[59.1,1584],[57.6,1668],[56.5,1751],[55.2,1835],[55.1,1918],[55.1,1999],[55.1,2083],[55.1,2166],[55.1,2249],[55.1,2335],[55.1,2416],[55.1,2499],[55.1,2583],[55.1,2666],[55.1,2749],[55.1,2833],[54.3,2918],[52.3,3001],[51,3083],[50.7,3166],[50.7,3249],[50.7,3333],[50.7,3418],[50.7,3499],[50.7,3583],[50.7,3666],[50.7,3750],[50.7,3833],[50.7,3916],[50.7,3999],[50.7,4083],[50.7,4167],[50.7,4250],[50.7,4333],[50.7,4416],[50.7,4499],[50.7,4583],[50.7,4666],[50.7,4749],[50.7,4833],[50.7,4916],[50.7,4999],[50.7,5083],[50.7,5166],[50.7,5249],[50.7,5333],[50.7,5416],[50.7,5499],[50.7,5583],[50.7,5666],[50.7,5750],[51.9,5835],[54,5918],[54.9,6000],[55.5,6083],[57.2,6166],[59.1,6252],[60,6335],[62.7,6418],[67.1,6501],[69.1,6584],[69.7,6668],[73.8,6751],[75.3,6833],[75.3,6916],[75.3,7001],[75.3,7083],[75.3,7166],[75.3,7249],[75.3,7333],[75.3,7416],[75.8,7501],[77.4,7585],[78.6,7666],[79.1,7749],[79.1,7833],[79.1,7916],[79.1,8000],[79.1,8083],[79.1,8166],[79.1,8249],[79.1,8333],[79.1,8416],[79.1,8500],[81.3,8585],[82.8,8666],[83,8751],[83,8833],[83.1,8917],[83.4,8999],[84.3,9083],[84.9,9166],[84.9,9251],[84.9,9333],[84.9,9416],[84.9,9499],[84.9,9583],[84.9,9666],[84.9,9749],[84.9,9833],[84.9,9916],[84.9,9999],[84.9,10083],[84.9,10166],[84.9,10249],[84.9,10334],[84.9,10416],[84.9,10499],[84.9,10583],[84.9,10666],[84.9,10751],[84.9,10833],[84.9,10916],[84.9,10999],[84.9,11083],[84.9,11166],[84.9,11249],[84.9,11334],[84.9,11416],[84.9,11499],[84.9,11583],[84.9,11666],[84.9,11749],[84.9,11833],[84.9,11918],[84.9,11999],[84.9,12083],[84.9,12166],[84.9,12249],[84.9,12334],[84.9,12416],[84.9,12499],[84.9,12583],[84.9,12667],[84.9,12749],[84.9,12833],[84.9,12916],[84.9,12999],[84.9,13083],[84.9,13166],[84.9,13249],[84.9,13334],[84.9,13416],[84.9,13499],[84.9,13583],[84.9,13666],[84.9,13749],[85,13833],[85,13916],[85.3,13999],[85.3,14083],[85.5,14166],[85.6,14249],[86.1,14333],[86.1,14416],[86.9,14501],[88.1,14584],[88.4,14666],[88.4,14749],[88.4,14833],[88.4,14916],[88.4,14999],[88.4,15083],[88.4,15166],[88.4,15249],[88.4,15333],[89.6,15416],[90,15499],[90,15583],[90,15666],[90,15749],[90,15833],[90,15916],[90,15999],[90,16083],[90,16166],[90,16249],[90,16333],[90,16416],[90,16501],[90,16583],[90,16666],[90,16751],[90,16833],[90,16916],[90,16999],[90,17083],[90,17166],[90,17249],[90,17334],[90,17416],[90,17499],[90,17583],[90,17666],[90,17750],[90,17833],[90,17916],[90,17999],[90,18083],[90,18166],[90,18249],[90,18333],[90,18417],[90,18499],[90,18583],[90,18666],[90,18751],[90,18833],[90,18916],[90,18999],[90,19083],[90,19166],[90,19249],[90,19333],[90,19416],[90,19499],[90,19583],[90,19668],[90,19749],[90,19833],[90,19916],[90,19999],[90,20083],[90,20166],[90,20249],[90,20333],[90,20417],[90,20499],[90,20584],[90,20668],[90,20751],[90.8,20833],[93.1,20918],[94.4,20999],[94.4,21084],[94.4,21166],[94.4,21249],[94.4,21334],[94.4,21416],[94.4,21499],[94.6,21583],[94.8,21666],[94.9,21751],[95.2,21833],[95.2,21916],[95.2,21999],[95.2,22083],[95.2,22166],[95.2,22249],[95.2,22333],[95.2,22416],[95.2,22499],[95.2,22583],[95.2,22666],[95.2,22749],[95.2,22834],[95.2,22916],[95.2,22999],[95.2,23083],[95.2,23166],[95.2,23249],[94.8,23333],[94.8,23416],[94.8,23499],[94.5,23585],[94.5,23666],[94.5,23749],[94.5,23833],[94.5,23916],[94.5,23999],[94.5,24083],[94.5,24166],[94.5,24249],[94.5,24334],[94.5,24418],[94.5,24499],[94.5,24583],[94.5,24666],[94.5,24749],[94.5,24834],[94.5,24916],[94.5,24999],[94.5,25083],[94.5,25166],[94.5,25250],[94.5,25333],[94.5,25416],[94.5,25499],[94.5,25584],[94.5,25666],[94.5,25749],[94.5,25833],[94.5,25916],[94.5,25999],[94.5,26083],[94.5,26166],[94.5,26249],[94.5,26333],[94.5,26417],[94.5,26501],[94.5,26583],[94.5,26666],[94.5,26749],[94.2,26833],[93.9,26916],[93.6,26999],[93.3,27083],[93.3,27166],[93.3,27249],[93.3,27333],[93.3,27416],[93,27499],[93,27584],[92.9,27666],[92.6,27751],[92.3,27833],[92.1,27916],[91.7,28001],[91.5,28084],[91.1,28167],[90.4,28251],[90.2,28333],[89.9,28416],[89.8,28499],[89.2,28584],[88.5,28667],[88.2,28749],[88.2,28833],[88.2,28916],[88.2,28999],[88.2,29084],[88.2,29166],[88.2,29249],[88.2,29333],[88.2,29416],[88.3,29499],[88.3,29584],[88.3,29666],[88.3,29749],[88.3,29833],[88.3,29916],[88.3,29999],[88.3,30083],[88.3,30166],[88.4,30249],[88.8,30333],[88.8,30416],[89,30499],[89.1,30583],[89.1,30666],[89.1,30749],[89.3,30833],[89.3,30916],[89.3,30999],[89.3,31083],[89.3,31166],[89.3,31249],[89.3,31333],[89.3,31416],[89.4,31500],[89.4,31583],[89.4,31666],[89.6,31749],[89.6,31833],[89.6,31916],[89.6,31999],[89.6,32083],[89.7,32168],[89.7,32249],[89.7,32333],[89.7,32417],[89.7,32499],[89.7,32584],[89.7,32666],[89.7,32751],[89.7,32833],[89.7,32916],[89.7,32999],[89.7,33083],[89.7,33166],[89.7,33249],[89.7,33334],[89.7,33416],[89.7,33499],[89.7,33583],[89.7,33666],[89.7,33749],[89.7,33833],[89.7,33916],[89.7,33999],[89.7,34083],[89.7,34166],[89.7,34249],[89.7,34333],[89.7,34416],[89.7,34499],[89.7,34583],[89.7,34666],[89.7,34749],[89.7,34833],[89.7,34916],[89.7,35001],[89.7,35083],[89.7,35166],[89.7,35249],[89.7,35334],[89.7,35416],[89.7,35499],[89.7,35583],[89.7,35666],[89.7,35749],[89.7,35833],[89.7,35916],[89.7,35999],[89.7,36083],[89.7,36166],[89.7,36249],[89.7,36333],[89.7,36418],[89.7,36499],[89.7,36583],[89.7,36666],[89.7,36749],[89.7,36833],[89.7,36916],[89.7,36999],[89.7,37084],[89.7,37166],[89.7,37249],[89.7,37334],[89.7,37416],[89.7,37499],[89.7,37583],[89.7,37666],[89.7,37749],[89.7,37833],[89.7,37916],[89.7,37999],[89.7,38084],[89.7,38166],[89.7,38249],[89.7,38333],[89.7,38416],[89.7,38499],[89.7,38583],[89.7,38666],[89.7,38749],[89.7,38833],[89.7,38918],[89.7,38999],[89.7,39084],[89.7,39166],[89.7,39249],[89.7,39333],[89.7,39418],[89.7,39500]]",1,0,873.3802,875.7421,86.77083969,1.3031,"[{""rating"":86.77083969116211,""responseTime"":1.3031000000015638}]",space,1.8427,0.0028,875.7422,Half the time,50,875.7434,,,[],,0,9,9,9,1,audio/Narrative7Situation9.wav,audio/Narrative8Situation9.wav,audio/Narrative5Situation9.wav,audio/Narrative6Situation9.wav,2,3,3,4,,,,,,,,,,,,,,,,,,,,,,,,,,,,,,,,,,,,,,,
,,,,,,660d77f6ef756b2e670c240b,2024-05-13_11h41.16.295,group3.1-3.2-social-tom,2023.2.2,Win32,144.9275362,65c5074098b851296ff0b7ed,66423487767615d97820e371,,,,,,,,,,,,,,,,,,,,,,,,,,,,,875.7436,2,audio/Narrative6Situation1.wav,877.7494,,877.7494,904.3188,"[[47.8,83],[47.3,165],[47.3,248],[46.7,331],[46.7,415],[46.7,498],[48.1,583],[52.2,667],[56.9,750],[57.4,831],[57.4,916],[57,1000],[55.5,1081],[54.3,1166],[54,1248],[53.9,1331],[53.9,1415],[53.9,1498],[53.9,1581],[53.9,1665],[53.2,1750],[50.7,1833],[50.5,1915],[50.4,1998],[50.4,2081],[50.4,2165],[50.4,2248],[50.4,2333],[50.4,2415],[50.4,2498],[50.4,2581],[50.4,2665],[50.4,2750],[50.4,2831],[50.4,2915],[50.4,2998],[50.4,3081],[49.6,3167],[47.7,3250],[46,3333],[45.7,3415],[45.4,3500],[44.8,3583],[43.2,3665],[43,3748],[43,3831],[45.2,3917],[48.8,4000],[55.1,4083],[61.6,4166],[63.1,4250],[65.6,4334],[68,4417],[70.2,4498],[70.2,4581],[70.2,4665],[70.2,4748],[70.1,4833],[69.8,4917],[69.6,5000],[69.6,5081],[69.6,5166],[69.6,5248],[69.6,5331],[69.6,5416],[69.6,5498],[69.6,5581],[69.6,5665],[69.6,5748],[69.6,5831],[69.6,5917],[69.6,5998],[69.6,6081],[69.6,6166],[69.6,6248],[69.6,6331],[69.6,6415],[69.6,6500],[69.6,6581],[69.7,6665],[70,6748],[70,6831],[70.3,6916],[71.3,7000],[72.1,7081],[72.1,7165],[72.1,7248],[72.1,7331],[72.1,7415],[72.1,7498],[72.1,7581],[72.1,7665],[72.1,7750],[72.1,7831],[72.1,7915],[72.1,7998],[72.1,8081],[72.1,8165],[72.1,8248],[72.1,8331],[72.2,8415],[74,8500],[75,8581],[76.3,8665],[76.3,8748],[76.3,8831],[76.3,8916],[76.3,8998],[76.3,9082],[76.3,9165],[76.3,9248],[76.3,9331],[76.3,9415],[76.3,9499],[76.3,9581],[76.3,9665],[76.3,9748],[76.3,9831],[76.3,9915],[76.3,9998],[76.3,10081],[76.3,10165],[76.3,10248],[76.3,10331],[76.3,10415],[76.3,10498],[76.3,10581],[76.3,10665],[76.3,10748],[76.3,10831],[76.3,10915],[76.3,10998],[76.3,11081],[76.3,11165],[76.3,11248],[76.3,11331],[76.3,11415],[76.3,11498],[76.3,11581],[77.1,11665],[77.8,11748],[78.8,11831],[78.8,11915],[78.8,11998],[78.8,12081],[78.8,12165],[79.1,12248],[79.6,12331],[79.6,12415],[79.6,12498],[79.6,12581],[79.6,12665],[79.6,12749],[79.6,12831],[79.6,12915],[79.6,12998],[79.6,13081],[79.6,13166],[79.6,13249],[79.6,13331],[79.6,13416],[79.6,13498],[79.6,13581],[79.6,13665],[79.6,13749],[79.6,13831],[79.6,13915],[79.6,13998],[79.6,14081],[79.6,14166],[79.6,14248],[79.2,14331],[78.6,14416],[78.6,14498],[78.5,14581],[78.5,14665],[78.5,14748],[78.2,14831],[75.9,14917],[74.5,14998],[73.9,15081],[73.9,15165],[73.9,15248],[73.4,15333],[72.6,15415],[72.3,15498],[72,15581],[72,15665],[71,15748],[69.8,15833],[69.5,15915],[69.2,16000],[68.9,16081],[68.9,16165],[68.9,16248],[68.9,16331],[68.9,16415],[68.9,16498],[68.9,16581],[68.9,16665],[68.9,16748],[68.9,16831],[68.9,16916],[68.9,16998],[68.9,17081],[68.9,17165],[68.9,17249],[68.9,17331],[68.9,17415],[68.9,17498],[69.4,17583],[72,17666],[74.4,17749],[77.1,17833],[78.4,17917],[79,18000],[79.1,18081],[79.1,18165],[79.1,18248],[79.1,18333],[79.1,18415],[79.1,18498],[79.1,18581],[79.1,18665],[79.1,18748],[79.1,18831],[79.1,18915],[79.1,18998],[79.1,19083],[79.1,19165],[79.1,19248],[79.1,19331],[79.1,19415],[79.1,19498],[79.1,19581],[79.1,19665],[79.1,19748],[79.1,19831],[79.1,19915],[79.1,19998],[79.1,20081],[79.1,20165],[79.1,20248],[79.1,20331],[79.1,20415],[79.1,20498],[79.1,20581],[79.1,20665],[79.1,20748],[79.1,20831],[79.1,20915],[79.1,20998],[79.1,21081],[79.1,21165],[79.1,21248],[79.1,21331],[79.1,21415],[79.1,21498],[79.1,21581],[79.1,21665],[79.1,21748],[79.1,21831],[79.1,21915],[79.1,21999],[79.1,22081],[79.1,22165],[79.1,22248],[79.1,22331],[79.1,22415],[79.1,22498],[79.1,22581],[79.1,22665],[79.1,22748],[79.1,22831],[79.1,22915],[79.1,22999],[79.1,23081],[79.4,23165],[79.7,23248],[79.9,23331],[80,23415],[80,23498],[80,23581],[80,23665],[80,23748],[80,23831],[80,23915],[80,23998],[80,24081],[80,24165],[80,24248],[80,24331],[80,24415],[80,24498],[80,24583],[80,24666],[80,24748],[80,24831],[80,24915],[80,25000],[82.2,25083],[84.4,25167],[85.9,25250],[86.3,25333],[88.8,25416],[89.9,25498],[89.9,25581],[89.9,25665],[89.9,25748],[89.9,25831],[89.9,25915],[89.9,25998],[89.9,26081],[89.9,26165],[89.9,26248],[89.9,26331],[89.9,26415],[89.9,26498]]",1,0,904.319,906.5341,77.91666985,1.359,"[{""rating"":77.91666984558105,""responseTime"":1.3590000000000373}]",space,1.6875,0.0008,906.5341,Half the time,50,906.5349,,,[],,0,10,10,10,1,audio/Narrative8Situation1.wav,audio/Narrative7Situation1.wav,audio/Narrative6Situation1.wav,audio/Narrative5Situation1.wav,5,2,2,5,,,,,,,,,,,,,,,,,,,,,,,,,,,,,,,,,,,,,,,
,,,,,,660d77f6ef756b2e670c240b,2024-05-13_11h41.16.295,group3.1-3.2-social-tom,2023.2.2,Win32,144.9275362,65c5074098b851296ff0b7ed,66423487767615d97820e371,,,,,,,,,,,,,,,,,,,,,,,,,,,,,906.5351,2,audio/Narrative6Situation2.wav,909.5397,,909.5397,938.0257,"[[999,0],[999,83],[999,166],[999,249],[999,333],[999,416],[999,499],[999,583],[999,666],[999,749],[999,833],[999,916],[999,999],[999,1083],[999,1166],[999,1249],[999,1333],[999,1416],[999,1499],[999,1583],[999,1666],[999,1749],[999,1833],[999,1916],[999,1999],[999,2083],[999,2166],[999,2249],[999,2333],[999,2416],[999,2499],[999,2583],[999,2666],[999,2749],[999,2833],[999,2917],[999,2999],[999,3083],[999,3166],[999,3249],[999,3333],[999,3416],[999,3499],[999,3583],[999,3666],[999,3749],[999,3833],[999,3917],[999,3999],[999,4083],[999,4166],[999,4249],[999,4333],[999,4416],[999,4499],[999,4583],[999,4666],[999,4749],[999,4833],[999,4916],[999,4999],[999,5083],[999,5166],[999,5249],[999,5333],[999,5416],[999,5499],[999,5584],[999,5668],[999,5751],[999,5834],[49.7,5918],[49.7,6001],[49.7,6083],[49.7,6166],[49.7,6249],[50.3,6333],[52,6416],[54.7,6501],[55.6,6583],[57,6668],[57,6749],[57,6833],[57,6916],[57.4,6999],[57.6,7084],[61.4,7168],[63.6,7251],[65.9,7334],[70,7418],[71.3,7501],[74.3,7584],[79.5,7668],[82.1,7750],[82.1,7833],[82.1,7916],[80.1,8001],[78.2,8084],[77.9,8167],[77.9,8249],[77.9,8334],[77.7,8418],[77.6,8499],[77.3,8583],[76.7,8666],[76.7,8749],[76.7,8833],[76.4,8918],[76.4,9001],[76.4,9084],[76.4,9166],[76.4,9250],[76.4,9333],[76.4,9416],[76.4,9499],[76.4,9583],[76.4,9666],[76.4,9749],[76.4,9833],[76.4,9916],[76.4,9999],[76.4,10083],[76.4,10166],[76.4,10249],[76.4,10333],[76.4,10416],[76.4,10499],[76.4,10583],[76.4,10666],[76.4,10749],[76.4,10833],[76.4,10918],[76.4,10999],[76.4,11083],[76.4,11166],[76.4,11249],[76.4,11334],[76.4,11416],[76.5,11499],[76.5,11583],[76.5,11667],[76.5,11751],[76.5,11833],[76.5,11917],[76.5,11999],[76.5,12083],[76.5,12166],[76.5,12251],[76.5,12333],[76.5,12416],[76.5,12499],[76.5,12583],[76.5,12666],[76.5,12749],[76.5,12833],[76.5,12916],[76.6,12999],[76.6,13083],[76.6,13166],[75.1,13251],[69.8,13334],[69.2,13417],[68.9,13499],[66.5,13584],[60.2,13668],[59.2,13749],[59,13833],[59,13916],[59,13999],[59,14083],[59,14166],[59,14249],[59,14334],[59,14416],[59,14499],[59,14583],[59,14666],[59,14751],[59,14833],[59,14916],[59,14999],[59,15083],[59,15168],[59,15249],[59,15334],[59,15417],[59,15499],[59,15583],[59,15666],[59,15749],[59,15833],[59,15916],[59,15999],[59,16083],[59,16166],[59,16249],[59,16334],[59,16416],[59,16499],[59,16583],[59,16666],[59,16749],[59.3,16834],[60,16916],[60.9,17000],[63.1,17084],[64.5,17166],[64.5,17249],[64.5,17333],[64.5,17417],[64.5,17501],[64.5,17583],[64.5,17666],[64.5,17749],[64.5,17834],[64.9,17916],[65,17999],[65.2,18083],[65.2,18166],[65.2,18249],[65.6,18334],[67.4,18418],[67.8,18499],[67.8,18583],[68.1,18666],[68.6,18751],[70.3,18834],[70.7,18916],[70.7,18999],[70.7,19083],[70.7,19166],[70.7,19249],[70.7,19333],[70.7,19416],[70.7,19499],[70.7,19583],[70.7,19666],[70.9,19749],[71.3,19833],[74.2,19918],[80.5,19999],[80.5,20083],[80.5,20166],[80.6,20249],[80.6,20333],[80.6,20416],[80.6,20499],[80.6,20584],[80.6,20666],[80.6,20749],[80.6,20833],[80.6,20916],[80.6,20999],[80.5,21083],[80.3,21166],[80.3,21249],[80.3,21333],[80.3,21416],[80.3,21499],[80.3,21583],[80.3,21667],[80.3,21750],[80.3,21833],[80.3,21916],[80.3,21999],[80.3,22083],[80.3,22166],[80.3,22251],[80.3,22333],[80.3,22416],[80.3,22499],[80.3,22583],[80.3,22667],[80.3,22749],[80.3,22833],[80.3,22916],[80.3,22999],[80.3,23084],[80.3,23166],[80.3,23249],[80.3,23334],[80.6,23416],[80.8,23499],[80.9,23583],[81.3,23666],[82.2,23749],[83.1,23834],[83.4,23916],[83.4,23999],[83.4,24083],[83.4,24166],[82.9,24249],[80,24333],[79.8,24416],[79.8,24499],[79.8,24583],[79.8,24666],[79.8,24749],[79.8,24833],[79.8,24916],[79.8,24999],[79.8,25083],[79.8,25166],[79.8,25249],[79.8,25333],[79.8,25417],[79.8,25499],[80,25583],[82.3,25668],[84.4,25751],[86.3,25833],[86.9,25916],[86.9,25999],[86.9,26083],[86.9,26166],[86.9,26249],[86.9,26333],[86.9,26416],[86.9,26499],[86.7,26583],[86.5,26666],[86.5,26749],[86.5,26834],[86.5,26916],[86.5,26999],[86.5,27083],[86.5,27166],[86.5,27249],[86.5,27333],[86.5,27416],[86.5,27499],[86.4,27583],[86.4,27666],[86.4,27749],[86.4,27833],[86.4,27916],[86.4,27999],[86.1,28083],[86.1,28166],[86.1,28249],[86.1,28333],[86.1,28416]]",1,0,938.0259,940.4159,83.95833969,1.2235,"[{""rating"":83.95833969116211,""responseTime"":1.2234999999999445}]",space,1.8746,0.0002,940.4159,All the time,100,940.4174,,,[],,0,11,11,11,1,audio/Narrative8Situation2.wav,audio/Narrative7Situation2.wav,audio/Narrative6Situation2.wav,audio/Narrative5Situation2.wav,3,3,3,3,,,,,,,,,,,,,,,,,,,,,,,,,,,,,,,,,,,,,,,
,,,,,,660d77f6ef756b2e670c240b,2024-05-13_11h41.16.295,group3.1-3.2-social-tom,2023.2.2,Win32,144.9275362,65c5074098b851296ff0b7ed,66423487767615d97820e371,,,,,,,,,,,,,,,,,,,,,,,,,,,,,940.4176,2,audio/Narrative6Situation3.wav,945.4225,,945.4225,958.0267,"[[999,4],[999,82],[999,165],[999,250],[999,332],[999,415],[999,500],[999,582],[999,665],[999,748],[999,832],[999,915],[999,1000],[999,1084],[66.5,1167],[62.1,1250],[55.8,1333],[54.2,1415],[54.2,1500],[54.2,1582],[54.2,1667],[54.2,1748],[54.2,1832],[54.2,1915],[54.2,1999],[54.2,2082],[61.7,2167],[64.4,2248],[64.4,2332],[67.1,2416],[75.9,2500],[77.5,2582],[78.1,2665],[78.1,2748],[82.1,2833],[84.9,2915],[85,2998],[85,3082],[89.7,3167],[91.6,3248],[91.6,3332],[91.6,3416],[91.4,3500],[91.4,3582],[91.1,3665],[91,3748],[90.4,3833],[90.2,3915],[90.2,3998],[90.2,4083],[90.2,4165],[90.2,4250],[90.2,4332],[90.2,4415],[90.2,4499],[90.2,4582],[90.2,4665],[90.2,4750],[90.2,4832],[90.2,4915],[90.2,4998],[92.9,5083],[93.1,5165],[93.3,5248],[93.2,5332],[93.1,5415],[93,5498],[93,5582],[92.8,5665],[92.8,5748],[92.8,5832],[92.8,5917],[92.8,5998],[92.8,6083],[92.8,6165],[92.8,6248],[92.8,6332],[92.8,6415],[92.7,6498],[92.6,6582],[92.4,6665],[92.3,6748],[92.3,6834],[92.3,6915],[92,6998],[91.6,7083],[91.6,7165],[91.5,7248],[91.4,7332],[91.4,7415],[91.4,7498],[91.4,7582],[91.4,7665],[91.4,7748],[91.4,7833],[91.4,7917],[91.4,7998],[91.4,8082],[91,8166],[91,8248],[91,8332],[91,8415],[91,8498],[91,8582],[91,8666],[91,8748],[91,8832],[91,8915],[91,8998],[91,9082],[91,9165],[91,9248],[91,9332],[91,9415],[91,9500],[90.7,9582],[89.6,9667],[88.9,9748],[88.9,9832],[88.9,9916],[88.9,10000],[88.9,10082],[88.9,10167],[88.9,10248],[89.4,10334],[89.7,10415],[90.3,10500],[90.6,10582],[91.6,10667],[91.8,10748],[91.9,10832],[91.9,10915],[92.5,10998],[93.1,11082],[93.3,11165],[93.3,11248],[93.3,11332],[93.3,11415],[93.3,11498],[93.2,11582],[93,11665],[92.9,11748],[92.6,11832],[92.5,11916],[92.5,11998],[92.5,12082],[92.5,12165],[92.5,12248],[92.1,12333],[92.1,12415],[92.1,12499],[92.1,12582]]",1,0,958.0268,959.749,90.83333969,0.7711,"[{""rating"":90.83333969116211,""responseTime"":0.7711000000015247}]",space,1.2067,,959.749,Not at all,0,959.7505,,,[],,0,12,12,12,1,audio/Narrative8Situation3.wav,audio/Narrative7Situation3.wav,audio/Narrative6Situation3.wav,audio/Narrative5Situation3.wav,4,8,5,3,,,,,,,,,,,,,,,,,,,,,,,,,,,,,,,,,,,,,,,
