exp_question,consent.started,consent.stopped,consentResponse.keys,consentResponse.rt,consentResponse.duration,participantID,date,expName,psychopyVersion,OS,frameRate,STUDY_ID,SESSION_ID,opening1.started,opening1.stopped,keyEndingOpening1.keys,keyEndingOpening1.rt,keyEndingOpening1.duration,volumeAdjust.started,volumeAdjust.stopped,endingAdjust.keys,endingAdjust.rt,endingAdjust.duration,opening2.started,opening2.stopped,keyEndingOpening.keys,keyEndingOpening.rt,keyEndingOpening.duration,mouse.x,mouse.y,mouse.leftButton,mouse.midButton,mouse.rightButton,mouse.time,instructionLoop.thisRepN,instructionLoop.thisTrialN,instructionLoop.thisN,instructionLoop.thisIndex,instructionLoop.ran,readyForAudio.started,readyForAudio.stopped,fixation.started,run,audio_played,fixation.stopped,endPractice.keys,audioPre.started,audioPre.stopped,continuousResponses_audio,continuousSlider.response,continuousSlider.rt,intRating.started,intRating.stopped,intQuestionSlider.response,intQuestionSlider.rt,intQuestionSlider.history,confirmResponse.keys,confirmResponse.rt,confirmResponse.duration,catchQuestion.started,catch_label,catch_value,catchQuestion.stopped,catchQuestionSlider.response,catchQuestionSlider.rt,catchQuestionSlider.history,confirmResponse_2.keys,audioRunLoop.thisRepN,audioRunLoop.thisTrialN,audioRunLoop.thisN,audioRunLoop.thisIndex,audioRunLoop.ran,conditions1_1,conditions2_1,conditions1_2,conditions2_2,dur1_1,dur2_1,dur1_2,dur2_2,endPractice.rt,endPractice.duration,confirmResponse_2.rt,confirmResponse_2.duration,runIntervalBreak.started,runIntervalBreak.stopped,endingBreakKey.keys,endingBreakKey.rt,endingBreakKey.duration,connection.started,connection.stopped,connectionEnding.keys,connectionEnding.rt,connectionEnding.duration,readyForText.started,readyForText.stopped,textPre.started,run_dup,textPre.stopped,continuousResponses_text,textRunLoop.thisRepN,textRunLoop.thisTrialN,textRunLoop.thisN,textRunLoop.thisIndex,textRunLoop.ran,text1_1,text1_2,text2_1,text2_2,runBreakText.started,runBreakText.stopped,endingBreakKey_2.keys,endingBreakKey_2.rt,endingBreakKey_2.duration,ending.started,ending.stopped,endingEnding.keys,endingEnding.rt,endingEnding.duration
social,0.0002,19.7583,y,19.4392,,66101f7b8fd64c6f3b372d7c,2024-05-13_11h44.35.200,group3.1-3.2-social-tom,2023.2.2,Win32,59.88023952,65c5074098b851296ff0b7ed,664232f1f808ec79e59f3d14,,,,,,,,,,,,,,,,,,,,,,,,,,,,,,,,,,,,,,,,,,,,,,,,,,,,,,,,,,,,,,,,,,,,,,,,,,,,,,,,,,,,,,,,,,,,,,,,,,,,,,,,,,
,,,,,,66101f7b8fd64c6f3b372d7c,2024-05-13_11h44.35.200,group3.1-3.2-social-tom,2023.2.2,Win32,59.88023952,65c5074098b851296ff0b7ed,664232f1f808ec79e59f3d14,19.7588,32.9623,space,13.1741,,,,,,,,,,,,,,,,,,,,,,,,,,,,,,,,,,,,,,,,,,,,,,,,,,,,,,,,,,,,,,,,,,,,,,,,,,,,,,,,,,,,,,,,,,,,,,,,,,,,,,
,,,,,,66101f7b8fd64c6f3b372d7c,2024-05-13_11h44.35.200,group3.1-3.2-social-tom,2023.2.2,Win32,59.88023952,65c5074098b851296ff0b7ed,664232f1f808ec79e59f3d14,,,,,,32.9625,78.5633,space,45.2789,,,,,,,,,,,,,,,,,,,,,,,,,,,,,,,,,,,,,,,,,,,,,,,,,,,,,,,,,,,,,,,,,,,,,,,,,,,,,,,,,,,,,,,,,,,,,,,,,
,,,,,,66101f7b8fd64c6f3b372d7c,2024-05-13_11h44.35.200,group3.1-3.2-social-tom,2023.2.2,Win32,59.88023952,65c5074098b851296ff0b7ed,664232f1f808ec79e59f3d14,,,,,,,,,,,78.5768,98.2093,space,19.6099,,[],[],[],[],[],[],0,0,0,0,1,,,,,,,,,,,,,,,,,,,,,,,,,,,,,,,,,,,,,,,,,,,,,,,,,,,,,,,,,,,,,,,,,,,,,,,,,,,,,,,,
,,,,,,66101f7b8fd64c6f3b372d7c,2024-05-13_11h44.35.200,group3.1-3.2-social-tom,2023.2.2,Win32,59.88023952,65c5074098b851296ff0b7ed,664232f1f808ec79e59f3d14,,,,,,,,,,,98.2183,169.0267,p,70.7074,,[],[],[],[],[],[],1,0,1,0,1,,,,,,,,,,,,,,,,,,,,,,,,,,,,,,,,,,,,,,,,,,,,,,,,,,,,,,,,,,,,,,,,,,,,,,,,,,,,,,,,
,,,,,,66101f7b8fd64c6f3b372d7c,2024-05-13_11h44.35.200,group3.1-3.2-social-tom,2023.2.2,Win32,59.88023952,65c5074098b851296ff0b7ed,664232f1f808ec79e59f3d14,,,,,,,,,,,169.0374,170.7262,p,1.6661,,[],[],[],[],[],[],2,0,2,0,1,,,,,,,,,,,,,,,,,,,,,,,,,,,,,,,,,,,,,,,,,,,,,,,,,,,,,,,,,,,,,,,,,,,,,,,,,,,,,,,,
,,,,,,66101f7b8fd64c6f3b372d7c,2024-05-13_11h44.35.200,group3.1-3.2-social-tom,2023.2.2,Win32,59.88023952,65c5074098b851296ff0b7ed,664232f1f808ec79e59f3d14,,,,,,,,,,,170.7267,172.0926,space,1.3495,,[],[],[],[],[],[],3,0,3,0,1,,,,,,,,,,,,,,,,,,,,,,,,,,,,,,,,,,,,,,,,,,,,,,,,,,,,,,,,,,,,,,,,,,,,,,,,,,,,,,,,
,,,,,,66101f7b8fd64c6f3b372d7c,2024-05-13_11h44.35.200,group3.1-3.2-social-tom,2023.2.2,Win32,59.88023952,65c5074098b851296ff0b7ed,664232f1f808ec79e59f3d14,,,,,,,,,,,172.093,173.6756,space,1.5111,,[],[],[],[],[],[],4,0,4,0,1,,,,,,,,,,,,,,,,,,,,,,,,,,,,,,,,,,,,,,,,,,,,,,,,,,,,,,,,,,,,,,,,,,,,,,,,,,,,,,,,
,,,,,,66101f7b8fd64c6f3b372d7c,2024-05-13_11h44.35.200,group3.1-3.2-social-tom,2023.2.2,Win32,59.88023952,65c5074098b851296ff0b7ed,664232f1f808ec79e59f3d14,,,,,,,,,,,173.676,200.0704,space,26.3433,,[],[],[],[],[],[],5,0,5,0,1,,,,,,,,,,,,,,,,,,,,,,,,,,,,,,,,,,,,,,,,,,,,,,,,,,,,,,,,,,,,,,,,,,,,,,,,,,,,,,,,
,,,,,,66101f7b8fd64c6f3b372d7c,2024-05-13_11h44.35.200,group3.1-3.2-social-tom,2023.2.2,Win32,59.88023952,65c5074098b851296ff0b7ed,664232f1f808ec79e59f3d14,,,,,,,,,,,200.0801,257.0256,space,56.9213,,[],[],[],[],[],[],6,0,6,0,1,,,,,,,,,,,,,,,,,,,,,,,,,,,,,,,,,,,,,,,,,,,,,,,,,,,,,,,,,,,,,,,,,,,,,,,,,,,,,,,,
,,,,,,66101f7b8fd64c6f3b372d7c,2024-05-13_11h44.35.200,group3.1-3.2-social-tom,2023.2.2,Win32,59.88023952,65c5074098b851296ff0b7ed,664232f1f808ec79e59f3d14,,,,,,,,,,,257.0353,284.3867,space,27.3305,,[],[],[],[],[],[],7,0,7,0,1,,,,,,,,,,,,,,,,,,,,,,,,,,,,,,,,,,,,,,,,,,,,,,,,,,,,,,,,,,,,,,,,,,,,,,,,,,,,,,,,
,,,,,,66101f7b8fd64c6f3b372d7c,2024-05-13_11h44.35.200,group3.1-3.2-social-tom,2023.2.2,Win32,59.88023952,65c5074098b851296ff0b7ed,664232f1f808ec79e59f3d14,,,,,,,,,,,,,,,,,,,,,,,,,,,284.3982,286.9694,286.9945,1,audio/Narrative13Situation2.wav,289.0025,,289.0029,318.7639,"[[999,2],[999,115],[999,199],[999,282],[999,365],[999,449],[999,532],[999,615],[999,699],[999,782],[999,865],[999,949],[999,1032],[999,1115],[999,1199],[999,1282],[999,1365],[999,1448],[999,1532],[999,1615],[999,1699],[999,1782],[999,1865],[999,1948],[999,2031],[999,2115],[999,2198],[999,2281],[999,2365],[999,2448],[999,2532],[999,2615],[999,2698],[999,2781],[999,2865],[999,2948],[999,3031],[999,3115],[999,3198],[999,3281],[999,3365],[999,3448],[999,3531],[999,3615],[999,3698],[999,3781],[999,3865],[999,3948],[999,4031],[999,4115],[999,4198],[999,4281],[999,4365],[999,4448],[999,4531],[999,4614],[999,4698],[999,4781],[999,4864],[999,4948],[999,5031],[999,5114],[999,5198],[999,5281],[999,5364],[999,5448],[999,5531],[999,5614],[999,5697],[999,5781],[999,5864],[999,5948],[999,6031],[999,6114],[999,6197],[999,6281],[999,6364],[999,6447],[999,6531],[999,6614],[999,6697],[999,6781],[999,6864],[999,6947],[999,7031],[999,7114],[999,7197],[999,7281],[999,7364],[999,7447],[999,7531],[999,7614],[999,7697],[999,7780],[999,7864],[999,7947],[999,8030],[999,8114],[999,8197],[999,8280],[999,8364],[999,8447],[999,8530],[999,8614],[999,8697],[999,8780],[999,8863],[999,8947],[999,9030],[999,9113],[999,9197],[999,9280],[999,9363],[999,9447],[999,9530],[999,9613],[999,9697],[999,9780],[999,9863],[999,9947],[999,10030],[999,10113],[999,10197],[999,10280],[999,10363],[999,10447],[999,10530],[999,10613],[999,10697],[999,10780],[999,10863],[999,10947],[999,11030],[999,11113],[999,11197],[999,11280],[999,11363],[999,11446],[999,11530],[999,11613],[999,11697],[999,11780],[999,11863],[999,11946],[999,12030],[999,12113],[999,12196],[999,12279],[999,12363],[999,12446],[999,12529],[999,12613],[999,12696],[999,12779],[999,12863],[999,12946],[999,13029],[999,13113],[999,13196],[999,13279],[999,13363],[999,13446],[999,13529],[999,13613],[999,13696],[999,13779],[999,13863],[999,13946],[999,14029],[999,14113],[999,14196],[999,14279],[999,14363],[999,14446],[999,14529],[999,14613],[999,14696],[999,14779],[999,14862],[999,14946],[999,15029],[999,15112],[999,15196],[999,15280],[999,15362],[999,15446],[999,15529],[999,15614],[999,15695],[999,15780],[999,15862],[999,15945],[999,16029],[999,16112],[999,16195],[999,16279],[999,16362],[999,16445],[999,16529],[999,16612],[999,16695],[999,16779],[999,16862],[999,16945],[999,17029],[999,17112],[999,17195],[999,17278],[999,17362],[999,17445],[999,17528],[999,17612],[999,17695],[999,17778],[999,17862],[999,17945],[999,18028],[999,18112],[999,18195],[999,18278],[999,18362],[999,18445],[999,18528],[999,18612],[999,18695],[999,18778],[999,18862],[999,18945],[999,19028],[999,19112],[999,19195],[999,19278],[999,19362],[999,19445],[999,19528],[999,19611],[999,19695],[999,19778],[999,19861],[999,19945],[999,20028],[999,20111],[999,20195],[999,20278],[999,20361],[999,20445],[999,20528],[999,20611],[999,20694],[999,20778],[999,20861],[999,20944],[999,21028],[999,21111],[999,21195],[999,21278],[999,21361],[999,21444],[999,21528],[999,21611],[999,21694],[999,21778],[999,21861],[999,21944],[999,22028],[999,22111],[999,22195],[999,22278],[999,22361],[999,22444],[999,22528],[999,22611],[999,22694],[999,22777],[999,22861],[999,22944],[999,23027],[999,23111],[999,23194],[999,23277],[999,23361],[999,23444],[999,23527],[999,23611],[999,23694],[999,23777],[999,23860],[999,23944],[999,24027],[999,24110],[999,24194],[999,24277],[999,24360],[999,24444],[999,24527],[999,24610],[999,24694],[999,24777],[999,24860],[999,24944],[999,25027],[999,25110],[999,25194],[999,25277],[999,25360],[999,25444],[999,25527],[999,25610],[999,25694],[999,25777],[999,25860],[999,25943],[999,26027],[999,26110],[999,26193],[999,26277],[999,26360],[999,26443],[999,26527],[999,26610],[999,26693],[999,26777],[999,26860],[999,26943],[999,27027],[999,27110],[999,27193],[999,27276],[999,27360],[999,27443],[999,27526],[999,27610],[999,27693],[999,27776],[999,27860],[999,27943],[999,28026],[999,28110],[999,28193],[999,28276],[999,28360],[999,28443],[999,28526],[999,28610],[999,28693],[999,28776],[999,28860],[999,28943],[999,29026],[999,29110],[999,29193],[999,29276],[999,29359],[999,29443],[999,29526],[999,29609],[999,29693]]",1,0,318.7647,332.3611,99.34114202,10.1921,"[{""rating"":99.3411420204978,""responseTime"":10.077499999999986},{""rating"":99.3411420204978,""responseTime"":10.192100000023856}]",space,13.0483,,332.3621,Not at all,0,332.3669,,,[],,0,0,0,0,1,audio/Narrative13Situation2.wav,audio/Narrative13Situation2.wav,audio/Narrative13Situation2.wav,audio/Narrative13Situation2.wav,2,2,2,2,,,,,,,,,,,,,,,,,,,,,,,,,,,,,,,,,,,,,,,
,,,,,,66101f7b8fd64c6f3b372d7c,2024-05-13_11h44.35.200,group3.1-3.2-social-tom,2023.2.2,Win32,59.88023952,65c5074098b851296ff0b7ed,664232f1f808ec79e59f3d14,,,,,,,,,,,,,,,,,,,,,,,,,,,,,332.3672,1,audio/Narrative8Situation1.wav,340.7419,space,340.7422,356.6721,"[[999,10],[999,99],[999,182],[999,266],[999,349],[999,432],[999,516],[999,599],[999,682],[999,766],[999,849],[999,932],[999,1015],[999,1099],[999,1182],[999,1265],[999,1348],[999,1432],[999,1515],[999,1599],[999,1682],[999,1765],[999,1848],[999,1932],[999,2015],[999,2098],[999,2182],[999,2265],[999,2348],[999,2432],[999,2515],[999,2598],[999,2682],[999,2765],[999,2848],[999,2932],[999,3015],[999,3098],[999,3182],[999,3265],[999,3348],[999,3432],[999,3515],[999,3598],[999,3681],[999,3765],[999,3848],[999,3932],[999,4015],[999,4098],[999,4181],[999,4265],[999,4348],[999,4432],[999,4515],[999,4598],[999,4681],[999,4765],[999,4848],[999,4931],[999,5015],[999,5098],[999,5181],[999,5265],[999,5348],[999,5431],[999,5514],[999,5598],[999,5681],[999,5764],[999,5848],[999,5931],[999,6014],[999,6098],[999,6181],[999,6264],[999,6348],[999,6431],[999,6514],[999,6598],[999,6681],[999,6764],[999,6848],[999,6931],[999,7014],[999,7098],[999,7181],[999,7264],[999,7348],[999,7431],[999,7514],[999,7597],[999,7681],[999,7764],[999,7847],[999,7931],[999,8014],[999,8097],[999,8181],[999,8264],[999,8347],[999,8430],[999,8514],[999,8597],[999,8680],[999,8764],[999,8847],[999,8930],[999,9014],[999,9097],[999,9181],[999,9264],[999,9347],[999,9430],[999,9514],[999,9597],[999,9680],[999,9764],[999,9847],[999,9930],[999,10014],[999,10097],[999,10180],[999,10263],[999,10347],[999,10430],[999,10514],[999,10597],[999,10680],[999,10764],[999,10847],[999,10930],[999,11013],[999,11097],[999,11180],[999,11263],[999,11347],[999,11430],[999,11513],[999,11597],[999,11680],[999,11763],[999,11847],[999,11930],[999,12013],[999,12096],[999,12180],[999,12263],[999,12346],[999,12430],[999,12513],[999,12596],[999,12680],[999,12763],[999,12846],[999,12930],[999,13013],[999,13096],[999,13180],[999,13263],[999,13346],[999,13430],[999,13513],[999,13596],[999,13680],[999,13763],[999,13846],[999,13930],[999,14013],[999,14096],[999,14179],[999,14263],[999,14346],[999,14429],[999,14513],[999,14596],[999,14680],[999,14762],[999,14846],[999,14929],[999,15013],[999,15096],[999,15179],[999,15263],[999,15346],[999,15429],[999,15512],[999,15596],[999,15679],[999,15762],[999,15846],[999,15929]]",1,0,356.6725,366.72,50.58565154,4.1189,"[{""rating"":50.58565153733529,""responseTime"":4.118899999976122}]",space,9.5064,,366.7201,Partially,50,366.7326,,,[],,0,1,1,1,1,audio/Narrative7Situation1.wav,audio/Narrative8Situation1.wav,audio/Narrative5Situation1.wav,audio/Narrative6Situation1.wav,2,5,5,2,8.3591,,,,,,,,,,,,,,,,,,,,,,,,,,,,,,,,,,,,,,
,,,,,,66101f7b8fd64c6f3b372d7c,2024-05-13_11h44.35.200,group3.1-3.2-social-tom,2023.2.2,Win32,59.88023952,65c5074098b851296ff0b7ed,664232f1f808ec79e59f3d14,,,,,,,,,,,,,,,,,,,,,,,,,,,,,366.7329,1,audio/Narrative8Situation2.wav,369.736,,369.7361,379.8677,"[[999,1],[999,82],[999,166],[999,249],[999,332],[999,416],[999,499],[999,582],[999,666],[999,749],[999,833],[999,916],[999,999],[999,1082],[999,1166],[999,1249],[999,1332],[999,1416],[999,1499],[999,1582],[999,1665],[999,1749],[999,1832],[999,1916],[999,1999],[999,2082],[999,2166],[999,2249],[999,2332],[999,2415],[999,2499],[999,2582],[999,2665],[999,2749],[999,2832],[999,2915],[999,2999],[999,3082],[999,3165],[999,3249],[999,3332],[999,3415],[999,3498],[999,3582],[999,3665],[999,3748],[999,3832],[999,3915],[999,3998],[999,4082],[999,4165],[999,4248],[999,4332],[999,4415],[999,4498],[999,4582],[999,4665],[999,4748],[999,4832],[999,4915],[999,4998],[999,5081],[999,5165],[999,5248],[999,5331],[999,5415],[999,5498],[999,5581],[999,5665],[999,5748],[999,5831],[999,5915],[999,5998],[999,6081],[999,6165],[999,6248],[999,6331],[999,6415],[999,6498],[999,6581],[999,6664],[999,6748],[999,6831],[999,6914],[999,6998],[999,7081],[999,7165],[999,7248],[999,7331],[999,7414],[999,7498],[999,7581],[999,7664],[999,7748],[999,7831],[999,7914],[999,7998],[999,8081],[999,8164],[999,8248],[999,8331],[999,8414],[999,8498],[999,8581],[999,8664],[999,8747],[999,8831],[999,8914],[999,8997],[999,9081],[999,9164],[999,9247],[999,9331],[999,9414],[999,9497],[999,9581],[999,9664],[999,9747],[999,9831],[999,9914],[999,9997],[999,10080]]",1,0,379.8679,384.1664,0.805270864,3.1438,"[{""rating"":0.8052708638360162,""responseTime"":3.143799999952307}]",space,3.7529,,384.1664,Definitely yes,100,384.1714,,,[],,0,2,2,2,1,audio/Narrative7Situation2.wav,audio/Narrative8Situation2.wav,audio/Narrative5Situation2.wav,audio/Narrative6Situation2.wav,3,3,3,3,,,,,,,,,,,,,,,,,,,,,,,,,,,,,,,,,,,,,,,
,,,,,,66101f7b8fd64c6f3b372d7c,2024-05-13_11h44.35.200,group3.1-3.2-social-tom,2023.2.2,Win32,59.88023952,65c5074098b851296ff0b7ed,664232f1f808ec79e59f3d14,,,,,,,,,,,,,,,,,,,,,,,,,,,,,384.1716,1,audio/Narrative8Situation3.wav,388.1822,,388.1822,410.5629,"[[999,12],[999,99],[999,183],[999,266],[999,349],[999,433],[999,516],[999,599],[999,683],[999,766],[999,849],[999,933],[999,1016],[999,1099],[999,1183],[999,1266],[999,1349],[999,1432],[999,1516],[999,1599],[999,1682],[999,1766],[999,1849],[999,1932],[999,2016],[999,2099],[999,2182],[999,2266],[999,2349],[999,2432],[999,2516],[999,2599],[999,2682],[999,2766],[999,2849],[999,2932],[999,3015],[999,3099],[999,3182],[999,3266],[999,3349],[999,3432],[999,3516],[999,3599],[999,3682],[999,3765],[999,3849],[999,3932],[999,4015],[999,4099],[999,4182],[999,4265],[999,4349],[999,4432],[999,4515],[999,4599],[999,4682],[999,4765],[999,4848],[999,4932],[999,5015],[999,5098],[999,5182],[999,5265],[999,5348],[999,5432],[999,5515],[999,5598],[999,5682],[999,5765],[999,5848],[999,5932],[999,6015],[999,6098],[999,6182],[999,6265],[999,6348],[999,6432],[999,6515],[999,6598],[999,6681],[999,6765],[999,6848],[999,6931],[999,7015],[999,7098],[999,7182],[999,7265],[999,7348],[999,7431],[999,7515],[999,7598],[999,7681],[999,7764],[999,7848],[999,7931],[999,8014],[999,8098],[999,8181],[999,8264],[999,8348],[999,8431],[999,8514],[999,8598],[999,8681],[999,8764],[999,8848],[999,8931],[999,9014],[999,9098],[999,9181],[999,9264],[999,9348],[999,9431],[999,9514],[999,9597],[999,9681],[999,9764],[999,9847],[999,9931],[999,10014],[999,10097],[999,10181],[999,10264],[999,10347],[999,10431],[999,10514],[999,10597],[999,10681],[999,10764],[999,10847],[999,10931],[999,11014],[999,11097],[999,11180],[999,11264],[999,11347],[999,11430],[999,11514],[999,11597],[999,11680],[999,11764],[999,11847],[999,11930],[999,12014],[999,12098],[999,12180],[999,12264],[999,12347],[999,12430],[999,12514],[999,12597],[999,12680],[999,12764],[999,12847],[999,12930],[999,13014],[999,13097],[999,13181],[78,13264],[79.9,13347],[81.3,13430],[81.8,13514],[93.2,13597],[100,13680],[100,13763],[100,13847],[100,13931],[100,14014],[100,14097],[98.3,14185],[98.3,14264],[69.9,15097],[71.5,15180],[71.8,15263],[71.8,15346],[71.8,15430],[71.8,15513],[71.8,15596],[71.8,15680],[71.8,15763],[71.8,15846],[71.8,15930],[71.8,16013],[71.8,16096],[71.8,16180],[71.8,16263],[71.8,16346],[71.8,16429],[71.8,16513],[71.8,16596],[71.8,16679],[71.8,16763],[71.8,16846],[71.8,16929],[71.8,17013],[71.8,17096],[71.8,17179],[71.8,17263],[71.8,17346],[71.8,17429],[71.8,17512],[71.8,17596],[71.8,17679],[71.8,17763],[71.8,17846],[71.8,17929],[71.8,18012],[71.8,18096],[71.8,18179],[71.8,18262],[71.8,18346],[71.8,18429],[71.8,18512],[71.8,18596],[71.8,18679],[71.8,18762],[71.8,18846],[71.8,18929],[71.8,19012],[71.8,19096],[71.8,19179],[71.8,19262],[71.8,19345],[71.8,19429],[71.8,19512],[71.8,19596],[71.8,19681],[71.8,19762],[71.8,19846],[71.8,19929],[71.8,20012],[71.8,20095],[71.8,20179],[71.8,20262],[71.8,20345],[71.8,20429],[71.8,20512],[71.8,20595],[71.8,20679],[71.8,20762],[71.8,20846],[71.8,20928],[71.8,21012],[71.8,21095],[71.8,21178],[71.8,21262],[71.8,21345],[71.8,21428],[71.8,21512],[71.8,21595],[71.8,21678],[80,21762],[80,21845],[80.7,21929],[83.5,22012],[100,22096],[100,22178],[100,22262],[100,22345]]",1,0,410.5632,413.6106,98.90190337,1.1189,"[{""rating"":98.90190336749633,""responseTime"":1.1189000000954366}]",space,2.5113,,413.6107,Not at all,0,413.6152,,,[],,0,3,3,3,1,audio/Narrative7Situation3.wav,audio/Narrative8Situation3.wav,audio/Narrative5Situation3.wav,audio/Narrative6Situation3.wav,8,4,3,5,,,,,,,,,,,,,,,,,,,,,,,,,,,,,,,,,,,,,,,
,,,,,,66101f7b8fd64c6f3b372d7c,2024-05-13_11h44.35.200,group3.1-3.2-social-tom,2023.2.2,Win32,59.88023952,65c5074098b851296ff0b7ed,664232f1f808ec79e59f3d14,,,,,,,,,,,,,,,,,,,,,,,,,,,,,413.6154,1,audio/Narrative8Situation4.wav,416.6265,,416.6266,430.8072,"[[999,1],[999,83],[999,166],[999,249],[999,332],[999,416],[999,499],[999,582],[999,666],[999,749],[999,833],[999,916],[999,999],[999,1082],[999,1166],[999,1249],[999,1332],[999,1416],[999,1499],[999,1583],[999,1666],[999,1749],[999,1832],[999,1916],[999,1999],[999,2082],[999,2166],[999,2249],[999,2332],[999,2416],[999,2499],[999,2582],[999,2666],[999,2749],[999,2832],[999,2916],[999,2999],[999,3082],[999,3166],[999,3249],[999,3332],[999,3415],[999,3499],[999,3582],[999,3665],[999,3749],[999,3832],[999,3917],[999,3998],[999,4082],[999,4166],[999,4249],[999,4332],[999,4415],[999,4499],[999,4582],[999,4665],[999,4748],[999,4832],[999,4915],[999,4999],[999,5082],[999,5166],[999,5249],[999,5332],[999,5416],[999,5499],[999,5582],[999,5665],[999,5749],[999,5831],[999,5915],[999,5998],[999,6081],[999,6165],[999,6248],[999,6331],[999,6415],[999,6498],[999,6581],[999,6665],[999,6748],[999,6831],[999,6914],[999,6998],[999,7081],[999,7164],[999,7248],[999,7331],[999,7414],[999,7498],[999,7581],[999,7664],[999,7748],[999,7831],[999,7914],[999,7998],[999,8081],[999,8164],[999,8248],[999,8331],[999,8414],[999,8498],[999,8581],[999,8664],[999,8748],[999,8831],[999,8914],[999,8997],[999,9081],[999,9164],[999,9247],[999,9331],[999,9414],[999,9497],[999,9581],[999,9664],[999,9747],[999,9831],[999,9914],[999,9997],[999,10081],[999,10164],[999,10247],[999,10331],[999,10414],[999,10497],[999,10581],[999,10664],[999,10747],[999,10831],[999,10914],[999,10997],[999,11080],[999,11164],[999,11247],[999,11330],[999,11414],[999,11497],[999,11580],[999,11664],[999,11747],[999,11830],[999,11914],[999,11997],[999,12080],[999,12163],[999,12247],[999,12330],[999,12413],[999,12497],[999,12580],[999,12663],[999,12747],[999,12830],[999,12913],[999,12997],[999,13080],[999,13163],[999,13247],[999,13330],[999,13413],[999,13497],[999,13580],[999,13663],[999,13746],[999,13830],[999,13913],[999,13996],[999,14080],[999,14163]]",1,0,430.8073,440.7217,99.63396779,8.66,"[{""rating"":99.63396778916544,""responseTime"":8.660000000000025}]",space,9.3658,,440.7218,Partially,50,440.7263,,,[],,0,4,4,4,1,audio/Narrative7Situation4.wav,audio/Narrative8Situation4.wav,audio/Narrative5Situation4.wav,audio/Narrative6Situation4.wav,3,3,1,2,,,,,,,,,,,,,,,,,,,,,,,,,,,,,,,,,,,,,,,
,,,,,,66101f7b8fd64c6f3b372d7c,2024-05-13_11h44.35.200,group3.1-3.2-social-tom,2023.2.2,Win32,59.88023952,65c5074098b851296ff0b7ed,664232f1f808ec79e59f3d14,,,,,,,,,,,,,,,,,,,,,,,,,,,,,440.7265,1,audio/Narrative8Situation5.wav,442.7379,,442.738,450.9864,"[[999,0],[999,83],[999,166],[999,249],[999,333],[999,416],[999,499],[999,583],[999,666],[999,749],[999,833],[999,916],[999,999],[999,1083],[999,1166],[999,1249],[999,1332],[999,1416],[999,1499],[999,1582],[999,1666],[999,1749],[999,1832],[999,1916],[999,1999],[999,2082],[999,2165],[999,2249],[999,2333],[999,2415],[999,2499],[999,2582],[45.6,3083],[45.9,3166],[45.8,3249],[45.5,3332],[45.5,3415],[48.2,3499],[69.3,3583]]",1,0,450.9866,462.1674,1.390922401,9.854,"[{""rating"":1.3909224011713017,""responseTime"":9.854000000000042}]",space,10.6426,,462.1676,Definitely yes,100,462.1722,,,[],,0,5,5,5,1,audio/Narrative7Situation5.wav,audio/Narrative8Situation5.wav,audio/Narrative5Situation5.wav,audio/Narrative6Situation5.wav,5,2,5,2,,,,,,,,,,,,,,,,,,,,,,,,,,,,,,,,,,,,,,,
,,,,,,66101f7b8fd64c6f3b372d7c,2024-05-13_11h44.35.200,group3.1-3.2-social-tom,2023.2.2,Win32,59.88023952,65c5074098b851296ff0b7ed,664232f1f808ec79e59f3d14,,,,,,,,,,,,,,,,,,,,,,,,,,,,,462.1725,1,audio/Narrative8Situation6.wav,464.1839,,464.184,470.6657,"[[999,1],[999,82],[999,166],[999,249],[999,332],[999,416],[999,499],[999,582],[999,666],[999,749],[999,832],[999,916],[999,999],[999,1082],[999,1165],[999,1249],[999,1332],[999,1415],[999,1499],[999,1582],[999,1665],[999,1749],[999,1832],[999,1915],[999,1999],[999,2082],[999,2165],[999,2249],[999,2332],[999,2415],[999,2498],[999,2582],[999,2665],[999,2748],[999,2832],[999,2915],[999,2998],[999,3082],[999,3165],[999,3248],[999,3332],[999,3415],[999,3498],[999,3581],[999,3665],[999,3748],[999,3831],[999,3915],[999,3998],[999,4081],[999,4165],[999,4248],[999,4331],[999,4415],[999,4501],[999,4581],[999,4665],[999,4749],[999,4831],[999,4915],[999,4998],[999,5081],[999,5165],[999,5248],[999,5331],[999,5415],[999,5498],[999,5581],[999,5664],[999,5748],[999,5831],[999,5914],[999,5998],[999,6081],[999,6164],[999,6248],[999,6331],[999,6414]]",1,0,470.6659,472.9985,1.68374817,1.606,"[{""rating"":1.6837481698389445,""responseTime"":1.6059999999999945}]",space,1.8,,472.9986,Not at all,0,473.0038,,,[],,0,6,6,6,1,audio/Narrative7Situation6.wav,audio/Narrative8Situation6.wav,audio/Narrative5Situation6.wav,audio/Narrative6Situation6.wav,3,2,3,2,,,,,,,,,,,,,,,,,,,,,,,,,,,,,,,,,,,,,,,
,,,,,,66101f7b8fd64c6f3b372d7c,2024-05-13_11h44.35.200,group3.1-3.2-social-tom,2023.2.2,Win32,59.88023952,65c5074098b851296ff0b7ed,664232f1f808ec79e59f3d14,,,,,,,,,,,,,,,,,,,,,,,,,,,,,473.004,1,audio/Narrative8Situation7.wav,476.0145,,476.0145,488.1125,[],1,0,488.1126,499.9429,99.78038067,11.5108,"[{""rating"":99.78038067349927,""responseTime"":11.510799999952383}]",space,11.2835,,499.9431,Partially,50,499.9481,,,[],,0,7,7,7,1,audio/Narrative7Situation7.wav,audio/Narrative8Situation7.wav,audio/Narrative5Situation7.wav,audio/Narrative6Situation7.wav,5,3,4,5,,,,,,,,,,,,,,,,,,,,,,,,,,,,,,,,,,,,,,,
,,,,,,66101f7b8fd64c6f3b372d7c,2024-05-13_11h44.35.200,group3.1-3.2-social-tom,2023.2.2,Win32,59.88023952,65c5074098b851296ff0b7ed,664232f1f808ec79e59f3d14,,,,,,,,,,,,,,,,,,,,,,,,,,,,,499.9485,1,audio/Narrative8Situation8.wav,502.959,,502.959,515.8232,"[[95.5,833],[95.1,916],[94.9,999],[94.9,1083],[94.9,1166],[94.9,1249],[94.9,1332],[94.9,1416],[94.9,1499],[94.9,1582],[94.9,1666],[94.9,1749],[94.9,1832],[94.9,1916],[94.9,1999],[94.9,2082],[94.9,2166],[94.9,2249],[94.9,2332],[94.9,2416],[94.9,2499],[94.9,2582],[94.9,2666],[94.9,2749],[94.9,2832],[94.9,2915],[94.9,2999],[94.9,3082],[94.9,3165],[94.9,3249],[94.9,3332],[94.9,3415],[94.9,3499],[94.9,3582],[94.9,3665],[94.9,3749],[94.9,3832],[94.9,3915],[94.9,3999],[94.9,4082],[94.9,4165],[94.9,4249],[94.9,4332],[94.9,4415],[94.9,4499],[94.9,4582],[94.9,4665],[94.9,4748],[94.9,4832],[94.9,4915],[94.9,4998],[94.9,5082],[94.9,5165],[94.9,5248],[94.9,5332],[94.9,5415],[94.9,5498],[94.9,5582],[94.9,5665],[94.9,5748],[94.9,5831],[94.9,5915],[94.9,5998],[94.9,6081],[94.9,6165],[94.9,6249],[94.9,6331],[94.9,6415],[94.9,6499],[94.9,6581],[94.9,6665],[94.9,6748],[94.9,6831],[94.9,6915],[94.9,6998],[94.9,7081],[94.9,7165],[94.9,7248],[94.9,7331],[94.9,7415],[94.9,7498],[94.9,7581],[94.9,7665],[94.9,7748],[94.9,7831],[94.9,7914],[94.9,7998],[94.9,8081],[94.9,8164],[94.9,8248],[94.9,8331],[94.9,8414],[94.9,8498],[94.9,8581],[94.9,8664],[94.9,8748],[94.9,8831],[94.9,8914],[94.9,8998],[94.9,9081],[94.9,9164],[94.9,9248],[94.9,9331],[94.9,9414],[94.9,9498],[94.9,9581],[94.9,9664],[94.9,9747],[94.9,9831],[94.9,9914],[94.9,9997],[94.9,10081],[94.9,10164],[94.9,10247],[94.9,10331],[94.9,10414],[94.9,10498],[94.9,10581],[94.9,10664],[94.9,10747],[94.9,10831],[94.9,10914],[94.9,10997],[94.9,11081],[94.9,11164],[94.9,11247],[94.9,11331],[94.9,11414],[94.9,11497],[94.9,11580],[94.9,11664],[94.9,11747],[94.9,11830],[94.9,11914],[94.9,11997],[94.9,12080],[94.9,12164],[94.9,12247],[94.9,12330],[94.9,12413],[94.9,12497],[94.9,12580],[94.9,12664],[94.9,12747],[94.9,12830]]",1,0,515.8235,526.571,0.219619327,9.2768,"[{""rating"":0.21961932650073068,""responseTime"":9.276799999952345}]",space,10.2082,,526.571,Not at all,0,526.5757,,,[],,0,8,8,8,1,audio/Narrative7Situation8.wav,audio/Narrative8Situation8.wav,audio/Narrative5Situation8.wav,audio/Narrative6Situation8.wav,2,3,3,5,,,,,,,,,,,,,,,,,,,,,,,,,,,,,,,,,,,,,,,
,,,,,,66101f7b8fd64c6f3b372d7c,2024-05-13_11h44.35.200,group3.1-3.2-social-tom,2023.2.2,Win32,59.88023952,65c5074098b851296ff0b7ed,664232f1f808ec79e59f3d14,,,,,,,,,,,,,,,,,,,,,,,,,,,,,526.5759,1,audio/Narrative8Situation9.wav,529.587,,529.5872,540.9187,"[[999,9],[999,99],[999,183],[999,266],[999,350],[999,432],[999,516],[999,600],[999,683],[999,767],[999,850],[999,932],[999,1016],[999,1099],[999,1182],[999,1266],[999,1349],[999,1432],[999,1516],[999,1599],[999,1682],[999,1766],[999,1849],[999,1932],[999,2016],[999,2099],[999,2182],[999,2266],[999,2349],[999,2432],[999,2515],[999,2599],[999,2682],[999,2765],[999,2849],[999,2932],[999,3015],[999,3099],[999,3182],[999,3265],[999,3349],[999,3432],[999,3515],[999,3599],[999,3682],[999,3765],[999,3848],[999,3932],[999,4015],[999,4098],[999,4182],[999,4265],[999,4348],[999,4432],[999,4515],[999,4598],[999,4682],[999,4765],[999,4848],[999,4932],[999,5015],[999,5098],[999,5182],[999,5265],[999,5348],[999,5431],[999,5515],[999,5598],[999,5681],[999,5765],[999,5848],[999,5931],[999,6015],[999,6098],[999,6181],[999,6265],[999,6348],[999,6432],[999,6515],[999,6598],[999,6681],[999,6765],[999,6848],[999,6931],[999,7016],[999,7098],[999,7181],[999,7265],[999,7348],[999,7431],[999,7514],[999,7598],[999,7681],[999,7765],[999,7848],[999,7932],[999,8014],[999,8098],[999,8181],[999,8264],[999,8348],[999,8431],[999,8514],[999,8597],[999,8681],[999,8764],[999,8847],[999,8931],[999,9014],[999,9098],[999,9181],[999,9264],[999,9347],[999,9431],[999,9514],[999,9598],[999,9681],[999,9764],[999,9847],[999,9930],[999,10014],[999,10097],[999,10180],[999,10264],[64.6,10348],[65.7,10430],[67.1,10514],[74.5,10598],[79.6,10681],[83.8,10764],[88.1,10848],[91,10931],[93,11014],[95.2,11097],[98.2,11187],[99.8,11264]]",1,0,540.9189,543.5509,99.78038067,2.1059,"[{""rating"":99.78038067349927,""responseTime"":2.105900000095403}]",space,2.0868,,543.551,Partially,50,543.5558,,,[],,0,9,9,9,1,audio/Narrative7Situation9.wav,audio/Narrative8Situation9.wav,audio/Narrative5Situation9.wav,audio/Narrative6Situation9.wav,2,3,3,4,,,,,,,,,,,,,,,,,,,,,,,,,,,,,,,,,,,,,,,
,,,,,,66101f7b8fd64c6f3b372d7c,2024-05-13_11h44.35.200,group3.1-3.2-social-tom,2023.2.2,Win32,59.88023952,65c5074098b851296ff0b7ed,664232f1f808ec79e59f3d14,,,,,,,,,,,,,,,,,,,,,,,,,,,,,543.5561,1,audio/Narrative7Situation1.wav,545.567,,545.5672,601.4559,"[[80.9,5748],[80.9,5831],[80.9,5915],[80.9,5998],[80.9,6081],[80.9,6165],[80.9,6248],[80.9,6331],[80.9,6415],[80.9,6498],[80.9,6581],[80.9,6664],[80.9,6748],[80.9,6831],[80.9,6915],[80.9,6998],[80.9,7081],[80.9,7165],[80.9,7248],[80.9,7331],[80.9,7414],[80.9,7498],[80.9,7581],[80.9,7664],[80.9,7748],[80.9,7831],[80.9,7914],[80.9,7998],[80.9,8081],[80.9,8164],[80.9,8248],[80.9,8331],[80.9,8414],[80.9,8498],[80.9,8581],[80.9,8664],[80.9,8748],[80.9,8831],[17.5,9331],[0.5,9831],[0.5,9914],[0.5,9998],[1,10081],[1,10164],[1.1,10247],[1.1,10331],[1.1,10414],[1.1,10497],[1.1,10581],[1.1,10664],[1.1,10747],[1.1,10830],[1.1,10914],[1.1,10997],[1.1,11080],[1.1,11164],[1.1,11247],[1.1,11330],[1.1,11414],[1.1,11497],[1.1,11580],[1.1,11664],[1.1,11747],[1.1,11830],[1.1,11914],[1.1,11997],[1.1,12080],[1.1,12163],[1.1,12247],[1.1,12330],[1.1,12413],[1.1,12497],[1.1,12580],[1.1,12663],[5.2,12747],[21.3,12831],[31.3,12914],[33.7,12997],[41.1,13081],[49.4,13164],[51.8,13247],[52,13330],[51.9,13414],[51.5,13497],[89.5,15830],[90.6,15913],[93.2,15996],[94.9,16080],[95.5,16163],[96,16246],[97,16330],[97.9,16413],[98,16496],[98.2,16579],[98.2,16663],[96.9,16746],[96.7,16829],[96.7,16913],[96.7,16996],[96.7,17079],[96.7,17162],[96.7,17246],[96.7,17329],[96.7,17412],[96.7,17496],[96.7,17579],[96.7,17662],[96.7,17746],[96.7,17829],[96.7,17912],[96.7,17996],[96.7,18079],[96.7,18162],[96.7,18246],[96.7,18329],[96.7,18412],[96.7,18495],[96.7,18579],[96.7,18662],[96.7,18745],[96.7,18829],[96.7,18912],[96.7,18995],[96.7,19079],[96.7,19162],[96.7,19245],[96.7,19329],[96.7,19412],[96.7,19496],[96.7,19579],[96.7,19662],[96.7,19745],[96.7,19829],[96.7,19912],[96.7,19995],[96.7,20079],[96.7,20162],[96.7,20245],[96.7,20328],[96.7,20412],[96.7,20495],[96.7,20579],[96.7,20662],[96.7,20745],[96.7,20828],[96.7,20912],[96.7,20995],[96.7,21078],[96.7,21162],[96.7,21245],[96.7,21328],[96.7,21412],[96.7,21495],[96.7,21578],[96.7,21662],[96.7,21745],[96.7,21828],[96.7,21912],[96.7,21995],[96.7,22078],[96.7,22162],[96.7,22245],[96.7,22328],[96.7,22411],[96.7,22495],[96.7,22578],[96.7,22662],[96.7,22745],[96.7,22828],[96.7,22911],[96.7,22995],[96.7,23078],[96.7,23161],[96.7,23245],[96.7,23328],[96.7,23411],[96.7,23495],[96.7,23578],[96.7,23661],[96.7,23745],[96.7,23828],[96.7,23911],[96.7,23995],[96.7,24078],[96.7,24161],[96.7,24244],[96.7,24328],[96.7,24411],[96.7,24494],[96.7,24578],[96.7,24661],[96.7,24744],[96.7,24828],[96.7,24911],[96.7,24994],[96.7,25077],[96.7,25161],[96.7,25244],[96.7,25327],[96.7,25411],[96.7,25494],[96.7,25577],[96.7,25661],[96.7,25744],[96.7,25827],[96.7,25911],[96.7,25994],[96.7,26077],[96.7,26161],[96.7,26244],[96.7,26327],[96.7,26411],[96.7,26494],[96.7,26577],[96.7,26661],[96.7,26744],[96.7,26827],[96.7,26911],[96.7,26994],[96.7,27077],[96.7,27160],[96.7,27244],[96.7,27327],[96.7,27410],[96.7,27494],[96.7,27577],[96.7,27660],[96.7,27744],[96.7,27827],[96.7,27910],[96.7,27994],[96.7,28077],[96.7,28160],[96.7,28244],[96.7,28327],[96.7,28410],[96.7,28494],[96.7,28577],[96.7,28660],[96.7,28744],[96.7,28827],[96.7,28910],[96.7,28994],[96.7,29077],[96.7,29160],[96.7,29243],[96.7,29327],[96.7,29410],[96.7,29493],[96.7,29577],[96.7,29660],[96.7,29743],[96.7,29827],[96.7,29910],[96.7,29993],[96.7,30077],[96.7,30160],[96.7,30243],[96.7,30326],[96.7,30410],[96.7,30493],[96.7,30577],[96.7,30660],[96.7,30743],[96.7,30826],[96.7,30910],[96.7,30993],[96.7,31077],[96.7,31160],[96.7,31243],[96.7,31326],[96.7,31410],[96.7,31493],[96.7,31576],[96.7,31660],[96.7,31743],[96.7,31826],[96.7,31909],[96.7,31993],[96.7,32076],[96.7,32159],[96.7,32243],[96.7,32326],[96.7,32409],[96.7,32493],[96.7,32576],[96.7,32659],[96.7,32743],[96.7,32826],[96.7,32909],[96.7,32993],[96.7,33076],[96.7,33159],[96.7,33243],[96.7,33326],[96.7,33409],[96.7,33493],[96.7,33576],[96.7,33659],[96.7,33742],[96.7,33826],[96.7,33909],[96.7,33992],[96.7,34076],[96.7,34159],[96.7,34242],[96.7,34326],[96.7,34409],[96.7,34492],[96.7,34576],[96.7,34659],[96.7,34742],[96.7,34826],[96.7,34909],[96.7,34992],[96.7,35076],[96.7,35159],[96.7,35242],[96.7,35325],[96.7,35409],[96.7,35492],[96.7,35576],[96.7,35659],[96.7,35742],[96.7,35825],[96.7,35909],[96.7,35992],[96.7,36075],[96.7,36159],[96.7,36242],[96.7,36325],[96.7,36409],[96.7,36492],[96.7,36575],[98.6,36659],[98.8,36742],[100,36826],[100,36908],[100,36992],[100,37075],[100,37158],[100,37242],[100,37325],[100,37408],[100,37492],[100,37575],[100,37658],[100,37742],[100,37825],[100,37908],[100,37992],[100,38075],[100,38158],[100,38241],[100,38325],[100,38408],[100,38491],[100,38575],[100,38658],[100,38742],[100,38825],[100,38908],[100,38991],[100,39075],[100,39158],[100,39241],[100,39325],[100,39408],[100,39491],[100,39575],[100,39658],[100,39741],[100,39825],[100,39908],[100,39991],[100,40075],[100,40158],[100,40241],[100,40325],[100,40408],[100,40491],[100,40574],[100,40658],[100,40741],[100,40824],[100,40908],[100,40991],[100,41074],[100,41158],[100,41241],[100,41324],[100,41408],[100,41491],[100,41574],[100,41658],[100,41741],[100,41824],[100,41907],[100,41991],[100,42074],[100,42157],[100,42241],[100,42324],[100,42407],[100,42494],[100,42574],[100,42658],[100,42741],[100,42824],[100,42907],[100,42991],[100,43074],[100,43159],[100,43241],[100,43325],[100,43407],[99.9,43490],[99.6,43574],[99.5,43657],[99.5,43740],[99.5,43824],[99.5,43907],[99.5,43990],[99.5,44074],[99.5,44157],[99.5,44240],[99.5,44324],[99.5,44407],[99.5,44490],[99.5,44574],[99.5,44657],[99.5,44740],[99.5,44823],[99.5,44907],[99.5,44990],[99.5,45074],[99.5,45157],[99.5,45240],[99.5,45324],[99.5,45407],[99.5,45490],[99.5,45573],[99.5,45657],[99.5,45740],[99.5,45823],[99.5,45907],[99.5,45990],[99.5,46073],[99.5,46157],[99.5,46240],[99.5,46323],[99.5,46407],[99.5,46490],[99.5,46573],[99.5,46657],[99.5,46740],[99.5,46823],[99.3,46907],[99.3,46990],[99.3,47073],[99.3,47156],[99.3,47240],[99.3,47323],[99.3,47406],[99.3,47490],[99.3,47573],[99.3,47656],[99.3,47740],[99.3,47823],[99.3,47906],[99.3,47990],[99.3,48073],[99.3,48156],[99.3,48240],[99.3,48323],[99.3,48406],[99.3,48490],[99.3,48573],[99.3,48656],[99.3,48740],[99.3,48823],[99.3,48906],[99.3,48989],[99.3,49073],[99.3,49156],[99.3,49239],[99.3,49323],[99.3,49406],[99.3,49489],[99.3,49572],[99.3,49656],[99.3,49739],[99.3,49822],[99.3,49906],[99.3,49989],[99.3,50072],[99.3,50156],[99.3,50239],[99.3,50322],[99.3,50406],[99.3,50489],[99.3,50572],[99.3,50656],[99.3,50739],[99.3,50822],[99.3,50906],[99.3,50989],[99.3,51072],[99.3,51156],[99.3,51239],[99.3,51322],[99.3,51406],[99.3,51489],[99.3,51572],[99.3,51655],[99.3,51739],[99.3,51822],[99.3,51905],[99.3,51989],[99.3,52072],[99.3,52155],[99.3,52239],[99.3,52322],[99.3,52405],[99.3,52489],[99.3,52572],[99.3,52655],[99.3,52739],[99.3,52822],[99.3,52905],[99.3,52989],[99.3,53072],[99.3,53155],[99.3,53239],[99.3,53322],[99.3,53405],[99.3,53489],[99.3,53572],[99.3,53655],[99.3,53738],[99.3,53822],[99.3,53905],[99.3,53988],[99.3,54072],[99.3,54155],[99.3,54238],[99.3,54322],[99.3,54405],[99.3,54488],[99.3,54572],[99.3,54655],[99.3,54738],[99.3,54822],[99.3,54905],[99.3,54988],[99.3,55071],[99.3,55155],[99.3,55238],[99.3,55322],[99.3,55405],[99.3,55488],[99.3,55571],[99.3,55655],[99.3,55738],[99.3,55821]]",1,0,601.4563,610.1541,49.85358712,7.9114,"[{""rating"":98.02342606149341,""responseTime"":1.5193999999761445},{""rating"":49.85358711566617,""responseTime"":7.911399999976084}]",space,8.1494,,610.1542,Definitely yes,100,610.1589,,,[],,0,10,10,10,1,audio/Narrative8Situation1.wav,audio/Narrative7Situation1.wav,audio/Narrative6Situation1.wav,audio/Narrative5Situation1.wav,5,2,2,5,,,,,,,,,,,,,,,,,,,,,,,,,,,,,,,,,,,,,,,
,,,,,,66101f7b8fd64c6f3b372d7c,2024-05-13_11h44.35.200,group3.1-3.2-social-tom,2023.2.2,Win32,59.88023952,65c5074098b851296ff0b7ed,664232f1f808ec79e59f3d14,,,,,,,,,,,,,,,,,,,,,,,,,,,,,610.159,1,audio/Narrative7Situation2.wav,613.1701,,613.1701,620.6522,"[[69.8,750],[71.4,833],[78.3,2916],[80,2999],[79.9,3082],[79.9,3166],[79.9,3249],[79.9,3332],[79.9,3415],[79.9,3499],[79.9,3582],[79.9,3665],[79.9,3749],[79.9,3832],[79.9,3915],[79.9,3999],[79.9,4082],[79.9,4165],[79.9,4249],[79.9,4332],[79.9,4415],[79.9,4499],[79.9,4582],[79.9,4665],[79.9,4749],[79.9,4832],[79.9,4915],[79.9,4998],[79.9,5082],[79.9,5165],[79.9,5248],[79.9,5332],[79.9,5415],[79.9,5498],[79.9,5582],[79.9,5665],[79.9,5748],[79.9,5832],[79.9,5915],[79.9,5998],[79.9,6081],[79.9,6165],[79.9,6248],[79.9,6331],[79.9,6415],[79.9,6498],[79.9,6581],[79.9,6665],[79.9,6748],[79.9,6831],[79.9,6915],[79.9,6998],[79.9,7081],[79.9,7165],[79.9,7248],[79.9,7331],[79.9,7415]]",1,0,620.6523,645.0971,0.512445095,23.5909,"[{""rating"":0.5124450951683734,""responseTime"":23.59089999997616}]",space,23.9063,,645.0971,Partially,50,645.1013,,,[],,0,11,11,11,1,audio/Narrative8Situation2.wav,audio/Narrative7Situation2.wav,audio/Narrative6Situation2.wav,audio/Narrative5Situation2.wav,3,3,3,3,,,,,,,,,,,,,,,,,,,,,,,,,,,,,,,,,,,,,,,
,,,,,,66101f7b8fd64c6f3b372d7c,2024-05-13_11h44.35.200,group3.1-3.2-social-tom,2023.2.2,Win32,59.88023952,65c5074098b851296ff0b7ed,664232f1f808ec79e59f3d14,,,,,,,,,,,,,,,,,,,,,,,,,,,,,645.1016,1,audio/Narrative7Situation3.wav,653.1121,,653.1122,662.3769,"[[100,5165],[83.8,5498],[81.6,5581],[81.6,5665],[82.4,5748]]",1,0,662.377,669.4922,50.87847731,4.1362,"[{""rating"":0.8052708638360162,""responseTime"":1.016099999904668},{""rating"":50.87847730600292,""responseTime"":4.136199999928522}]",space,6.5698,,669.4922,Not at all,0,669.4966,,,[],,0,12,12,12,1,audio/Narrative8Situation3.wav,audio/Narrative7Situation3.wav,audio/Narrative6Situation3.wav,audio/Narrative5Situation3.wav,4,8,5,3,,,,,,,,,,,,,,,,,,,,,,,,,,,,,,,,,,,,,,,
,,,,,,66101f7b8fd64c6f3b372d7c,2024-05-13_11h44.35.200,group3.1-3.2-social-tom,2023.2.2,Win32,59.88023952,65c5074098b851296ff0b7ed,664232f1f808ec79e59f3d14,,,,,,,,,,,,,,,,,,,,,,,,,,,,,669.4969,1,audio/Narrative7Situation4.wav,672.5087,,672.5087,684.2393,"[[100,82],[100,165],[100,249],[100,332],[100,415],[100,499],[100,582],[100,665],[100,749],[100,832],[100,915],[100,999],[100,10414],[100,10497],[100,10580],[100,10664],[100,10747],[100,10830],[100,10913],[100,10997],[100,11080],[100,11163],[100,11247],[100,11330],[100,11413],[100,11497]]",1,0,684.2394,687.6219,1.244509517,2.1138,"[{""rating"":1.2445095168374831,""responseTime"":2.113799999952221}]",space,2.8327,,687.622,Not at all,0,698.353,1.390922401,9.6111,"[{""rating"":1.3909224011713017,""responseTime"":9.61110000002384}]",space,0,13,13,13,1,audio/Narrative8Situation4.wav,audio/Narrative7Situation4.wav,audio/Narrative6Situation4.wav,audio/Narrative5Situation4.wav,3,3,2,1,,,10.1934,,,,,,,,,,,,,,,,,,,,,,,,,,,,,,,,,,,,
,,,,,,66101f7b8fd64c6f3b372d7c,2024-05-13_11h44.35.200,group3.1-3.2-social-tom,2023.2.2,Win32,59.88023952,65c5074098b851296ff0b7ed,664232f1f808ec79e59f3d14,,,,,,,,,,,,,,,,,,,,,,,,,,,,,698.3535,1,audio/Narrative7Situation5.wav,703.3686,,703.3686,711.8671,"[[999,8],[999,83],[999,166],[999,249],[999,333],[999,416],[999,499],[999,583],[999,666],[999,749],[999,833],[999,916],[999,999],[999,1083],[999,1166],[999,1249],[999,1333],[999,1416],[999,1499],[999,1582],[999,1666],[999,1749],[999,1833],[999,1916],[999,1999],[999,2082],[999,2166],[999,2249],[999,2332],[999,2416],[999,2499],[999,2582],[999,2666],[999,2749],[999,2832],[999,2915],[999,2999],[999,3082],[999,3166],[999,3249],[999,3332],[999,3415],[999,3499],[999,3582],[999,3665],[999,3749],[999,3832],[999,3916],[999,3999],[27.2,4083],[27.6,7999],[26.1,8082],[26,8165],[26.4,8248],[30.7,8331],[32.1,8415],[32.7,8498]]",1,0,711.8673,715.9161,0.805270864,2.87,"[{""rating"":0.8052708638360162,""responseTime"":2.7976000000238628},{""rating"":0.8052708638360162,""responseTime"":2.8700000000000045}]",space,3.5271,,715.9163,Not at all,0,715.9194,,,[],,0,14,14,14,1,audio/Narrative8Situation5.wav,audio/Narrative7Situation5.wav,audio/Narrative6Situation5.wav,audio/Narrative5Situation5.wav,2,5,2,5,,,,,,,,,,,,,,,,,,,,,,,,,,,,,,,,,,,,,,,
,,,,,,66101f7b8fd64c6f3b372d7c,2024-05-13_11h44.35.200,group3.1-3.2-social-tom,2023.2.2,Win32,59.88023952,65c5074098b851296ff0b7ed,664232f1f808ec79e59f3d14,,,,,,,,,,,,,,,,,,,,,,,,,,,,,715.9197,1,audio/Narrative7Situation6.wav,718.9321,,718.9322,728.9136,"[[17.8,1166],[17.8,1249],[17.8,1332],[17.9,1416],[17.9,1499],[17.9,1582],[17.9,1666],[17.9,1749],[18.4,1833],[18.4,1916],[18.4,1999],[18.5,2082],[18.7,2166],[18.8,2250],[18.8,2332],[19,2416],[19,2499],[19,2582],[19,2665],[19,2749],[19,2832],[19,2915],[19,2999],[19,3082],[19,3165],[19,3249],[19,3332],[19,3415],[19,3499],[19.1,3582],[19.4,3665],[20.7,3749],[41.7,3832],[53.5,3916],[72.5,4000],[87.2,4082],[99.3,4166],[100,4249],[100,4332],[100,4415],[100,4498],[100,4582],[100,4666],[100,4749],[100,4832],[100,4915],[100,4998],[100,5082],[100,5165],[100,5249],[100,5332],[100,5415],[100,5498],[100,5582],[100,5665],[100,5748],[100,5831],[100,5915],[100,5998],[100,6082],[100,6165],[100,6248],[100,6331],[100,6415],[100,6498],[100,6581],[100,6665],[100,6748],[100,6831],[100,6915],[100,6998],[100,7081],[100,7164],[100,7248],[100,7331],[100,7415],[100,7498],[100,7581],[100,7664],[100,7748],[100,7831],[100,7914],[100,7998],[100,8081],[100,8164],[100,8248],[100,8331],[100,8414],[100,8498],[100,8581],[100,8664],[100,8748],[99.6,8831],[98.9,8914],[98.2,8998],[98.2,9081],[98.2,9164],[98.5,9248],[98.6,9331],[98.6,9414],[98.6,9497],[98.6,9581],[98.6,9664],[98.6,9747],[98.6,9831],[98.6,9914]]",1,0,728.9138,730.6802,99.63396779,1.1114,"[{""rating"":99.63396778916544,""responseTime"":1.111399999976129}]",space,1.2218,,730.6803,Not at all,0,730.6833,,,[],,0,15,15,15,1,audio/Narrative8Situation6.wav,audio/Narrative7Situation6.wav,audio/Narrative6Situation6.wav,audio/Narrative5Situation6.wav,2,3,2,3,,,,,,,,,,,,,,,,,,,,,,,,,,,,,,,,,,,,,,,
,,,,,,66101f7b8fd64c6f3b372d7c,2024-05-13_11h44.35.200,group3.1-3.2-social-tom,2023.2.2,Win32,59.88023952,65c5074098b851296ff0b7ed,664232f1f808ec79e59f3d14,,,,,,,,,,,,,,,,,,,,,,,,,,,,,730.6836,1,audio/Narrative7Situation7.wav,735.6955,,735.6955,752.8759,"[[95.4,7832],[96,7914],[96,7998],[96,8081],[96,8164],[96,8248],[96,8331],[96,8414],[96,8498],[96,8581],[96,8664],[96,8748],[96,8831],[96,8914],[96,8998],[96,9081],[96,9164],[96,9248],[96,9331],[96,9414],[96,9497],[96,9581],[96,9664],[96,9747],[96,9831],[96,9914],[96,9997],[96,10081],[96,10164],[96,10247],[96,10331],[96,10414],[96,10497],[96,10581],[96,10664],[96,10747],[96,10831],[96,10914],[96,10997],[96,11080],[96,11164],[96,11247],[91.1,11331],[90.1,11414],[90.7,11498],[100,11581],[100,11664],[100,11748],[100,11831],[50.3,16997],[49,17079],[48.7,17163]]",1,0,752.876,754.7416,99.04831625,1.4928,"[{""rating"":99.04831625183016,""responseTime"":1.4927999999523536}]",space,1.3222,,754.7418,Partially,50,754.746,,,[],,0,16,16,16,1,audio/Narrative8Situation7.wav,audio/Narrative7Situation7.wav,audio/Narrative6Situation7.wav,audio/Narrative5Situation7.wav,3,5,5,4,,,,,,,,,,,,,,,,,,,,,,,,,,,,,,,,,,,,,,,
,,,,,,66101f7b8fd64c6f3b372d7c,2024-05-13_11h44.35.200,group3.1-3.2-social-tom,2023.2.2,Win32,59.88023952,65c5074098b851296ff0b7ed,664232f1f808ec79e59f3d14,,,,,,,,,,,,,,,,,,,,,,,,,,,,,754.7463,1,audio/Narrative7Situation8.wav,756.7579,,756.7579,766.7726,"[[999,0],[999,83],[999,166],[999,249],[999,333],[999,416],[999,499],[999,583],[999,666],[999,750],[999,833],[999,916],[999,999],[999,1082],[999,1166],[999,1249],[999,1332],[999,1416],[999,1499],[999,1582],[999,1666],[999,1749],[999,1832],[999,1916],[999,1999],[999,2082],[999,2166],[999,2249],[999,2332],[999,2416],[999,2499],[999,2582],[999,2665],[999,2749],[999,2832],[999,2916],[999,2999],[999,3082],[999,3165],[999,3249],[999,3332],[999,3415],[999,3499],[999,3582],[999,3665],[999,3749],[999,3832],[999,3915],[999,3999],[999,4082],[999,4165],[999,4248],[999,4332],[999,4415],[999,4498],[999,4582],[999,4665],[999,4748],[999,4832],[999,4915],[999,4998],[999,5082],[999,5165],[999,5248],[999,5332],[999,5415],[999,5498],[999,5582],[999,5665],[999,5748],[999,5832],[999,5915],[999,5998],[999,6082],[999,6165],[999,6248],[999,6331],[999,6415],[999,6498],[999,6581],[999,6665],[999,6748],[999,6831],[999,6915],[999,6998],[999,7081],[999,7164],[999,7248],[999,7331],[999,7414],[999,7498],[999,7581],[999,7664],[999,7748],[999,7831],[999,7914],[999,7998],[999,8081],[999,8164],[999,8248],[999,8331],[999,8414],[999,8498],[999,8581],[999,8664],[999,8747],[999,8831],[999,8914],[999,8997],[999,9081],[999,9164],[999,9247],[999,9331],[999,9414],[999,9497],[999,9581],[999,9664],[999,9747],[999,9831],[999,9914],[999,9997]]",1,0,766.7728,768.7888,99.34114202,1.4989,"[{""rating"":99.3411420204978,""responseTime"":1.4988999999760608}]",space,1.493,,768.7889,Partially,50,768.792,,,[],,0,17,17,17,1,audio/Narrative8Situation8.wav,audio/Narrative7Situation8.wav,audio/Narrative6Situation8.wav,audio/Narrative5Situation8.wav,3,2,5,3,,,,,,,,,,,,,,,,,,,,,,,,,,,,,,,,,,,,,,,
,,,,,,66101f7b8fd64c6f3b372d7c,2024-05-13_11h44.35.200,group3.1-3.2-social-tom,2023.2.2,Win32,59.88023952,65c5074098b851296ff0b7ed,664232f1f808ec79e59f3d14,,,,,,,,,,,,,,,,,,,,,,,,,,,,,768.7923,1,audio/Narrative7Situation9.wav,770.805,,770.8051,779.4367,[],1,0,779.4369,784.1691,99.4875549,4.1706,"[{""rating"":99.48755490483163,""responseTime"":4.170600000023796}]",space,4.2039,,784.1691,Not at all,0,784.1747,,,[],,0,18,18,18,1,audio/Narrative8Situation9.wav,audio/Narrative7Situation9.wav,audio/Narrative6Situation9.wav,audio/Narrative5Situation9.wav,3,2,4,3,,,,,,,,,,,,,,,,,,,,,,,,,,,,,,,,,,,,,,,
,,,,,,66101f7b8fd64c6f3b372d7c,2024-05-13_11h44.35.200,group3.1-3.2-social-tom,2023.2.2,Win32,59.88023952,65c5074098b851296ff0b7ed,664232f1f808ec79e59f3d14,,,,,,,,,,,,,,,,,,,,,,,,,,,794.5612,797.1333,797.1472,2,audio/Narrative13Situation2.wav,797.1473,,797.1473,826.8945,"[[999,0],[999,85],[999,168],[999,252],[999,336],[999,419],[999,502],[999,585],[999,669],[999,752],[999,835],[999,918],[999,1002],[999,1085],[999,1169],[999,1252],[999,1335],[999,1419],[999,1502],[999,1585],[999,1669],[999,1752],[999,1835],[999,1919],[999,2002],[999,2085],[999,2168],[999,2251],[999,2335],[999,2418],[999,2501],[999,2585],[999,2668],[999,2751],[999,2835],[999,2918],[999,3001],[999,3085],[999,3168],[999,3252],[999,3334],[999,3418],[999,3501],[999,3584],[999,3668],[999,3751],[999,3835],[999,3918],[999,4001],[999,4084],[999,4168],[999,4251],[999,4334],[999,4418],[999,4501],[999,4584],[999,4668],[999,4751],[999,4834],[999,4918],[999,5001],[999,5084],[999,5167],[999,5251],[999,5334],[999,5417],[999,5501],[999,5584],[999,5667],[999,5751],[999,5834],[999,5917],[999,6001],[999,6084],[999,6168],[999,6250],[999,6334],[999,6417],[999,6500],[999,6584],[999,6667],[999,6750],[999,6834],[999,6917],[999,7000],[999,7084],[999,7167],[999,7250],[999,7334],[999,7417],[999,7500],[999,7584],[999,7667],[999,7750],[999,7834],[999,7917],[999,8000],[999,8083],[999,8167],[999,8250],[999,8333],[999,8417],[999,8500],[999,8583],[999,8667],[999,8750],[999,8833],[999,8917],[999,9000],[999,9083],[999,9167],[999,9250],[999,9333],[999,9417],[999,9500],[999,9583],[999,9667],[999,9750],[999,9833],[999,9917],[999,10000],[999,10083],[999,10166],[999,10250],[999,10333],[999,10416],[999,10500],[999,10583],[999,10666],[999,10750],[999,10833],[999,10916],[999,11000],[999,11083],[999,11166],[999,11251],[999,11333],[999,11416],[999,11500],[999,11583],[999,11666],[999,11750],[999,11833],[999,11916],[999,11999],[999,12083],[999,12166],[999,12249],[999,12333],[999,12416],[999,12499],[999,12583],[999,12666],[999,12749],[999,12833],[999,12916],[999,12999],[999,13083],[999,13166],[999,13249],[999,13332],[999,13416],[999,13499],[999,13582],[999,13666],[999,13749],[999,13832],[999,13916],[999,13999],[999,14082],[999,14166],[999,14249],[999,14332],[999,14416],[999,14499],[999,14582],[999,14665],[999,14749],[999,14832],[999,14915],[999,14999],[999,15082],[999,15166],[999,15249],[999,15333],[999,15416],[999,15499],[999,15583],[999,15666],[999,15750],[999,15833],[999,15916],[999,15999],[999,16082],[999,16166],[999,16249],[999,16332],[999,16415],[999,16498],[999,16582],[999,16665],[999,16748],[999,16832],[999,16915],[999,16998],[999,17082],[999,17166],[999,17248],[999,17332],[999,17415],[999,17499],[999,17582],[999,17665],[87.9,17749],[97.1,18499],[97.1,18581],[97.1,18665],[97.7,18748],[98,18832],[98.3,18915],[98.5,18998],[98.5,19082],[98.6,19165],[98.6,19248],[98.6,19331],[98.6,19415],[98.6,19498],[98.6,19581],[98.6,19665],[98.6,19748],[98.8,19831],[98.8,19914],[98.8,19998],[98.8,20081],[98.8,20164],[98.8,20248],[98.8,20331],[98.8,20414],[98.8,20498],[98.8,20581],[98.8,20664],[98.8,20748],[98.8,20831],[98.8,20914],[98.8,20998],[98.8,21081],[98.8,21164],[98.8,21248],[98.8,21331],[98.8,21414],[98.8,21497],[98.8,21581],[98.8,21664],[98.9,21747],[98.9,21831],[98.9,21914],[98.9,21997],[98.9,22081],[98.9,22164],[98.9,22247],[98.9,22331],[98.9,22414],[98.9,22497],[98.9,22581],[98.9,22664],[98.9,22747],[98.9,22830],[98.9,22914],[98.9,22997],[98.9,23080],[98.9,23164],[98.9,23247],[98.9,23330],[98.9,23414],[98.9,23497],[99,23580],[99,23664],[99,23747],[99,23830],[99,23914],[99,23997],[99,24080],[99,24164],[99,24247],[99.3,24331]]",1,0,826.8951,826.9062,,,[],,,,826.9062,Definitely yes,100,826.9093,,,[],,0,0,0,0,1,audio/Narrative13Situation2.wav,audio/Narrative13Situation2.wav,audio/Narrative13Situation2.wav,audio/Narrative13Situation2.wav,2,2,2,2,,,,,784.1756,794.5522,space,9.8508,,,,,,,,,,,,,,,,,,,,,,,,,,,,,,,
,,,,,,66101f7b8fd64c6f3b372d7c,2024-05-13_11h44.35.200,group3.1-3.2-social-tom,2023.2.2,Win32,59.88023952,65c5074098b851296ff0b7ed,664232f1f808ec79e59f3d14,,,,,,,,,,,,,,,,,,,,,,,,,,,,,826.9095,2,audio/Narrative6Situation1.wav,828.91,,828.9101,855.4883,"[[78.6,250],[78.1,333],[78.1,416],[78.1,499],[78.1,582],[79,667],[79.6,750],[79.7,832],[79.7,916],[79.7,999],[79.9,1082],[79.9,1166],[79.9,1249],[79.9,1332],[79.9,1416],[79.9,1499],[79.9,1582],[79.9,1666],[79.9,1749],[80,1832],[80.2,1916],[80.6,1999],[81.8,2083],[100,2166],[100,2249],[100,2332],[100,2416],[100,2749],[100,2832],[100,2916],[100,2999],[100,3083],[100,3166],[100,3249],[100,3332],[100,3415],[100,3499],[100,3582],[100,3665],[100,3749],[100,3832],[100,3915],[100,3999],[100,4082],[100,4165],[100,4248],[100,4332],[100,4415],[100,4499],[100,4582],[100,4665],[100,4748],[100,4832],[100,4915],[100,4998],[100,5082],[100,5165],[100,5248],[100,5331],[100,5415],[100,5498],[100,5581],[100,5665],[100,5748],[100,5831],[100,5915],[100,5998],[100,6081],[100,6165],[100,6248],[100,6331],[100,6415],[100,6498],[100,6581],[100,6665],[100,6748],[100,6831],[100,6914],[100,6998],[100,7081],[100,7164],[100,7248],[100,7331],[100,7415],[100,7498],[100,7581],[100,7664],[100,7748],[100,7831],[100,7914],[100,7998],[100,8081],[100,8164],[100,8248],[100,8331],[100,8414],[100,8498],[100,8581],[100,8664],[100,8748],[100,8831],[100,8914],[100,8997],[100,9081],[100,9164],[100,9248],[100,9331],[100,9414],[100,9497],[100,9581],[100,9664],[100,9747],[100,9831],[100,9914],[100,9998],[100,10081],[100,10164],[100,10247],[100,10331],[100,10414],[100,10497],[100,10581],[100,10664],[100,10748],[100,10830],[100,10914],[100,10997],[100,11080],[100,11164],[100,11247],[100,11330],[100,11414],[100,11497],[100,11580],[100,11663],[100,11747],[100,11830],[100,11913],[100,11997],[100,12080],[100,12163],[100,12247],[100,12331],[100,12413],[100,12497],[100,12580],[100,12663],[100,12747],[100,12830],[100,12913],[100,12997],[100,13080],[100,13163],[100,13247],[100,13330],[100,13413],[100,13497],[100,13580],[100,13663],[100,13746],[100,13830],[100,13913],[100,13996],[100,14080],[100,14163],[100,14246],[100,14330],[100,14413],[100,14496],[100,14580],[100,14663],[100,14746],[100,14830],[100,14913],[100,14996],[100,15080],[100,15163],[100,15247],[100,15330],[100,15413],[100,15496],[100,15580],[100,15663],[100,15746],[100,15830],[100,15913],[100,15996],[100,16080],[100,16163],[100,16246],[100,16329],[100,16413],[100,16496],[100,16579],[100,16663],[100,16746],[100,16829],[100,16913],[100,16996],[100,17079],[100,17163],[100,17246],[100,17329],[100,17412],[100,17496],[100,17579],[100,17662],[100,17746],[100,17829],[100,17912],[100,17996],[100,18079],[100,18162],[100,18246],[100,18329],[100,18412],[100,18495],[100,18579],[100,18662],[100,18745],[100,18829],[100,18912],[100,18995],[100,19079],[100,19162],[100,19245],[100,19329],[100,19412],[100,19495],[100,19579],[100,19662],[100,19745],[100,19829],[100,19912],[100,19995],[100,20079],[100,20162],[100,20245],[100,20328],[100,20412],[100,20495],[100,20578],[100,20662],[100,20745],[100,20828],[100,20912],[100,20995],[100,21078],[100,21162],[100,21245],[100,21328],[100,21412],[100,21495],[100,21578],[100,21662],[100,21745],[100,21828],[100,21912],[100,21995],[100,22078],[100,22162],[100,22245],[100,22328],[100,22411],[100,22495],[100,22578],[100,22662],[100,22745],[100,22828],[100,22911],[100,22995],[100,23078],[100,23161],[100,23245],[100,23328],[100,23411],[100,23495],[100,23578],[100,23661],[100,23745],[100,23828],[100,23911],[100,23995],[100,24078],[100,24161],[100,24244],[100,24328],[100,24411],[100,24494],[100,24578],[100,24661],[100,24744],[100,24828],[100,24911],[100,24994],[100,25078],[100,25161],[100,25244],[100,25327],[100,25411],[100,25494],[100,25577],[100,25661],[100,25744],[100,25827],[100,25911],[100,25994],[100,26077],[100,26161],[100,26244],[100,26327],[100,26411],[100,26494],[100,26577]]",1,0,855.4885,861.8538,99.19472914,5.9832,"[{""rating"":99.19472913616399,""responseTime"":5.9832000000476455}]",space,5.8161,,861.8538,Not at all,0,861.8589,,,[],,0,1,1,1,1,audio/Narrative7Situation1.wav,audio/Narrative8Situation1.wav,audio/Narrative5Situation1.wav,audio/Narrative6Situation1.wav,2,5,5,2,,,,,,,,,,,,,,,,,,,,,,,,,,,,,,,,,,,,,,,
,,,,,,66101f7b8fd64c6f3b372d7c,2024-05-13_11h44.35.200,group3.1-3.2-social-tom,2023.2.2,Win32,59.88023952,65c5074098b851296ff0b7ed,664232f1f808ec79e59f3d14,,,,,,,,,,,,,,,,,,,,,,,,,,,,,861.8592,2,audio/Narrative6Situation2.wav,864.8695,,864.8695,893.3809,"[[86.6,583],[87,666],[87,749],[87,832],[87,916],[87,999],[87,1083],[87,1166],[87,1249],[94.7,1333],[99.9,28327],[100,28411],[100,28493]]",1,0,893.381,895.6133,99.04831625,0.9191,"[{""rating"":99.04831625183016,""responseTime"":0.9191000000238319}]",space,1.6944,,895.6134,Not at all,0,895.6166,,,[],,0,2,2,2,1,audio/Narrative7Situation2.wav,audio/Narrative8Situation2.wav,audio/Narrative5Situation2.wav,audio/Narrative6Situation2.wav,3,3,3,3,,,,,,,,,,,,,,,,,,,,,,,,,,,,,,,,,,,,,,,
,,,,,,66101f7b8fd64c6f3b372d7c,2024-05-13_11h44.35.200,group3.1-3.2-social-tom,2023.2.2,Win32,59.88023952,65c5074098b851296ff0b7ed,664232f1f808ec79e59f3d14,,,,,,,,,,,,,,,,,,,,,,,,,,,,,895.6169,2,audio/Narrative6Situation3.wav,900.6289,,900.629,913.2432,[],1,0,913.2433,934.7392,51.9033675,20.9164,"[{""rating"":51.90336749633968,""responseTime"":20.916399999976193}]",space,20.9505,,934.7392,Definitely yes,100,942.4538,98.6090776,7.0279,"[{""rating"":98.6090775988287,""responseTime"":7.027899999976171}]",space,0,3,3,3,1,audio/Narrative7Situation3.wav,audio/Narrative8Situation3.wav,audio/Narrative5Situation3.wav,audio/Narrative6Situation3.wav,8,4,3,5,,,7.1651,,,,,,,,,,,,,,,,,,,,,,,,,,,,,,,,,,,,
,,,,,,66101f7b8fd64c6f3b372d7c,2024-05-13_11h44.35.200,group3.1-3.2-social-tom,2023.2.2,Win32,59.88023952,65c5074098b851296ff0b7ed,664232f1f808ec79e59f3d14,,,,,,,,,,,,,,,,,,,,,,,,,,,,,942.4542,2,audio/Narrative6Situation4.wav,944.4701,,944.4701,957.0843,"[[999,0],[999,83],[999,166],[999,249],[999,333],[999,416],[999,499],[999,582],[999,666],[999,749],[999,833],[999,916],[999,999],[999,1082],[999,1166],[999,1249],[999,1332],[999,1416],[999,1499],[999,1582],[999,1666],[999,1749],[999,1832],[999,1916],[999,1999],[999,2082],[999,2166],[999,2249],[999,2332],[999,2416],[999,2499],[999,2582],[999,2665],[999,2749],[999,2832],[999,2915],[999,2999],[999,3082],[999,3165],[999,3249],[999,3332],[999,3416],[999,3499],[999,3582],[999,3665],[999,3749],[999,3832],[999,3915],[999,3999],[999,4082],[999,4165],[999,4249],[999,4332],[999,4415],[999,4499],[999,4582],[999,4665],[999,4748],[999,4832],[999,4915],[999,4998],[999,5082],[999,5165],[999,5248],[999,5332],[999,5415],[999,5498],[999,5581],[999,5665],[999,5748],[999,5831],[999,5915],[999,5998],[999,6081],[999,6165],[999,6248],[999,6331],[999,6415],[999,6498],[999,6581],[999,6665],[999,6748],[999,6832],[74.7,6915],[77.1,6999],[84.4,7082],[89.2,7165],[98.3,7249],[99.2,7331],[99.8,7415],[100,7498],[100,7582],[100,7664],[100,7748],[100,7831],[100,7914],[100,7998],[100,8081],[100,8164],[100,8248],[100,8331],[100,8414],[100,8498],[100,8581],[100,8664],[100,8748],[100,8831],[100,8914],[100,8998],[100,9081],[100,9164],[100,9248],[100,9331],[100,9414],[100,9497],[100,9581],[100,9664],[100,9748],[100,9831],[100,9914],[100,9997],[100,10081],[100,10164],[100,10247],[100,10331],[100,10414],[100,10497],[100,10580],[100,10664],[100,10747],[100,10830],[100,10914],[100,10997],[100,11080],[100,11164],[100,11247],[100,11330],[100,11414],[100,11497],[100,11580],[100,11664],[100,11747],[100,11830],[100,11914],[100,11997],[100,12080],[100,12164],[100,12247],[100,12330],[100,12413],[100,12497],[100,12580]]",1,0,957.0844,958.2845,98.16983895,0.9564,"[{""rating"":98.16983894582722,""responseTime"":0.9564000000955275}]",space,0.6596,,958.2846,Partially,50,958.2888,,,[],,0,4,4,4,1,audio/Narrative7Situation4.wav,audio/Narrative8Situation4.wav,audio/Narrative5Situation4.wav,audio/Narrative6Situation4.wav,3,3,1,2,,,,,,,,,,,,,,,,,,,,,,,,,,,,,,,,,,,,,,,
,,,,,,66101f7b8fd64c6f3b372d7c,2024-05-13_11h44.35.200,group3.1-3.2-social-tom,2023.2.2,Win32,59.88023952,65c5074098b851296ff0b7ed,664232f1f808ec79e59f3d14,,,,,,,,,,,,,,,,,,,,,,,,,,,,,958.2891,2,audio/Narrative6Situation5.wav,960.3002,,960.3003,968.2655,"[[100,7248],[100,7331],[100,7414],[100,7498],[100,7581],[100,7664],[100,7748],[100,7831],[100,7914]]",1,0,968.2657,974.6807,50.87847731,4.5269,"[{""rating"":50.87847730600292,""responseTime"":4.5268999999761945}]",space,5.8783,,974.6808,Not at all,0,974.6852,,,[],,0,5,5,5,1,audio/Narrative7Situation5.wav,audio/Narrative8Situation5.wav,audio/Narrative5Situation5.wav,audio/Narrative6Situation5.wav,5,2,5,2,,,,,,,,,,,,,,,,,,,,,,,,,,,,,,,,,,,,,,,
,,,,,,66101f7b8fd64c6f3b372d7c,2024-05-13_11h44.35.200,group3.1-3.2-social-tom,2023.2.2,Win32,59.88023952,65c5074098b851296ff0b7ed,664232f1f808ec79e59f3d14,,,,,,,,,,,,,,,,,,,,,,,,,,,,,974.6856,2,audio/Narrative6Situation6.wav,976.6969,,976.6969,987.7781,"[[26,1166],[26,1249],[26,1332],[26.3,1416],[26.3,1499],[26.6,1582],[26.7,1666],[26.7,1749],[26.7,1832],[26.7,1916],[26.7,1999],[26.7,2082],[26.7,2166],[26.7,2249],[26.7,2332],[26.7,2416],[26.7,2499],[26.7,2582],[26.7,2666],[26.7,2749],[26.7,2832],[26.7,2916],[26.7,2999],[26.7,3082],[26.7,3165],[26.7,3249],[26.7,3332],[26.7,3415],[26.7,3499],[26.9,3582],[27,3665],[27,3749],[27,3832],[27,3915],[27,3999],[27,4082],[27.2,4165],[27.2,4249],[27.2,4332],[27.2,4415],[27.2,4499],[27.2,4582],[27.2,4665],[27.2,4749],[27.2,4832],[27.2,4915],[27.2,4999],[27.2,5082],[27.2,5165],[27.2,5249],[27.2,5332],[27.2,5415],[27.2,5498],[27.2,5582],[27.2,5665],[27.2,5749],[27.2,5832],[27.2,5915],[27.2,5998],[27.3,6082],[27.3,6165],[27.3,6248],[27.3,6332]]",1,0,987.7783,1002.0918,99.78038067,13.635,"[{""rating"":99.9267935578331,""responseTime"":13.345899999976155},{""rating"":99.78038067349927,""responseTime"":13.634999999999991}]",space,13.7671,,1002.0918,Partially,50,1002.0965,,,[],,0,6,6,6,1,audio/Narrative7Situation6.wav,audio/Narrative8Situation6.wav,audio/Narrative5Situation6.wav,audio/Narrative6Situation6.wav,3,2,3,2,,,,,,,,,,,,,,,,,,,,,,,,,,,,,,,,,,,,,,,
,,,,,,66101f7b8fd64c6f3b372d7c,2024-05-13_11h44.35.200,group3.1-3.2-social-tom,2023.2.2,Win32,59.88023952,65c5074098b851296ff0b7ed,664232f1f808ec79e59f3d14,,,,,,,,,,,,,,,,,,,,,,,,,,,,,1002.0967,2,audio/Narrative6Situation7.wav,1007.1074,,1007.1075,1031.9692,"[[999,8],[999,83],[999,166],[999,249],[999,332],[999,416],[999,499],[999,582],[999,666],[999,749],[999,833],[999,916],[999,999],[999,1082],[999,1166],[999,1249],[999,1332],[999,1416],[999,1499],[999,1582],[999,1666],[999,1749],[999,1832],[999,1915],[999,1999],[999,2082],[999,2166],[999,2249],[999,2332],[999,2415],[999,2499],[999,2582],[999,2665],[999,2749],[999,2832],[999,2915],[999,2999],[999,3082],[999,3165],[999,3249],[999,3332],[999,3415],[999,3499],[999,3582],[999,3665],[999,3749],[999,3832],[999,3915],[999,3999],[999,4082],[999,4165],[999,4248],[999,4332],[999,4415],[999,4498],[999,4582],[999,4665],[999,4748],[999,4832],[999,4915],[999,4999],[999,5082],[99.5,5166],[99,5249],[98.9,5331],[97.6,5415],[97.4,5498],[97.4,5581],[97.4,5665],[97.4,5748],[97.4,5831],[97.4,5915],[97.4,5998],[97.4,6081],[97.4,6165],[97.4,6248],[97.4,6331],[97.4,6415],[97.4,6498],[97.4,6581],[97.4,6665],[97.4,6748],[97.4,6831],[97.4,6914],[97.4,6998],[97.4,7081],[97.4,7164],[97.4,7248],[97.4,7331],[97.4,7414],[97.4,7498],[97.4,7581],[97.4,7664],[97.4,7748],[97.4,7831],[97.4,7914],[97.4,7998],[97.4,8081],[97.4,8164],[97.4,8248],[97.4,8331],[97.4,8414],[97.4,8498],[97.4,8581],[97.4,8664],[97.4,8748],[97.4,8831],[97.4,8914],[97.7,8997],[97.7,9081],[97.7,9164],[97.7,9247],[97.7,9331],[97.7,9414],[97.7,9497],[97.7,9581],[97.7,9664],[98,9747],[98,9831],[98,9914],[98,9997],[98,10081],[98,10164],[98,10247],[98,10331],[98,10414],[98,10497],[98,10580],[98,10664],[98,10747],[98,10830],[98,10914],[98,10997],[98,11081],[98,11164],[98,11247],[98,11330],[98,11414],[98,11497],[98,11580],[98,11664],[98,11747],[98,11830],[98,11914],[98,11997],[98,12080],[98,12164],[98,12247],[98,12330],[98,12413],[98,12497],[98,12580],[98,12663],[98,12747],[98,12830],[98,12914],[98,12997],[98,13080],[98,13163],[98.5,13247],[98.5,13330],[98.5,13413],[98.5,13497],[98.5,13580],[98.5,13663],[98.5,13747],[98.5,13830],[98.5,13913],[98.5,13997],[98.5,14080],[98.6,14163],[98.6,14246],[98.6,14330],[98.6,14413],[98.6,14496],[98.6,14580],[98.6,14663],[98.6,14746],[98.6,14830],[98.6,14913],[98.6,14996],[98.6,15080],[98.6,15163],[98.6,15246],[98.6,15329],[98.6,15413],[98.6,15496],[98.6,15579],[98.6,15663],[98.6,15746],[98.6,15829],[98.6,15913],[98.6,15996],[98.6,16079],[98.6,16163],[98.6,16246],[98.6,16329],[98.6,16413],[98.6,16496],[98.6,16579],[98.6,16663],[98.6,16746],[98.6,16829],[98.6,16913],[98.6,16996],[98.6,17079],[98.8,17163],[98.8,17246],[99.2,17330],[99.2,17413],[99.2,17496],[99.2,17579],[99.2,17662],[99.2,17746],[99.2,17829],[99.2,17912],[99.2,17996],[99.2,18082],[99.2,18162],[99.2,18246],[99.2,18329],[99.2,18412],[99.2,18496],[99.2,18579],[99.2,18662],[99.2,18745],[99.2,18829],[99.2,18912],[99.2,18995],[99.2,19079],[99.2,19162],[99.2,19245],[99.2,19329],[99.2,19412],[99.2,19495],[99.2,19579],[99.2,19662],[99.2,19745],[99.2,19829],[99.2,19912],[99.3,19996],[99.5,20079],[99.5,20162],[99.5,20245],[99.5,20329],[99,20412],[98.9,20495],[99.3,20579],[100,20662],[100,20746],[100,20828],[100,20912],[100,20995],[100,24328],[100,24412],[100,24495],[100,24578],[100,24661],[100,24744],[100,24828]]",1,0,1031.9694,1046.5329,99.34114202,12.9197,"[{""rating"":99.48755490483163,""responseTime"":1.415300000071511},{""rating"":99.3411420204978,""responseTime"":12.91970000004767}]",space,14.0173,,1046.533,Definitely yes,100,1046.5383,,,[],,0,7,7,7,1,audio/Narrative7Situation7.wav,audio/Narrative8Situation7.wav,audio/Narrative5Situation7.wav,audio/Narrative6Situation7.wav,5,3,4,5,,,,,,,,,,,,,,,,,,,,,,,,,,,,,,,,,,,,,,,
,,,,,,66101f7b8fd64c6f3b372d7c,2024-05-13_11h44.35.200,group3.1-3.2-social-tom,2023.2.2,Win32,59.88023952,65c5074098b851296ff0b7ed,664232f1f808ec79e59f3d14,,,,,,,,,,,,,,,,,,,,,,,,,,,,,1046.5387,2,audio/Narrative6Situation8.wav,1051.5485,,1051.5485,1058.4139,"[[999,8],[999,83],[999,166],[999,249],[999,333],[999,416],[999,499],[999,583],[999,666],[999,749],[999,833],[999,916],[999,999],[999,1083],[999,1166],[999,1249],[999,1333],[999,1416],[999,1499],[999,1582],[999,1666],[999,1749],[999,1832],[999,1916],[999,1999],[999,2082],[999,2166],[999,2249],[999,2333],[999,2416],[999,2499],[999,2582],[999,2666],[999,2749],[999,2832],[999,2915],[999,2999],[999,3082],[999,3165],[999,3249],[999,3332],[999,3415],[999,3499],[999,3582],[999,3665],[999,3749],[999,3832],[999,3915],[999,3999],[999,4082],[999,4165],[999,4249],[999,4332],[999,4415],[999,4499],[999,4582],[999,4665],[999,4748],[999,4832],[999,4915],[999,4999],[999,5082],[999,5165],[999,5248],[999,5332],[999,5415],[999,5498],[999,5582],[999,5665],[999,5748],[999,5832],[999,5915],[999,5998],[999,6082],[999,6165],[999,6248],[999,6332],[999,6415],[999,6498],[999,6581],[999,6665],[999,6748],[999,6831]]",1,0,1058.414,1061.2465,1.68374817,2.2942,"[{""rating"":1.6837481698389445,""responseTime"":2.2942000000477947}]",space,2.2909,,1061.2466,Not at all,0,1061.2516,,,[],,0,8,8,8,1,audio/Narrative7Situation8.wav,audio/Narrative8Situation8.wav,audio/Narrative5Situation8.wav,audio/Narrative6Situation8.wav,2,3,3,5,,,,,,,,,,,,,,,,,,,,,,,,,,,,,,,,,,,,,,,
,,,,,,66101f7b8fd64c6f3b372d7c,2024-05-13_11h44.35.200,group3.1-3.2-social-tom,2023.2.2,Win32,59.88023952,65c5074098b851296ff0b7ed,664232f1f808ec79e59f3d14,,,,,,,,,,,,,,,,,,,,,,,,,,,,,1061.2519,2,audio/Narrative6Situation9.wav,1065.2625,,1065.2626,1075.2277,"[[50.3,4082],[50.3,4165],[50.3,4248],[50.3,4332],[50.3,4415],[50.3,4498],[50.3,4582],[50.3,4665],[50.3,4748],[50.3,4832],[50.4,4915],[50.4,4998],[50.4,5081],[50.4,5165],[50.4,5248],[50.4,5332],[50.4,5415],[50.4,5498],[50.4,5581],[50.4,5665],[50.4,5748],[50.4,5831],[50.4,5915],[50.4,5998],[50.4,6081],[50.4,6164],[50.4,6248],[50.4,6331],[50.4,6414],[50.4,6498],[50.4,6581],[50.4,6664],[50.4,6748],[50.4,6831],[50.4,6914],[50.4,6998],[50.4,7081],[50.4,7164],[50.4,7248],[50.4,7331],[50.4,7414],[50.4,7498],[50.4,7581],[50.4,7664],[50.4,7748],[50.4,7831],[50.4,7914],[50.4,7998],[50.4,8081],[50.4,8164],[50.4,8247],[50.4,8331],[51.5,8414],[53.1,8498],[58.9,8581]]",1,0,1075.2278,1080.0094,0.219619327,3.3892,"[{""rating"":0.21961932650073068,""responseTime"":3.389199999928451}]",space,4.2436,,1080.0095,Not at all,0,1080.0125,,,[],,0,9,9,9,1,audio/Narrative7Situation9.wav,audio/Narrative8Situation9.wav,audio/Narrative5Situation9.wav,audio/Narrative6Situation9.wav,2,3,3,4,,,,,,,,,,,,,,,,,,,,,,,,,,,,,,,,,,,,,,,
,,,,,,66101f7b8fd64c6f3b372d7c,2024-05-13_11h44.35.200,group3.1-3.2-social-tom,2023.2.2,Win32,59.88023952,65c5074098b851296ff0b7ed,664232f1f808ec79e59f3d14,,,,,,,,,,,,,,,,,,,,,,,,,,,,,1080.0127,2,audio/Narrative5Situation1.wav,1085.0251,,1085.0251,1098.3225,"[[999,9],[999,83],[999,166],[999,249],[999,333],[999,416],[999,499],[999,583],[999,666],[999,750],[999,833],[999,916],[999,999],[999,1082],[999,1166],[999,1249],[999,1333],[999,1416],[999,1499],[999,1582],[999,1666],[999,1749],[999,1832],[999,1916],[999,1999],[999,2082],[999,2166],[999,2249],[999,2332],[999,2416],[999,2499],[999,2582],[999,2666],[999,2749],[999,2832],[999,2916],[999,2999],[999,3082],[999,3165],[999,3249],[999,3332],[999,3415],[999,3499],[999,3582],[999,3665],[999,3749],[999,3832],[999,3915],[999,3999],[999,4082],[999,4165],[999,4249],[999,4332],[999,4415],[999,4499],[999,4582],[999,4665],[999,4748],[999,4832],[999,4915],[999,4998],[999,5082],[999,5165],[999,5249],[999,5332],[999,5415],[999,5498],[999,5582],[999,5665],[999,5748],[999,5832],[999,5915],[999,5998],[999,6081],[999,6165],[999,6248],[999,6332],[999,6415],[999,6498],[999,6581],[999,6665],[999,6748],[999,6831],[999,6915],[999,6998],[999,7081],[999,7165],[999,7248],[999,7331],[999,7415],[999,7498],[999,7581],[999,7665],[999,7748],[999,7831],[999,7914],[999,7998],[999,8081],[999,8164],[999,8248],[999,8331],[999,8414],[999,8498],[999,8581],[999,8664],[999,8748],[999,8831],[999,8914],[999,8998],[999,9081],[999,9164],[999,9248],[999,9331],[999,9414],[999,9498],[999,9581],[999,9664],[999,9747],[999,9831],[999,9914],[999,9997],[999,10081],[999,10164],[999,10247],[999,10331],[999,10414],[999,10497],[999,10581],[999,10664],[999,10747],[999,10831],[999,10914],[999,10997],[999,11080],[999,11164],[999,11247],[999,11331],[999,11414],[999,11498],[999,11581],[999,11664],[999,11747],[999,11831],[999,11914],[999,11998],[999,12081],[999,12164],[999,12247],[999,12331],[999,12414],[999,12497],[98.8,12581],[100,12663],[100,12747],[100,12830],[100,12914],[100,12997],[100,13080],[100,13163],[100,13247]]",1,0,1098.3226,1101.1553,98.6090776,1.8307,"[{""rating"":98.6090775988287,""responseTime"":1.8306999999285836}]",space,2.2932,,1101.1553,Partially,50,1101.1596,,,[],,0,10,10,10,1,audio/Narrative8Situation1.wav,audio/Narrative7Situation1.wav,audio/Narrative6Situation1.wav,audio/Narrative5Situation1.wav,5,2,2,5,,,,,,,,,,,,,,,,,,,,,,,,,,,,,,,,,,,,,,,
,,,,,,66101f7b8fd64c6f3b372d7c,2024-05-13_11h44.35.200,group3.1-3.2-social-tom,2023.2.2,Win32,59.88023952,65c5074098b851296ff0b7ed,664232f1f808ec79e59f3d14,,,,,,,,,,,,,,,,,,,,,,,,,,,,,1101.1598,2,audio/Narrative5Situation2.wav,1104.1712,,1104.1713,1133.6493,"[[999,9],[999,83],[999,166],[999,250],[999,333],[999,416],[999,499],[999,583],[999,666],[999,749],[999,833],[999,916],[999,999],[999,1082],[999,1166],[999,1249],[999,1332],[999,1416],[999,1499],[999,1582],[999,1666],[999,1749],[999,1832],[999,1916],[999,1999],[999,2082],[999,2166],[999,2249],[999,2332],[999,2415],[999,2499],[999,2582],[999,2665],[999,2749],[999,2832],[999,2915],[999,2999],[999,3082],[999,3165],[999,3249],[999,3332],[999,3415],[999,3499],[999,3582],[999,3665],[999,3749],[999,3832],[999,3915],[999,3999],[999,4082],[999,4165],[999,4249],[999,4332],[999,4415],[999,4498],[999,4582],[999,4665],[999,4748],[999,4832],[999,4915],[999,4998],[999,5082],[999,5165],[999,5248],[999,5332],[999,5415],[999,5498],[999,5582],[999,5665],[999,5748],[999,5832],[999,5915],[999,5998],[999,6082],[999,6165],[999,6248],[999,6331],[999,6415],[999,6498],[999,6581],[999,6665],[999,6748],[999,6831],[999,6915],[999,6998],[999,7081],[999,7164],[999,7248],[999,7331],[999,7415],[999,7498],[999,7581],[999,7664],[999,7748],[999,7831],[999,7914],[999,7998],[999,8081],[999,8164],[999,8248],[999,8331],[999,8414],[999,8498],[999,8581],[999,8664],[999,8748],[999,8831],[999,8914],[999,8998],[999,9081],[999,9164],[999,9248],[999,9331],[999,9414],[999,9497],[999,9581],[999,9664],[999,9747],[999,9831],[999,9914],[999,9997],[999,10081],[999,10165],[999,10247],[999,10331],[999,10414],[999,10497],[999,10581],[999,10664],[999,10747],[999,10831],[999,10914],[999,10997],[999,11080],[999,11164],[999,11247],[999,11330],[999,11414],[999,11497],[999,11580],[999,11664],[999,11747],[999,11830],[999,11914],[999,11997],[999,12080],[999,12164],[999,12247],[999,12330],[999,12413],[999,12497],[999,12580],[999,12663],[999,12747],[999,12830],[999,12913],[999,12997],[999,13080],[999,13163],[999,13247],[999,13330],[999,13413],[999,13497],[999,13580],[999,13663],[999,13747],[999,13830],[999,13913],[999,13997],[999,14080],[999,14163],[999,14247],[999,14330],[999,14413],[999,14496],[999,14580],[999,14663],[999,14746],[999,14830],[999,14913],[999,14996],[999,15080],[999,15163],[999,15246],[999,15330],[999,15413],[999,15496],[999,15580],[999,15663],[999,15746],[999,15829],[999,15913],[999,15996],[999,16079],[999,16163],[999,16246],[999,16329],[999,16413],[999,16496],[999,16579],[999,16663],[999,16746],[999,16829],[999,16913],[999,16996],[999,17079],[999,17163],[999,17246],[999,17329],[999,17412],[999,17496],[999,17580],[999,17662],[999,17746],[999,17829],[999,17912],[999,17996],[999,18079],[999,18162],[999,18246],[999,18329],[999,18412],[999,18496],[999,18579],[999,18662],[999,18746],[999,18829],[999,18912],[999,18995],[999,19079],[999,19162],[999,19246],[999,19329],[999,19412],[999,19495],[999,19579],[999,19662],[999,19745],[999,19829],[999,19912],[999,19995],[999,20079],[999,20162],[999,20245],[999,20329],[999,20412],[999,20495],[999,20579],[999,20662],[999,20745],[999,20829],[999,20912],[999,20995],[999,21078],[999,21162],[999,21245],[999,21328],[999,21412],[999,21495],[999,21578],[999,21664],[999,21745],[999,21828],[999,21912],[999,21995],[999,22078],[999,22162],[999,22245],[999,22328],[999,22412],[999,22495],[999,22578],[999,22662],[999,22745],[999,22828],[999,22911],[999,22995],[999,23078],[999,23161],[999,23245],[999,23328],[999,23411],[999,23495],[999,23578],[999,23661],[999,23745],[999,23828],[999,23911],[999,23995],[999,24078],[999,24161],[999,24244],[999,24330],[999,24411],[999,24494],[999,24578],[999,24661],[999,24745],[999,24828],[999,24911],[999,24995],[999,25079],[999,25161],[999,25245],[999,25327],[999,25411],[999,25495],[999,25577],[999,25661],[999,25745],[999,25828],[999,25911],[999,25995],[999,26078],[100,26161],[100,26244],[100,26328],[100,26411],[100,26494],[100,26577],[100,26661],[100,26744],[100,26827],[100,26911],[100,26994],[100,27077],[100,27161],[100,27244],[100,27327],[85.3,27495],[76.4,27578],[82.4,27746],[82.4,27827],[82.4,27910],[82.4,27994],[82.4,28077],[82.4,28160],[83.5,28245],[83.7,28327],[88.2,28411],[90.8,28494],[90.8,28577],[90.8,28660],[90.7,28744],[96,28827],[98.8,28911],[100,28994],[100,29077],[100,29160],[100,29244],[100,29327],[100,29410]]",1,0,1133.6496,1139.1475,99.04831625,4.6853,"[{""rating"":99.04831625183016,""responseTime"":4.435399999975971},{""rating"":99.04831625183016,""responseTime"":4.685299999952122}]",space,4.9552,,1139.1477,Definitely yes,100,1139.1516,,,[],,0,11,11,11,1,audio/Narrative8Situation2.wav,audio/Narrative7Situation2.wav,audio/Narrative6Situation2.wav,audio/Narrative5Situation2.wav,3,3,3,3,,,,,,,,,,,,,,,,,,,,,,,,,,,,,,,,,,,,,,,
,,,,,,66101f7b8fd64c6f3b372d7c,2024-05-13_11h44.35.200,group3.1-3.2-social-tom,2023.2.2,Win32,59.88023952,65c5074098b851296ff0b7ed,664232f1f808ec79e59f3d14,,,,,,,,,,,,,,,,,,,,,,,,,,,,,1139.1519,2,audio/Narrative5Situation3.wav,1142.1637,,1142.1637,1156.0777,[],1,0,1156.0778,1160.0267,98.46266471,2.9915,"[{""rating"":98.46266471449488,""responseTime"":2.9915000000000873}]",space,3.4076,,1160.0268,Partially,50,1160.0308,,,[],,0,12,12,12,1,audio/Narrative8Situation3.wav,audio/Narrative7Situation3.wav,audio/Narrative6Situation3.wav,audio/Narrative5Situation3.wav,4,8,5,3,,,,,,,,,,,,,,,,,,,,,,,,,,,,,,,,,,,,,,,
,,,,,,66101f7b8fd64c6f3b372d7c,2024-05-13_11h44.35.200,group3.1-3.2-social-tom,2023.2.2,Win32,59.88023952,65c5074098b851296ff0b7ed,664232f1f808ec79e59f3d14,,,,,,,,,,,,,,,,,,,,,,,,,,,,,1160.0311,2,audio/Narrative5Situation4.wav,1161.0431,,1161.0431,1181.423,"[[100,3750],[98.9,3916],[97.3,3999],[97,4082],[97.1,4166],[97.1,4249],[97.1,4332],[97.1,4415],[97.4,4499],[97.4,4582],[97.4,4665],[97.4,4748],[97.4,4832],[97.6,4915],[97.7,4999],[97.7,5082],[97.7,5165],[97.7,5248],[97.7,5332],[97.7,5415],[97.7,5498],[97.7,5582],[97.7,5665],[97.7,5748],[97.7,5832],[97.7,5915],[97.7,5998],[97.7,6082],[97.7,6165],[97.7,6248],[97.7,6332],[97.7,6415],[97.7,6498],[97.7,6582],[97.7,6665],[97.7,6748],[97.7,6831],[97.7,6915],[97.7,6998],[97.7,7081],[97.7,7165],[97.7,7248],[97.7,7331],[97.7,7415],[97.7,7498],[97.7,7581],[97.7,7665],[97.7,7748],[97.7,7831],[97.7,7914],[97.7,7998],[97.7,8081],[97.7,8164],[97.7,8250],[97.7,8331],[97.7,8414],[97.7,8498],[97.7,8581],[97.7,8664],[97.7,8748],[97.7,8831],[97.7,8914],[97.7,8998],[97.7,9081],[97.7,9164],[97.7,9248],[97.7,9331],[97.7,9414],[97.7,9498],[97.7,9581],[97.7,9664],[97.7,9747],[97.7,9831],[97.7,9914],[97.7,9998],[97.7,10081],[97.7,10164],[97.7,10247],[97.7,10331],[97.7,10414],[97.7,10497],[97.7,10581],[97.7,10664],[97.7,10747],[97.7,10831],[97.7,10914],[97.7,10997],[97.7,11081],[97.7,11164],[97.7,11247],[97.7,11331],[97.7,11414],[97.7,11497],[97.7,11580],[97.7,11664],[97.7,11747],[97.7,11830],[97.7,11914],[97.7,11997],[97.7,12080],[97.7,12164],[97.7,12247],[97.7,12330],[97.7,12413],[97.7,12497],[97.7,12580],[97.7,12663],[97.7,12747],[97.7,12830],[97.7,12913],[97.7,12997],[97.7,13080],[97.7,13163],[97.7,13247],[97.7,13330],[97.7,13413],[97.7,13497],[97.7,13580],[97.7,13663],[97.7,13747],[97.7,13830],[97.7,13913],[97.7,13997],[97.7,14080],[97.7,14163],[97.7,14247],[97.7,14330],[97.7,14413],[97.7,14497],[97.7,14580],[97.7,14663],[97.7,14746],[97.7,14830],[97.7,14913],[97.7,14996],[97.7,15080],[97.7,15163],[97.7,15246],[97.7,15330],[97.7,15413],[97.7,15496],[97.7,15580],[97.9,15663],[97.9,15746],[97.9,15830],[97.9,15913],[97.9,15996],[97.9,16080],[97.9,16163],[97.9,16246],[97.9,16330],[97.9,16413],[97.9,16496],[97.9,16579],[97.9,16663],[97.9,16746],[97.9,16829],[97.9,16913],[97.9,16996],[97.9,17079],[97.9,17163],[97.9,17246],[97.9,17329],[97.9,17413],[97.9,17496],[97.9,17579],[97.9,17662],[97.9,17746],[97.9,17829],[97.9,17912],[97.9,17996],[97.9,18079],[97.9,18162],[97.9,18246],[97.9,18329],[97.9,18412],[97.9,18496],[97.9,18579],[97.9,18662],[97.9,18746],[97.9,18829],[97.9,18912],[97.9,18996],[97.9,19079],[97.9,19162],[97.9,19246],[97.9,19329],[97.9,19412],[97.9,19496],[97.9,19579],[97.9,19662],[97.9,19745],[97.9,19829],[97.9,19912],[97.9,19995],[97.9,20079],[97.9,20162],[97.9,20245],[99.2,20329]]",1,0,1181.4234,1183.9886,99.19472914,1.2027,"[{""rating"":99.19472913616399,""responseTime"":1.2026999999284271}]",space,2.0232,,1183.9888,Partially,50,1183.9918,,,[],,0,13,13,13,1,audio/Narrative8Situation4.wav,audio/Narrative7Situation4.wav,audio/Narrative6Situation4.wav,audio/Narrative5Situation4.wav,3,3,2,1,,,,,,,,,,,,,,,,,,,,,,,,,,,,,,,,,,,,,,,
,,,,,,66101f7b8fd64c6f3b372d7c,2024-05-13_11h44.35.200,group3.1-3.2-social-tom,2023.2.2,Win32,59.88023952,65c5074098b851296ff0b7ed,664232f1f808ec79e59f3d14,,,,,,,,,,,,,,,,,,,,,,,,,,,,,1183.9921,2,audio/Narrative5Situation5.wav,1189.0041,,1189.0042,1204.4345,"[[95.5,8498],[98.3,8581],[98.3,8664],[98.3,8748],[98.3,8833],[98.3,8914],[98.3,8998],[98.3,9081],[99,14997],[99,15080],[99,15163],[99,15247],[99,15330],[99,15413]]",1,0,1204.4346,1227.8131,99.04831625,0.8467,"[{""rating"":99.04831625183016,""responseTime"":0.8466999999284326}]",space,22.8297,,1227.8132,Partially,50,1227.8266,,,[],,0,14,14,14,1,audio/Narrative8Situation5.wav,audio/Narrative7Situation5.wav,audio/Narrative6Situation5.wav,audio/Narrative5Situation5.wav,2,5,2,5,,,,,,,,,,,,,,,,,,,,,,,,,,,,,,,,,,,,,,,
,,,,,,66101f7b8fd64c6f3b372d7c,2024-05-13_11h44.35.200,group3.1-3.2-social-tom,2023.2.2,Win32,59.88023952,65c5074098b851296ff0b7ed,664232f1f808ec79e59f3d14,,,,,,,,,,,,,,,,,,,,,,,,,,,,,1227.8268,2,audio/Narrative5Situation6.wav,1230.829,,1230.8291,1236.5114,"[[999,0],[999,83],[999,166],[999,249],[999,333],[999,416],[999,499],[999,583],[999,666],[999,750],[999,833],[999,916],[999,999],[999,1083],[999,1166],[999,1249],[999,1332],[999,1416],[999,1499],[999,1582],[999,1666],[999,1749],[999,1832],[999,1916],[999,1999],[999,2082],[999,2166],[999,2249],[999,2332],[999,2415],[999,2499],[999,2582],[999,2665],[999,2749],[999,2832],[999,2915],[999,2999],[999,3082],[999,3165],[999,3249],[999,3332],[999,3415],[999,3499],[999,3582],[999,3665],[999,3749],[999,3832],[999,3915],[999,3999],[999,4082],[999,4165],[999,4249],[999,4332],[999,4415],[999,4498],[999,4582],[999,4665],[999,4748],[999,4832],[999,4915],[999,4998],[999,5082],[999,5165],[999,5248],[999,5332],[999,5415],[999,5498],[999,5582],[999,5665]]",1,0,1236.5115,1241.377,98.31625183,3.2894,"[{""rating"":98.31625183016106,""responseTime"":3.2893999999760126}]",space,4.321,,1241.377,Definitely yes,100,1241.3814,,,[],,0,15,15,15,1,audio/Narrative8Situation6.wav,audio/Narrative7Situation6.wav,audio/Narrative6Situation6.wav,audio/Narrative5Situation6.wav,2,3,2,3,,,,,,,,,,,,,,,,,,,,,,,,,,,,,,,,,,,,,,,
,,,,,,66101f7b8fd64c6f3b372d7c,2024-05-13_11h44.35.200,group3.1-3.2-social-tom,2023.2.2,Win32,59.88023952,65c5074098b851296ff0b7ed,664232f1f808ec79e59f3d14,,,,,,,,,,,,,,,,,,,,,,,,,,,,,1241.3816,2,audio/Narrative5Situation7.wav,1245.3927,,1245.3929,1266.4386,"[[100,6431],[100,6515],[100,6598],[100,6681],[100,6765],[100,6848],[100,6931],[100,7014],[99.3,7098],[98.2,7182],[98.2,7265],[100,19179],[100,19262],[100,19345],[100,19429],[100,20762],[100,20846]]",1,0,1266.4388,1269.7212,99.34114202,2.2747,"[{""rating"":99.3411420204978,""responseTime"":2.274699999928316}]",space,2.7447,,1269.7214,Definitely yes,100,1269.7243,,,[],,0,16,16,16,1,audio/Narrative8Situation7.wav,audio/Narrative7Situation7.wav,audio/Narrative6Situation7.wav,audio/Narrative5Situation7.wav,3,5,5,4,,,,,,,,,,,,,,,,,,,,,,,,,,,,,,,,,,,,,,,
,,,,,,66101f7b8fd64c6f3b372d7c,2024-05-13_11h44.35.200,group3.1-3.2-social-tom,2023.2.2,Win32,59.88023952,65c5074098b851296ff0b7ed,664232f1f808ec79e59f3d14,,,,,,,,,,,,,,,,,,,,,,,,,,,,,1269.7246,2,audio/Narrative5Situation8.wav,1272.7373,,1272.7373,1281.5691,"[[52.8,1666],[52.8,1749],[52.8,1832],[52.8,1916],[52.8,1999],[52.8,2082],[52.8,2166],[71.8,2416],[79.1,2500],[83.4,2583],[88.4,2666],[91.6,2749],[96.6,2832],[96.6,2915],[96.6,2999],[96.6,3082],[96.9,3166],[97.1,3249],[100,3333],[100,3415],[100,3499],[100,3582],[100,3665],[100,3749],[100,3832],[100,3915],[100,3999],[100,4082],[100,4165],[100,4249],[100,4332],[100,4415],[100,4498],[100,4582],[100,4665],[100,4749],[100,4832],[100,4915],[100,4998],[100,5082],[100,5165],[100,5248],[100,5332],[100,5415],[100,5498],[100,5582],[100,5665],[100,5748],[100,5832],[100,5915],[100,5998],[100,6082],[100,6165],[100,6248],[100,6331],[100,6415],[100,6498],[100,6581],[100,6665],[100,6748],[100,6831],[100,6915],[100,6998],[100,7081],[100,7165],[100,7248],[100,7331],[100,7414],[100,7498],[100,7581],[100,7664],[100,7748],[100,7831],[100,7914],[100,7998],[100,8081],[100,8164],[100,8248],[100,8331],[100,8414],[100,8498],[100,8581],[100,8664],[100,8748],[100,8831]]",1,0,1281.5693,1284.7683,0.073206442,1.9116,"[{""rating"":0.07320644216691208,""responseTime"":1.9116000000237818}]",space,2.6551,,1284.7683,Definitely yes,100,1284.7715,,,[],,0,17,17,17,1,audio/Narrative8Situation8.wav,audio/Narrative7Situation8.wav,audio/Narrative6Situation8.wav,audio/Narrative5Situation8.wav,3,2,5,3,,,,,,,,,,,,,,,,,,,,,,,,,,,,,,,,,,,,,,,
,,,,,,66101f7b8fd64c6f3b372d7c,2024-05-13_11h44.35.200,group3.1-3.2-social-tom,2023.2.2,Win32,59.88023952,65c5074098b851296ff0b7ed,664232f1f808ec79e59f3d14,,,,,,,,,,,,,,,,,,,,,,,,,,,,,1284.7717,2,audio/Narrative5Situation9.wav,1287.7843,,1287.7843,1327.3264,"[[13.4,10247],[13.4,10331],[13.4,10414],[13.4,10497],[13.4,10580],[13.4,10664],[13.4,10747],[13.4,10830],[13.4,10914],[13.4,10997],[13.4,11080],[13.4,11164],[13.4,11247],[13.4,11330],[13.4,11414],[13.4,11497],[13.4,11580],[13.4,11664],[13.4,11747],[15.7,11831],[16.3,11914],[16.3,11997],[16.3,12080],[16.3,12164],[16.3,12247],[16.3,12330],[16.3,12413],[16.3,12497],[16.3,12580],[16.3,12663],[16.3,12747],[16.3,12830],[16.3,12913],[16.5,12997],[16.5,13080],[16.5,13163],[16.5,13247],[16.5,13330],[16.5,13413],[16.5,13497],[16.5,13580],[16.5,13663],[16.5,13747],[18.8,13830],[25.8,13914],[98,14747],[98.2,14830],[98.3,14913],[98.3,14996],[98.3,15080],[98.3,15163],[98.3,15246],[98.3,15330],[98.3,15413],[98.3,15496],[98.3,15579],[98.3,15663],[98.3,15746],[98.3,15829],[98.3,15913],[98.3,15996],[98.3,16079],[98.3,16163],[98.3,16246],[98.3,16329],[98.3,16413],[98.3,16496],[98.3,16579],[98.3,16663],[98.3,16746],[98.3,16829],[98.3,16913],[98.3,16996],[98.3,17079],[98.3,17163],[98.3,17246],[98.3,17329],[98.3,17413],[98.3,17496],[98.3,17579],[98.3,17662],[98.3,17746],[98.3,17829],[98.3,17912],[98.3,17996],[98.3,18079],[98.3,18162],[98.3,18246],[98.3,18329],[98.3,18412],[98.3,18496],[98.3,18579],[98.3,18662],[98.3,18746],[98.3,18829],[98.3,18912],[98.3,18995],[98.3,19079],[98.3,19162],[98.3,19245],[98.3,19329],[98.3,19412],[98.3,19495],[98.3,19579],[98.3,19662],[98.3,19745],[98.3,19829],[98.3,19912],[98.3,19995],[98.3,20079],[98.3,20162],[98.3,20245],[98.3,20329],[98.3,20412],[98.3,20495],[98.3,20578],[98.3,20662],[98.3,20745],[98.3,20828],[98.3,20912],[98.3,20995],[98.3,21078],[98.3,21162],[98.3,21245],[98.3,21328],[98.3,21412],[98.3,21495],[98.3,21578],[98.3,21662],[98.3,21745],[98.3,21828],[98.3,21912],[98.3,21995],[98.3,22078],[98.3,22162],[98.3,22245],[98.3,22328],[98.3,22411],[98.3,22495],[98.3,22578],[98.3,22662],[98.3,22745],[98.3,22828],[98.3,22911],[98.3,22995],[98.3,23078],[98.3,23161],[98.3,23245],[98.3,23328],[98.3,23411],[98.3,23495],[98.3,23578],[98.3,23661],[98.3,23745],[98.3,23828],[98.3,23911],[98.3,23995],[98.3,24078],[98.3,24161],[98.3,24245],[98.3,24328],[98.3,24411],[98.3,24494],[98.3,24578],[98.3,24661],[98.3,24744],[98.3,24828],[98.3,24911],[98.3,24995],[98.3,25078],[98.3,25161],[98.3,25244],[98.3,25328],[98.3,25411],[98.3,25494],[98.3,25578],[98.3,25661],[98.3,25744],[98.3,25827],[98.3,25911],[98.3,25994],[98.3,26077],[98.3,26161],[98.3,26244],[98.3,26327],[98.3,26411],[98.3,26494],[98.3,26577],[98.3,26661],[98.3,26744],[98.3,26827],[98.3,26911],[98.3,26994],[98.3,27077],[98.3,27161],[98.3,27244],[98.3,27327],[98.3,27411],[98.3,27494],[98.3,27577],[98.3,27660],[98.3,27744],[98.3,27827],[98.3,27910],[98.3,27994],[98.3,28077],[98.3,28160],[98.3,28244],[98.3,28327],[98.3,28410],[98.3,28494],[98.3,28577],[98.3,28660],[98.3,28744],[98.3,28827],[98.3,28910],[98.3,28993],[98.3,29077],[98.3,29160],[98.3,29243],[98.3,29327],[98.3,29410],[98.3,29493],[98.3,29577],[98.3,29660],[98.3,29743],[98.3,29827],[98.3,29910],[98.3,29993],[98.3,30077],[98.3,30160],[98.3,30243],[98.3,30327],[98.3,30410],[98.3,30493],[98.3,30577],[98.3,30660],[98.3,30743],[98.3,30827],[98.3,30910],[98.3,30993],[98.3,31076],[98.3,31160],[98.3,31243],[98.3,31326],[98.3,31410],[98.3,31493],[98.3,31576],[98.3,31660],[98.3,31743],[98.3,31826],[98.3,31910],[98.3,31993],[98.3,32076],[98.3,32160],[98.3,32243],[98.3,32326],[98.3,32410],[98.3,32493],[98.3,32576],[98.3,32659],[98.3,32743],[98.3,32826],[98.3,32909],[98.3,32993],[98.3,33076],[98.3,33159],[98.3,33243],[98.3,33326],[98.3,33409],[98.3,33492],[98.3,33576],[98.3,33659],[98.3,33743],[98.3,33826],[98.3,33909],[98.3,33992],[98.3,34076],[98.3,34159],[98.3,34242],[98.3,34326],[98.3,34409],[98.3,34492],[98.3,34576],[98.3,34659],[98.3,34742],[98.3,34826],[98.3,34909],[98.3,34992],[98.3,35076],[98.3,35159],[98.3,35242],[98.3,35326],[98.3,35409],[98.3,35492],[98.3,35576],[98.3,35659],[98.3,35742],[98.3,35825],[98.3,35909],[98.3,35992],[98.3,36075],[98.3,36159],[98.3,36242],[98.3,36325],[98.3,36409],[98.3,36492],[98.3,36575],[98.3,36659],[98.3,36742],[98.3,36825],[98.3,36909],[98.3,36992],[98.3,37075],[98.3,37159],[98.3,37242],[98.3,37325],[98.3,37409],[98.3,37492],[98.3,37575],[98.3,37658],[98.3,37742],[98.3,37825],[98.3,37908],[98.3,37992],[98.3,38075],[98.3,38158],[98.3,38242],[98.3,38325],[98.3,38408],[98.3,38491],[98.3,38575],[98.3,38658],[98.3,38741],[98.3,38825],[98.3,38908],[98.3,38991],[98.3,39075],[98.3,39158],[98.3,39241],[98.3,39325],[98.3,39408],[98.3,39491]]",1,0,1327.3267,1329.8426,98.31625183,1.5947,"[{""rating"":98.31625183016106,""responseTime"":1.5946999999284799}]",space,1.9719,,1329.8426,Definitely yes,100,1329.8458,,,[],,0,18,18,18,1,audio/Narrative8Situation9.wav,audio/Narrative7Situation9.wav,audio/Narrative6Situation9.wav,audio/Narrative5Situation9.wav,3,2,4,3,,,,,,,,,,,,,,,,,,,,,,,,,,,,,,,,,,,,,,,
,,,,,,66101f7b8fd64c6f3b372d7c,2024-05-13_11h44.35.200,group3.1-3.2-social-tom,2023.2.2,Win32,59.88023952,65c5074098b851296ff0b7ed,664232f1f808ec79e59f3d14,,,,,,,,,,,,,,,,,,,,,,,,,,,,,,,,,,,,,,,,,,,,,,,,,,,,,,,,,,,,,,,,,,,,,,,,1329.8461,1334.5916,space,4.2236,,1334.5931,1352.5061,space,17.5896,,,,,,,,,,,,,,,,,,,,,,,,,,
,,,,,,66101f7b8fd64c6f3b372d7c,2024-05-13_11h44.35.200,group3.1-3.2-social-tom,2023.2.2,Win32,59.88023952,65c5074098b851296ff0b7ed,664232f1f808ec79e59f3d14,,,,,,,,,,,,,,,,,,,,,,,,,,,,,1355.1025,1,audio/Narrative7Situation9.wav,1357.1037,,,,,,,1388.9605,1391.9966,98.16983895,2.2171,"[{""rating"":98.16983894582722,""responseTime"":2.21710000002372}]",space,2.5002,,1388.9488,Not at all,0,1388.9605,,,[],,,,,,,,,,,2,2,2,2,,,,,,,,,,,,,,,1352.5165,1355.0875,1357.104,3,1388.9488,[],0,0,0,0,1,"Larry had recently lost his family, job and home, and was now living on his own in the park. He had most of his belongings, including some clothes, a blanket, and his mother’s special necklace. His family had been very important to him and he felt as though he did not have much going for him. One of his first days in the park he came across a family that did not have much food and looked very cold. He decided to give them some of his food and his blanket.","Larry had recently lost his family, job and home, and was now living on his own in the park. He had most of his belongings, including some clothes, a blanket, and his mother’s special necklace. His family had been very important to him and he felt as though he did not have much going for him. One of his first days in the park he came across a family that did not have much food and looked very cold. He decided to give them some of his food and his blanket.","Larry had recently lost his family, job and home, and was now living on his own in the park. He had most of his belongings, including some clothes, a blanket, and his mother’s special necklace. His family had been very important to him and he felt as though he did not have much going for him. One of his first days in the park he came across a family that did not have much food and looked very cold. He decided to give them some of his food and his blanket.","Larry had recently lost his family, job and home, and was now living on his own in the park. He had most of his belongings, including some clothes, a blanket, and his mother’s special necklace. His family had been very important to him and he felt as though he did not have much going for him. One of his first days in the park he came across a family that did not have much food and looked very cold. He decided to give them some of his food and his blanket.",,,,,,,,,,
,,,,,,66101f7b8fd64c6f3b372d7c,2024-05-13_11h44.35.200,group3.1-3.2-social-tom,2023.2.2,Win32,59.88023952,65c5074098b851296ff0b7ed,664232f1f808ec79e59f3d14,,,,,,,,,,,,,,,,,,,,,,,,,,,,,1391.9977,1,audio/Narrative7Situation9.wav,1398.0123,space,,,,,,1421.8698,1427.6395,98.02342606,3.0758,"[{""rating"":98.02342606149341,""responseTime"":3.0757999999523236}]",space,5.2329,,1421.8574,Partially,50,1421.8698,,,[],,,,,,,,,,,6,2,3,9,5.9832,,,,,,,,,,,,,,,,1398.0125,3,1421.8574,[],0,1,1,1,1,"It was just another Sunday afternoon for Lucy, she was on her way to the farmer's market to pick up some produce. When she arrived at the old train depot that housed the market, she noticed two men fighting on the steps. Before she could call for help, one of the men crumpled to his knees. The other man dropped an object that appeared to be a knife and ran off. When Lucy approached the crime scene she realized that the man who had been murdered was the Mayor and that he had a gunshot wound.","One day at work, Margaret walked up to her partner, Al, to ask him to talk to the chief of staff at the local hospital where she worked as a nurse.","Luke always thought of himself as an honest man. That's why during his evening jog around the swamp, he pondered his recent affair with the receptionist at work. Luke looked up at the sky and asked God why he was so weak and unfaithful. He thought of the impact this would have on his family and told God of his conflicted feelings toward telling his wife Marta.","Linda and Amy had been best friends since kindergarten, they even found homes on the same street in the forest on the edge of town. Their biggest fight had been over who gets the bigger slice of cake, until Amy married Dan. Linda loathed Dan, she thought he was manipulative and had a violent temper. She only put up with him because Amy loved him. ",,,,,,,,,,
,,,,,,66101f7b8fd64c6f3b372d7c,2024-05-13_11h44.35.200,group3.1-3.2-social-tom,2023.2.2,Win32,59.88023952,65c5074098b851296ff0b7ed,664232f1f808ec79e59f3d14,,,,,,,,,,,,,,,,,,,,,,,,,,,,,1427.64,1,audio/Narrative7Situation9.wav,1432.6552,,,,,,,1458.8455,1466.4983,98.16983895,4.3414,"[{""rating"":98.16983894582722,""responseTime"":4.341400000095291}]",space,7.1163,,1458.8334,Partially,50,1458.8454,,,[],,,,,,,,,,,4,5,2,2,,,,,,,,,,,,,,,,,1432.6552,3,1458.8334,[],0,2,2,2,1,On the ground beside him was a pen that she had mistaken for a knife. Lucy looked for the gunman and saw a suspicious man in black with distinct pointy features darting into an alley across the street. Cops who were nearby chased the man who had fled and arrested him.,"While waiting outside the chief of staff's office, Al heard nondescript shouting and yelling, there was a loud clatter in the room and then an eerie silence. An unfamiliar employee ran hastily out of the office with a terrified look on their face.","Suddenly, Luke heard a woman call out his name and when he turned around he saw Carly, his receptionist, across the road with a gun in her hand. Carly ran to him and explained how she had followed him here to confess her love. She exclaimed if Luke didn't love her back that she would kill him and his family. Carly explained that the only way they could be together is to kill Marta.","This feeling of hate between Amy and Dan was mutual, Dan didn't like how much time his wife spent with her and thought Amy was creating distance between their marriage. That's why Dan decided to try and tarnish Linda's reputation with his wife, in hopes it would get rid of her. He came home one afternoon and exclaimed that Linda had tried to kiss him. Amy was taken aback and immediately called Linda to confront her about these accusations. When Linda arrived she denied having made a move on Dan, but discovered Dan had enlisted the help of his friend Will who said he witnessed it all happen.",,,,,,,,,,
,,,,,,66101f7b8fd64c6f3b372d7c,2024-05-13_11h44.35.200,group3.1-3.2-social-tom,2023.2.2,Win32,59.88023952,65c5074098b851296ff0b7ed,664232f1f808ec79e59f3d14,,,,,,,,,,,,,,,,,,,,,,,,,,,,,1466.499,1,audio/Narrative7Situation9.wav,1468.5145,,,,,,,1491.0407,1494.0594,98.31625183,2.185,"[{""rating"":98.31625183016106,""responseTime"":2.1849999999999454}]",space,2.4828,,1491.0268,Not at all,0,1491.0407,,,[],,,,,,,,,,,2,2,1,4,,,,,,,,,,,,,,,,,1468.5146,3,1491.0268,[],0,3,3,3,1,"But Lucy knew the charged man was innocent, which meant the killer was free. Lucy vowed to find out who the real murderer was and to stop him at all costs.","Al explained to the chief of staff that Margaret wanted to be excused from her absences last week. The chief of staff, Susan, revealed that she wanted to fire Margaret and never see her again. Susan and Al had been having an affair and she wanted Margaret ""out of the picture"". Al was conflicted, but agreed it would be for the best.","Luke thought of his child and felt like this was his only option. He agreed to the plan and called his wife to meet him at the swamp to watch the sunset with him. When she arrived, Marta called out for her husband, but found Carly waiting for her. She immediately drew her gun and shot her in the chest, knocking her unconscious.","Since it was their word against her own, she decided to go home and admit defeat. She knew how much it would hurt Amy to know the truth.",,,,,,,,,,
,,,,,,66101f7b8fd64c6f3b372d7c,2024-05-13_11h44.35.200,group3.1-3.2-social-tom,2023.2.2,Win32,59.88023952,65c5074098b851296ff0b7ed,664232f1f808ec79e59f3d14,,,,,,,,,,,,,,,,,,,,,,,,,,,,,1494.0599,1,audio/Narrative7Situation9.wav,1495.0758,,,,,,,1517.6091,1521.004,99.92679356,1.6887,"[{""rating"":99.9267935578331,""responseTime"":1.6887000000476746}]",space,2.8498,,1517.6048,Definitely yes,100,1517.609,,,[],,,,,,,,,,,1,1,3,3,,,,,,,,,,,,,,,,,1495.0759,3,1517.6047,"[[100,15830],[64.8,16746],[58.6,16830],[49.1,17163],[49.1,17246],[49.1,17329],[48.2,17413],[58.9,20329],[37.1,20412],[27.6,20495]]",0,4,4,4,1,"The next day the mayors successor, Mr. Smith, a man who was very unpopular due to his strong ties to the oil companies, took office. After a long day of brainstorming about the mysterious killer, Lucy decided to attend his welcome ceremony in the city. During the mayor's speech, she noticed one of the security guards looked strangely familiar. It dawned on her that this new mayor had motive to kill and that the man in black could've been the guard working for him.","Weeks passed and nobody had seen Margaret. Coworkers and friends searched the nearby city looking for her. One day on patrol in a nearby town, a police officer heard someone crying for help in the basement of a house and went in to investigate. Margaret yelled that she was being held captive and needed help.","Luke ran to Marta, and filled with regret over his decision to go along with Carly's plan, picked her up and rushed her to the hospital. The doctors tried to help Marta by taking her into emergency surgery but failed to save her life. Once the doctor called the time of death, Luke fell to his knees and sobbed over his rash decision.","Months later Dan had taken up a mistress, he was growing bored with his marriage ever since he got rid of Linda and was only still with Amy for her family's money. In a hotel room in a nearby town, Dan and his mistress, Nicole, conspired to secretly kill Amy while still obtaining her fortune.",,,,,,,,,,
,,,,,,66101f7b8fd64c6f3b372d7c,2024-05-13_11h44.35.200,group3.1-3.2-social-tom,2023.2.2,Win32,59.88023952,65c5074098b851296ff0b7ed,664232f1f808ec79e59f3d14,,,,,,,,,,,,,,,,,,,,,,,,,,,,,1521.0045,1,audio/Narrative7Situation9.wav,1522.0204,,,,,,,1549.2275,1557.18,0.512445095,6.6624,"[{""rating"":0.5124450951683734,""responseTime"":6.66239999997606}]",space,7.4205,,1549.2152,Partially,50,1549.2274,,,[],,,,,,,,,,,3,1,3,3,,,,,,,,,,,,,,,,,1522.0204,3,1549.2151,"[[999,0],[999,83],[999,167],[999,249],[999,333],[999,416],[999,499],[999,583],[999,666],[999,750],[70.5,10248],[90.6,11664],[91.9,11747],[96,11830],[96.1,11914],[96.4,11997],[97.1,12081],[97.4,12164],[97.4,12247],[98.5,12330],[99.2,12413],[99.2,12497],[99,12581],[98.9,12664],[98.9,12747],[98.9,12830],[98.9,12913],[98.9,12997],[98.9,13080],[98.9,13163],[98.9,13247],[98.9,13330],[98.9,13414],[98.9,13497],[98.9,13580],[98.9,13663],[98.9,13747],[98.9,13830],[98.9,13913],[98.9,13997],[98.9,14080],[98.9,14163],[98.9,14246],[98.9,14330],[98.9,14413]]",0,5,5,5,1,"Lucy decided to confront the mayor after his ceremony. But when she tried to accuse him, the security guards threatened to hurt her if she went to the police with her theory. Before she could say another word a man pulled her from the crowd.","In a rush, the police officer broke down the door and was attacked by a man in the house. Without hesitation, the officer shot the man and the man fell to the floor.","He then saw Marta's brother Zach enter the hospital. Zach ran over to Luke and punched him. Zach screamed at Luke that it's his fault his sister is dead and that he knew about the affair. Luke quickly tried to explain that he felt horrible about Marta's death and that Carly had manipulated him into going along with her plan. Zach, still angry at his brother-in-law, realized his mistake in judgement and shifted his anger toward Carly.","They decided to have Dan invite her to the hotel room under the guise of a romantic date. Once she arrived, Nicole was there to tie her up. Once she was secured to a chair, Nicole demanded Amy's bank passwords. Amy obliged and gave her access to her bank accounts.",,,,,,,,,,
