exp_question,consent.started,consent.stopped,consentResponse.keys,consentResponse.rt,consentResponse.duration,participantID,date,expName,psychopyVersion,OS,frameRate,STUDY_ID,SESSION_ID,opening1.started,opening1.stopped,keyEndingOpening1.keys,keyEndingOpening1.rt,keyEndingOpening1.duration,volumeAdjust.started,volumeAdjust.stopped,endingAdjust.keys,endingAdjust.rt,endingAdjust.duration,opening2.started,opening2.stopped,keyEndingOpening.keys,keyEndingOpening.rt,keyEndingOpening.duration,mouse.x,mouse.y,mouse.leftButton,mouse.midButton,mouse.rightButton,mouse.time,instructionLoop.thisRepN,instructionLoop.thisTrialN,instructionLoop.thisN,instructionLoop.thisIndex,instructionLoop.ran,readyForAudio.started,readyForAudio.stopped,fixation.started,run,audio_played,fixation.stopped,endPractice.keys,audioPre.started,audioPre.stopped,continuousResponses_audio,continuousSlider.response,continuousSlider.rt,intRating.started,intRating.stopped,intQuestionSlider.response,intQuestionSlider.rt,intQuestionSlider.history,confirmResponse.keys,confirmResponse.rt,confirmResponse.duration,catchQuestion.started,catch_label,catch_value,catchQuestion.stopped,catchQuestionSlider.response,catchQuestionSlider.rt,catchQuestionSlider.history,confirmResponse_2.keys,audioRunLoop.thisRepN,audioRunLoop.thisTrialN,audioRunLoop.thisN,audioRunLoop.thisIndex,audioRunLoop.ran,conditions1_1,conditions2_1,conditions1_2,conditions2_2,dur1_1,dur2_1,dur1_2,dur2_2,endPractice.rt,endPractice.duration,confirmResponse_2.rt,confirmResponse_2.duration,runIntervalBreak.started,runIntervalBreak.stopped,endingBreakKey.keys,endingBreakKey.rt,endingBreakKey.duration,connection.started,connection.stopped,connectionEnding.keys,connectionEnding.rt,connectionEnding.duration,readyForText.started,readyForText.stopped,textPre.started,run_dup,textPre.stopped,continuousResponses_text,textRunLoop.thisRepN,textRunLoop.thisTrialN,textRunLoop.thisN,textRunLoop.thisIndex,textRunLoop.ran,text1_1,text1_2,text2_1,text2_2,runBreakText.started,runBreakText.stopped,endingBreakKey_2.keys,endingBreakKey_2.rt,endingBreakKey_2.duration,ending.started,ending.stopped,endingEnding.keys,endingEnding.rt,endingEnding.duration
social,0.0001,9.4536,y,9.127,,661770012a3c83b4bdaff645,2024-05-13_11h33.41.171,group3.1-3.2-social-tom,2023.2.2,Win32,60.97560976,65c5074098b851296ff0b7ed,6642321c89aea44220fc507c,,,,,,,,,,,,,,,,,,,,,,,,,,,,,,,,,,,,,,,,,,,,,,,,,,,,,,,,,,,,,,,,,,,,,,,,,,,,,,,,,,,,,,,,,,,,,,,,,,,,,,,,,,
,,,,,,661770012a3c83b4bdaff645,2024-05-13_11h33.41.171,group3.1-3.2-social-tom,2023.2.2,Win32,60.97560976,65c5074098b851296ff0b7ed,6642321c89aea44220fc507c,9.4542,15.8299,space,6.3372,,,,,,,,,,,,,,,,,,,,,,,,,,,,,,,,,,,,,,,,,,,,,,,,,,,,,,,,,,,,,,,,,,,,,,,,,,,,,,,,,,,,,,,,,,,,,,,,,,,,,,
,,,,,,661770012a3c83b4bdaff645,2024-05-13_11h33.41.171,group3.1-3.2-social-tom,2023.2.2,Win32,60.97560976,65c5074098b851296ff0b7ed,6642321c89aea44220fc507c,,,,,,15.8301,28.7175,space,12.5554,,,,,,,,,,,,,,,,,,,,,,,,,,,,,,,,,,,,,,,,,,,,,,,,,,,,,,,,,,,,,,,,,,,,,,,,,,,,,,,,,,,,,,,,,,,,,,,,,
,,,,,,661770012a3c83b4bdaff645,2024-05-13_11h33.41.171,group3.1-3.2-social-tom,2023.2.2,Win32,60.97560976,65c5074098b851296ff0b7ed,6642321c89aea44220fc507c,,,,,,,,,,,28.725,36.761,space,8.0071,,[],[],[],[],[],[],0,0,0,0,1,,,,,,,,,,,,,,,,,,,,,,,,,,,,,,,,,,,,,,,,,,,,,,,,,,,,,,,,,,,,,,,,,,,,,,,,,,,,,,,,
,,,,,,661770012a3c83b4bdaff645,2024-05-13_11h33.41.171,group3.1-3.2-social-tom,2023.2.2,Win32,60.97560976,65c5074098b851296ff0b7ed,6642321c89aea44220fc507c,,,,,,,,,,,36.7778,72.2241,space,35.3602,,[],[],[],[],[],[],1,0,1,0,1,,,,,,,,,,,,,,,,,,,,,,,,,,,,,,,,,,,,,,,,,,,,,,,,,,,,,,,,,,,,,,,,,,,,,,,,,,,,,,,,
,,,,,,661770012a3c83b4bdaff645,2024-05-13_11h33.41.171,group3.1-3.2-social-tom,2023.2.2,Win32,60.97560976,65c5074098b851296ff0b7ed,6642321c89aea44220fc507c,,,,,,,,,,,72.2397,85.0119,space,12.7195,,[],[],[],[],[],[],2,0,2,0,1,,,,,,,,,,,,,,,,,,,,,,,,,,,,,,,,,,,,,,,,,,,,,,,,,,,,,,,,,,,,,,,,,,,,,,,,,,,,,,,,
,,,,,,661770012a3c83b4bdaff645,2024-05-13_11h33.41.171,group3.1-3.2-social-tom,2023.2.2,Win32,60.97560976,65c5074098b851296ff0b7ed,6642321c89aea44220fc507c,,,,,,,,,,,85.0276,109.5225,space,24.4682,,[],[],[],[],[],[],3,0,3,0,1,,,,,,,,,,,,,,,,,,,,,,,,,,,,,,,,,,,,,,,,,,,,,,,,,,,,,,,,,,,,,,,,,,,,,,,,,,,,,,,,
,,,,,,661770012a3c83b4bdaff645,2024-05-13_11h33.41.171,group3.1-3.2-social-tom,2023.2.2,Win32,60.97560976,65c5074098b851296ff0b7ed,6642321c89aea44220fc507c,,,,,,,,,,,109.5326,118.5297,space,8.976,,[],[],[],[],[],[],4,0,4,0,1,,,,,,,,,,,,,,,,,,,,,,,,,,,,,,,,,,,,,,,,,,,,,,,,,,,,,,,,,,,,,,,,,,,,,,,,,,,,,,,,
,,,,,,661770012a3c83b4bdaff645,2024-05-13_11h33.41.171,group3.1-3.2-social-tom,2023.2.2,Win32,60.97560976,65c5074098b851296ff0b7ed,6642321c89aea44220fc507c,,,,,,,,,,,,,,,,,,,,,,,,,,,118.5485,121.1278,121.1627,1,audio/Narrative13Situation2.wav,123.1746,,123.1751,152.931,"[[999,2],[999,116],[999,199],[999,282],[999,365],[999,448],[999,531],[999,615],[999,698],[999,782],[999,864],[999,948],[999,1031],[999,1114],[999,1198],[999,1281],[999,1364],[999,1447],[999,1530],[16,1614],[13.7,1697],[12.2,1780],[11.3,1864],[9.7,1948],[8.6,2030],[8.1,2113],[7.4,2196],[7.4,2280],[7.4,2363],[8,2447],[9.2,2530],[10.5,2613],[12.8,2697],[15.7,2780],[17.1,2862],[17.8,2946],[18.2,3028],[19,3112],[20,3196],[21.7,3279],[23.2,3362],[25.3,3445],[26.4,3528],[28.3,3612],[29.1,3696],[30.1,3778],[31.7,3862],[32.7,3945],[34.2,4028],[35.8,4112],[36.8,4195],[37.3,4278],[37.3,4361],[37.3,4444],[37.3,4527],[37.3,4610],[37.3,4694],[37.3,4778],[37.3,4861],[37.3,4944],[37.3,5027],[37.3,5110],[37.3,5194],[37.3,5277],[37.3,5360],[37.3,5443],[37.3,5527],[37.3,5610],[37.3,5693],[37.3,5777],[37.3,5859],[37.3,5943],[37.3,6026],[37.3,6110],[37.3,6193],[37.3,6276],[37.3,6359],[37.3,6442],[37.3,6526],[37.3,6609],[37.3,6692],[37.3,6775],[37.3,6858],[37.3,6942],[37.3,7026],[37.3,7109],[37.3,7192],[37.3,7275],[37.3,7358],[37.3,7441],[37.3,7524],[37.3,7608],[37.3,7691],[37.3,7774],[37.3,7858],[37.3,7941],[37.3,8025],[37.3,8107],[37.3,8191],[37.3,8274],[37.3,8357],[37.3,8440],[37.3,8524],[37.3,8607],[37.3,8690],[37.3,8773],[37.3,8856],[37.3,8940],[37.3,9023],[37.3,9106],[37.3,9189],[37.3,9273],[37.3,9356],[37.3,9439],[37.3,9522],[37.3,9606],[37.3,9689],[37.3,9772],[37.3,9856],[37.3,9939],[37.3,10022],[37.3,10105],[37.3,10189],[37.3,10272],[37.3,10355],[37.3,10438],[38.7,10522],[44.9,10605],[53.8,10689],[58.3,10772],[61.4,10855],[63.3,10938],[65.8,11021],[69.9,11104],[73.1,11188],[77.7,11271],[82.2,11354],[85.4,11438],[88.2,11521],[89.2,11604],[90,11687],[90.4,11771],[92.3,11854],[93.2,11938],[94.2,12020],[95.2,12103],[95.8,12187],[96.3,12270],[96.3,12353],[96.3,12436],[96.3,12520],[96.3,12603],[96.3,12686],[96.3,12769],[99.6,12853],[100,12936],[100,13019],[100,13102],[100,13185],[100,13269],[100,13352],[100,13435],[99.8,13519],[98.8,13602],[97.9,13685],[97.6,13769],[97.6,13852],[97.6,13935],[97.6,14018],[97.6,14101],[97.6,14185],[97.6,14268],[97.6,14351],[97.6,14434],[97.6,14518],[97.6,14601],[97.6,14684],[97.6,14767],[97.6,14850],[97.6,14934],[97.6,15017],[97.6,15100],[96.3,15184],[96.3,15267],[96.3,15350],[95.8,15433],[94.1,15517],[93,15600],[91.3,15683],[88.8,15767],[85,15850],[83.1,15933],[82.8,16016],[82.8,16099],[82.8,16182],[82.8,16266],[82.8,16349],[82.8,16433],[81.6,16517],[80.2,16599],[79.1,16682],[78.4,16766],[77.5,16849],[76.4,16932],[75.5,17015],[74.5,17099],[73.6,17182],[73,17265],[72.1,17348],[72.1,17431],[72.1,17515],[72.1,17598],[72.1,17681],[72.1,17764],[72.1,17848],[72.1,17931],[72.4,18015],[75.3,18099],[79.1,18182],[84,18264],[88.5,18348],[90.4,18432],[91.9,18514],[92.9,18598],[93.5,18681],[94.2,18764],[94.9,18847],[95.2,18930],[95.4,19013],[95.4,19097],[95.4,19180],[95.4,19263],[95.4,19347],[95.4,19429],[95.4,19512],[95.4,19596],[91,19680],[85.4,19763],[82.7,19846],[81.8,19929],[80.9,20013],[80.9,20096],[80.9,20179],[81.6,20262],[84.1,20345],[86.6,20429],[89.8,20512],[91.7,20595],[95.2,20678],[98.3,20762],[98.3,20845],[98.3,20928],[97.1,21012],[95.2,21095],[94.9,21178],[94.8,21261],[94.8,21344],[94.8,21428],[94.8,21511],[94.8,21595],[94.8,21678],[82.8,21760],[68.9,21845],[58.6,21928],[45.5,22010],[34.8,22094],[21.2,22177],[1,23259],[1,23342],[1,23426],[1.8,23509],[6.5,23592],[8.1,23675],[9.2,23760],[9.9,23842],[9.9,23925],[10,24008],[10,24092],[10,24175],[9.7,24258],[6.5,24342],[3.6,24425],[1,24508],[0.5,24591],[0.5,24674],[0.5,24757],[0.5,24840],[0.5,24924],[0.5,25007],[0.5,25091],[0.5,25174],[1,25258],[1.4,25341],[1.4,25423],[1.4,25507],[2.1,25590],[2.6,25673],[2.7,25757],[2.7,25840],[2.7,25923],[2.7,26006],[2.7,26090],[2.7,26173],[2.7,26256],[2.7,26340],[2.7,26423],[2.7,26506],[2.7,26589],[2.7,26673],[2.7,26756],[2.7,26839],[2.7,26922],[2.7,27006],[2.7,27089],[2.7,27172],[2.7,27256],[2.7,27338],[2.7,27422],[2.7,27505],[11.5,27588],[32.1,27672],[62.2,27755],[86.7,27838],[92.8,27921],[100,28004],[100,28087],[100,28171],[100,28254],[100,28337],[99.3,28423],[92.3,28505],[85.6,28588],[77.2,28672],[60,28838],[53.5,28921],[43,29004],[31,29171],[22.9,29254],[19,29337],[18.4,29420],[18.4,29503],[18.4,29586],[19,29670],[24.7,29754]]",1,0,152.9315,164.885,50.73206442,9.1582,"[{""rating"":50.73206442166911,""responseTime"":9.158199999988057}]",space,11.413,,164.8857,Definitely yes,100,164.8925,,,[],,0,0,0,0,1,audio/Narrative13Situation2.wav,audio/Narrative13Situation2.wav,audio/Narrative13Situation2.wav,audio/Narrative13Situation2.wav,2,2,2,2,,,,,,,,,,,,,,,,,,,,,,,,,,,,,,,,,,,,,,,
,,,,,,661770012a3c83b4bdaff645,2024-05-13_11h33.41.171,group3.1-3.2-social-tom,2023.2.2,Win32,60.97560976,65c5074098b851296ff0b7ed,6642321c89aea44220fc507c,,,,,,,,,,,,,,,,,,,,,,,,,,,,,164.893,1,audio/Narrative8Situation1.wav,167.3146,space,167.3147,183.25,"[[54.2,666],[52,749],[51.2,833],[47.7,916],[43,999],[40.6,1082],[40.6,1165],[40.6,1248],[40.6,1331],[41.7,1416],[42.5,1498],[42.7,1581],[42.7,1665],[42.7,1748],[42.7,1831],[42.7,1915],[43,1998],[43,2081],[43,2164],[43,2247],[43,2331],[43,2413],[43,2497],[43,2580],[43,2663],[43,2747],[43,2830],[43,2913],[43.7,2997],[43.9,3079],[44.7,3164],[45.2,3246],[47.7,3330],[59.1,3413],[88.1,3497],[96.7,3580],[100,3663],[100,3746],[100,3829],[100,3912],[100,3996],[100,4079],[100,4163],[100,4246],[100,4329],[100,4413],[99.3,4496],[98.5,4579],[97.6,4661],[96.6,4745],[96.6,4828],[96.6,4912],[96.6,4994],[96.6,5078],[96.6,5161],[96.6,5244],[96.6,5328],[96.6,5411],[96.6,5494],[96.6,5578],[96.6,5662],[96.6,5744],[96.6,5827],[96.6,5910],[96.6,5993],[96.6,6077],[96.6,6160],[96.6,6243],[96.6,6327],[96.6,6410],[96.6,6493],[96.6,6576],[96.6,6659],[96.6,6742],[96.6,6826],[96.6,6909],[96.6,6992],[96.6,7076],[96.6,7159],[96.6,7242],[96.6,7326],[96.6,7409],[96.6,7492],[96.6,7575],[96.6,7658],[96.6,7743],[96.6,7825],[96.6,7908],[96.6,7992],[96.6,8075],[96.6,8158],[96.6,8242],[96.6,8325],[96.6,8408],[96.6,8491],[96.6,8574],[96.6,8658],[96.6,8741],[95.7,8824],[95.2,8907],[95.2,8991],[95.2,9074],[95.2,9157],[95.2,9240],[94.7,9324],[93.6,9407],[88.8,9490],[70.2,9573],[2.3,10073],[1.8,10156],[1.5,10239],[1.5,10322],[1.5,10405],[1.5,10489],[1.5,10572],[1.5,10655],[1.5,10738],[1.5,10822],[1.5,10905],[1.5,10989],[1.5,11072],[1.5,11155],[3.4,11239],[6.2,11323],[12.1,11405],[22,11489],[51.8,11573],[97.9,11655],[100,11738],[100,11821],[100,11904],[100,11987],[100,12072],[100,12154],[100,12239],[100,12321],[100,12405],[100,12488],[100,12571],[100,12654],[100,12737],[100,12821],[99.5,12917],[98.9,12987],[98.2,13070],[97.9,13153],[97.3,13236],[95.8,13319],[93.6,13403],[92.6,13486],[91.4,13569],[90.7,13653],[90.1,13735],[90.1,13818],[90.1,13902],[90.1,13985],[90.1,14069],[90.1,14152],[90.1,14235],[90.1,14318],[79.3,14402],[69.2,14485],[60.8,14568],[53.1,14652],[48.7,14735],[48.5,14818],[48.5,14901],[48.5,14984],[48.5,15068],[48.5,15151],[48.5,15234],[48.5,15318],[48.5,15401],[48.5,15485],[48.5,15567],[48.5,15651],[48.5,15734],[48.5,15817],[48.5,15900]]",1,0,183.2505,190.3419,50.43923865,5.4375,"[{""rating"":50.43923865300146,""responseTime"":5.4375}]",space,6.556,,190.3419,Partially,50,190.345,,,[],,0,1,1,1,1,audio/Narrative7Situation1.wav,audio/Narrative8Situation1.wav,audio/Narrative5Situation1.wav,audio/Narrative6Situation1.wav,2,5,5,2,2.3944,,,,,,,,,,,,,,,,,,,,,,,,,,,,,,,,,,,,,,
,,,,,,661770012a3c83b4bdaff645,2024-05-13_11h33.41.171,group3.1-3.2-social-tom,2023.2.2,Win32,60.97560976,65c5074098b851296ff0b7ed,6642321c89aea44220fc507c,,,,,,,,,,,,,,,,,,,,,,,,,,,,,190.3452,1,audio/Narrative8Situation2.wav,193.3555,,193.3555,203.4796,"[[61.9,1415],[75.9,1499],[81.5,1582],[82.9,1665],[86,1748],[86,1831],[86,1914],[86,1998],[86,2081],[86,2164],[85.7,2248],[82.1,2332],[70.2,2414],[61,2498],[57.8,2582],[51,2663],[50.6,2747],[50.6,2830],[49.6,2913],[43.4,2997],[26.6,3081],[14,3163],[11.8,3246],[11.8,3330],[12.2,3413],[26.6,3496],[26.6,3579],[23.6,3663],[9.9,3746],[3.9,3829],[2.1,3912],[2.1,3996],[2.1,4079],[2.1,4162],[2.1,4245],[2.1,4329],[2.1,4411],[2.1,4495],[2.1,4578],[2.1,4662],[2.1,4745],[2.1,4828],[2.1,4911],[2.1,4994],[2.1,5078],[2.1,5161],[2.1,5244],[2.1,5328],[2.1,5411],[2.1,5494],[2.1,5577],[2.1,5661],[2.1,5744],[2.1,5827],[2.1,5911],[2.1,5994],[2.1,6077],[2.1,6160],[2.1,6243],[2.1,6327],[2.1,6410],[2.1,6494],[2.1,6576],[2.1,6659],[2.1,6743],[2.1,6826],[2.1,6910],[2.1,6993],[2.1,7076],[2.1,7159],[2.1,7242],[2.1,7326],[2.1,7409],[2.1,7492],[2.1,7576],[2.1,7659],[2.1,7742],[2.1,7825],[2.1,7908],[2.1,7992],[2.1,8075],[2.1,8159],[2.1,8242],[2.1,8325],[2.1,8408],[2.1,8491],[2.1,8575],[2.1,8658],[2.1,8741],[2.1,8824],[2.1,8908],[2.1,8991],[2.1,9074],[2.1,9158],[2.1,9241],[2.1,9324],[2.1,9407],[2.1,9490],[2.1,9574],[2.1,9658],[2.1,9740],[2.1,9824],[2.1,9907],[2.1,9990],[2.1,10074]]",1,0,203.4798,208.1076,0.366032211,3.2797,"[{""rating"":0.36603221083455484,""responseTime"":3.279699999988054}]",space,4.0863,,208.1077,Partially,50,208.1098,,,[],,0,2,2,2,1,audio/Narrative7Situation2.wav,audio/Narrative8Situation2.wav,audio/Narrative5Situation2.wav,audio/Narrative6Situation2.wav,3,3,3,3,,,,,,,,,,,,,,,,,,,,,,,,,,,,,,,,,,,,,,,
,,,,,,661770012a3c83b4bdaff645,2024-05-13_11h33.41.171,group3.1-3.2-social-tom,2023.2.2,Win32,60.97560976,65c5074098b851296ff0b7ed,6642321c89aea44220fc507c,,,,,,,,,,,,,,,,,,,,,,,,,,,,,208.1101,1,audio/Narrative8Situation3.wav,212.1214,,212.1214,234.5161,"[[4.8,4264],[14.3,4345],[42.2,4428],[70.9,4512],[99.6,5094],[99.9,5177],[100,5260],[100,5344],[100,5426],[100,5510],[100,5593],[100,5677],[100,5760],[100,5843],[100,5926],[100,6009],[100,6093],[100,6176],[100,6259],[100,6342],[100,6426],[100,6509],[100,6592],[100,6675],[100,6759],[100,6842],[100,6925],[100,7008],[100,7091],[100,7175],[100,7258],[100,7341],[95.2,7425],[88.9,7508],[80,7591],[75.5,7675],[62.7,7758],[60.4,7841],[61.6,7924],[78.4,8008],[90.7,8674],[81,8757],[73.7,8839],[73.7,8923],[73.7,9006],[73.7,9090],[73.7,9173],[73.7,9256],[73.7,9339],[73.7,9422],[73.7,9506],[73.7,9589],[73.7,9672],[73.7,9756],[73.7,9839],[73.7,9922],[73.4,10006],[73.4,10088],[73.4,10172],[73.4,10255],[73.4,10338],[73.4,10422],[73.4,10505],[73.4,10588],[73.4,10671],[73.4,10755],[73.4,10838],[71.7,10922],[65.8,11005],[57.6,11088],[54.1,11171],[50.1,11255],[48.7,11337],[48.7,11421],[48.7,11504],[48.7,11587],[48.7,11670],[48.7,11753],[48.7,11837],[48.7,11920],[48.7,12003],[48.7,12086],[48.7,12170],[48.7,12253],[48.7,12336],[48.7,12420],[48.7,12503],[48.7,12586],[48.7,12670],[48.7,12753],[50.3,12836],[54.5,12919],[60.1,13002],[71.1,13086],[79.9,13169],[92.5,13252],[100,13336],[100,13420],[100,13502],[100,13585],[100,13669],[100,13752],[100,13835],[100,13918],[100,14002],[100,14085],[100,14168],[100,14251],[100,14335],[100,14418],[100,14501],[100,14584],[100,14668],[100,14751],[100,14834],[100,14918],[100,15001],[99.9,15084],[99.9,15167],[99.9,15250],[99.9,15333],[99.9,15417],[99.9,15500],[99.9,15583],[99.9,15667],[99.9,15750],[99.9,15833],[99.9,15916],[99.9,16000],[99.9,16083],[99.9,16166],[99.9,16249],[99.9,16332],[99.9,16416],[99.9,16499],[99.9,16583],[99.9,16666],[99.9,16749],[99.9,16832],[99.9,16915],[99.9,16998],[99.9,17082],[99.5,17165],[99,17249],[99,17332],[99,17415],[99,17498],[99,17581],[99,17665],[99,17748],[99,17831],[99,17914],[99,17997],[99,18081],[99,18164],[99,18247],[99,18331],[99,18413],[99,18498],[99,18580],[99,18663],[99,18747],[99,18830],[99,18913],[99,18997],[99,19080],[99,19163],[96.3,19246],[91.3,19330],[87.8,19413],[84.8,19496],[83.5,19580],[82.5,19663],[80.7,19746],[79.9,19830],[79.1,19912],[79.1,19996],[79.1,20079],[79.1,20162],[79.1,20245],[79.1,20329],[79.1,20412],[79.1,20495],[79.1,20579],[79.1,20661],[79.1,20745],[79.1,20829],[79.1,20911],[79.1,20995],[79.1,21078],[79.1,21161],[79.1,21244],[79.1,21328],[79.1,21411],[79.1,21494],[79.1,21578],[79.1,21661],[79.1,21744],[79.1,21827],[79.1,21911],[79.1,21994],[79.1,22077],[79.1,22160],[79.1,22244],[79.1,22327]]",1,0,234.5164,240.4262,81.18594436,4.4165,"[{""rating"":81.18594436310396,""responseTime"":4.416500000000042}]",space,5.374,,240.4263,Not at all,0,240.4296,,,[],,0,3,3,3,1,audio/Narrative7Situation3.wav,audio/Narrative8Situation3.wav,audio/Narrative5Situation3.wav,audio/Narrative6Situation3.wav,8,4,3,5,,,,,,,,,,,,,,,,,,,,,,,,,,,,,,,,,,,,,,,
,,,,,,661770012a3c83b4bdaff645,2024-05-13_11h33.41.171,group3.1-3.2-social-tom,2023.2.2,Win32,60.97560976,65c5074098b851296ff0b7ed,6642321c89aea44220fc507c,,,,,,,,,,,,,,,,,,,,,,,,,,,,,240.4298,1,audio/Narrative8Situation4.wav,243.4406,,243.4406,257.626,"[[79.6,2330],[80.3,2413],[80.3,2496],[80.3,2581],[80.3,2663],[80.3,2746],[80.3,2829],[80.3,2913],[80.3,2996],[80.3,3079],[80.3,3163],[80.3,3246],[80.3,3329],[80.3,3413],[80.3,3496],[80.3,3579],[80.3,3662],[80.3,3746],[80.3,3828],[80.3,3912],[80.3,3995],[80.3,4078],[80.3,4161],[80.3,4245],[80.3,4328],[80.3,4412],[100,5163],[99.8,5244],[96.3,5327],[95.8,5410],[95.8,5493],[97,5577],[98.8,5661],[99.3,5743],[99.3,5827],[99.3,5910],[99.3,5993],[99.3,6076],[99.3,6159],[99.3,6243],[99.3,6326],[99.3,6410],[99.3,6493],[99.3,6576],[99.3,6659],[99.3,6742],[99.3,6826],[99.3,6909],[99.3,6992],[99.3,7075],[99.3,7158],[99.3,7241],[99.3,7325],[99.2,7408],[99.2,7492],[99.2,7575],[99.2,7658],[99.2,7741],[99.2,7824],[99.2,7907],[99.2,7990],[99.2,8074],[99.2,8157],[99.2,8241],[99.2,8324],[99.2,8407],[99.2,8491],[99.2,8573],[99.2,8657],[99.2,8741],[99.2,8824],[99.2,8907],[99.2,8990],[99.2,9073],[99.2,9156],[99.2,9240],[99.2,9323],[99.2,9406],[99.2,9490],[99.2,9572],[99.2,9656],[99.2,9739],[99.2,9823],[99.2,9905],[99.2,9989],[99.2,10072],[99.2,10156],[99.2,10238],[99.2,10322],[99.2,10406],[99.2,10488],[99.2,10572],[99.2,10655],[99.2,10738],[99.2,10822],[99.2,10905],[99.2,10988],[99.2,11072],[99.2,11155],[99.2,11237],[99.2,11321],[99.2,11404],[99.2,11487],[99.2,11571],[99.2,11654],[99.2,11737],[99.2,11821],[99.2,11904],[99.2,11987],[99.2,12070],[99.2,12154],[99.2,12237],[99.2,12320],[99.2,12403],[99.2,12487],[99.2,12570],[99.2,12653],[99.2,12736],[99.2,12819],[99.2,12903],[99.2,12986],[99.2,13069],[99.2,13152],[99.2,13236],[99.2,13319],[99.2,13402],[99.2,13486],[99.2,13569],[99.2,13652],[99.2,13735],[99.2,13818],[99,13902],[97.7,13985],[96.9,14069],[96.9,14152]]",1,0,257.6262,261.5895,99.78038067,2.788,"[{""rating"":99.78038067349927,""responseTime"":2.788000000000011}]",space,3.4172,,261.5895,Partially,50,261.5948,,,[],,0,4,4,4,1,audio/Narrative7Situation4.wav,audio/Narrative8Situation4.wav,audio/Narrative5Situation4.wav,audio/Narrative6Situation4.wav,3,3,1,2,,,,,,,,,,,,,,,,,,,,,,,,,,,,,,,,,,,,,,,
,,,,,,661770012a3c83b4bdaff645,2024-05-13_11h33.41.171,group3.1-3.2-social-tom,2023.2.2,Win32,60.97560976,65c5074098b851296ff0b7ed,6642321c89aea44220fc507c,,,,,,,,,,,,,,,,,,,,,,,,,,,,,261.5952,1,audio/Narrative8Situation5.wav,263.6036,,263.6036,271.8627,"[[96.3,2663],[96,2746],[94.5,2830],[94.5,2913],[94.5,2997],[98.2,3080],[100,3163],[100,3246],[100,3329],[100,3413],[100,3496],[100,3579],[100,3663],[100,3745],[100,3829],[100,3912],[100,3995],[100,4079],[100,4162],[100,4245],[100,4329],[100,4412],[100,4495],[100,4578],[100,4661],[100,4744],[100,4827],[100,4911],[100,4994],[100,5077],[100,5161],[100,5244],[100,5327],[100,5411],[100,5494],[100,5577],[100,5660],[100,5744],[100,5827],[100,5910],[100,5993],[100,6077],[100,6160],[100,6243],[100,6326],[100,6410],[100,6493],[100,6577],[98.3,6660],[95.5,6744],[94.8,6827],[93.8,6910],[93.2,6994],[92.2,7076],[90,7159],[88.5,7243],[87,7327],[86.7,7409],[86.7,7492],[86.7,7575],[86.7,7659],[86.7,7742],[86.7,7825],[86.7,7908],[86.7,7992],[86.7,8075],[86.7,8158],[86.7,8241]]",1,0,271.8629,276.0582,97.43777452,2.6429,"[{""rating"":97.43777452415813,""responseTime"":2.642900000005966}]",space,3.6509,,276.0584,Not at all,0,276.0634,,,[],,0,5,5,5,1,audio/Narrative7Situation5.wav,audio/Narrative8Situation5.wav,audio/Narrative5Situation5.wav,audio/Narrative6Situation5.wav,5,2,5,2,,,,,,,,,,,,,,,,,,,,,,,,,,,,,,,,,,,,,,,
,,,,,,661770012a3c83b4bdaff645,2024-05-13_11h33.41.171,group3.1-3.2-social-tom,2023.2.2,Win32,60.97560976,65c5074098b851296ff0b7ed,6642321c89aea44220fc507c,,,,,,,,,,,,,,,,,,,,,,,,,,,,,276.0639,1,audio/Narrative8Situation6.wav,278.0736,,278.0737,284.5499,"[[96.1,1748],[98.6,1831],[99.5,1913],[99.5,1997],[99.5,2081],[99.5,2163],[99.5,2247],[99.5,2329],[99.5,2413],[99.5,2496],[99.5,2579],[99.5,2663],[99.5,2746],[99.5,2829],[99.5,2913],[99.5,2996],[99.5,3079],[99.5,3162],[99.5,3245],[99.5,3329],[99.5,3412],[99.5,3495],[99.5,3578],[99.5,3662],[99.5,3745],[98.8,3828],[98.8,3912],[98.8,3995],[98.8,4078],[98.8,4161],[98.8,4244],[98.8,4328],[98.8,4411],[95.1,4495],[88.1,4578],[75.9,4662],[66.4,4744],[53.1,4827],[46.9,4910],[46.3,4993],[46.3,5077],[46.3,5160],[47.8,5243],[59.5,5327],[71.2,5410],[82.9,5494],[91.9,5577],[98.9,5660],[100,5744],[100,5826],[100,5909],[100,5993],[100,6076],[100,6159],[100,6243],[100,6326],[100,6409]]",1,0,284.5501,286.864,95.8272328,1.3373,"[{""rating"":95.82723279648609,""responseTime"":1.3372999999821218}]",space,1.7726,,286.8641,Partially,50,286.8693,,,[],,0,6,6,6,1,audio/Narrative7Situation6.wav,audio/Narrative8Situation6.wav,audio/Narrative5Situation6.wav,audio/Narrative6Situation6.wav,3,2,3,2,,,,,,,,,,,,,,,,,,,,,,,,,,,,,,,,,,,,,,,
,,,,,,661770012a3c83b4bdaff645,2024-05-13_11h33.41.171,group3.1-3.2-social-tom,2023.2.2,Win32,60.97560976,65c5074098b851296ff0b7ed,6642321c89aea44220fc507c,,,,,,,,,,,,,,,,,,,,,,,,,,,,,286.8698,1,audio/Narrative8Situation7.wav,289.8781,,289.8783,301.966,"[[999,0],[999,83],[999,165],[999,249],[999,332],[999,415],[999,499],[999,582],[999,665],[999,748],[999,832],[999,915],[999,998],[999,1081],[999,1165],[999,1248],[999,1331],[999,1414],[999,1498],[999,1581],[999,1664],[999,1747],[999,1831],[999,1915],[999,1997],[999,2080],[999,2165],[999,2247],[999,2331],[999,2414],[999,2497],[999,2580],[999,2663],[999,2747],[999,2830],[999,2913],[999,2996],[999,3079],[999,3163],[999,3245],[999,3329],[999,3413],[999,3495],[999,3579],[999,3662],[999,3745],[999,3829],[999,3912],[999,3995],[999,4078],[999,4161],[999,4245],[999,4327],[999,4411],[999,4494],[999,4579],[99.5,4661],[98.3,4744],[98,4828],[98,4911],[98,4994],[98,5077],[98,5161],[98,5243],[98,5327],[98,5410],[98,5493],[98,5577],[98,5660],[98,5744],[98,5826],[98,5910],[98,5993],[98,6076],[98,6159],[98,6243],[98,6326],[98,6409],[98,6492],[98,6576],[98,6659],[98,6743],[98,6825],[98,6909],[98,6992],[98,7075],[98,7159],[98,7242],[98,7325],[98,7408],[98,7492],[98,7575],[98,7658],[98,7742],[98,7825],[98,7908],[98,7991],[98,8074],[98,8158],[98,8242],[98,8324],[98,8408],[98,8491],[98,8574],[98,8657],[98,8741],[98,8824],[98,8907],[98,8990],[98,9074],[98,9157],[98,9240],[98,9323],[98,9407],[98,9490],[98,9573],[98,9657],[98,9739],[98,9823],[98,9906],[98,9989],[98,10073],[98,10156],[98,10239],[98,10322],[98,10405],[98,10489],[98,10573],[98,10655],[98,10739],[98,10822],[98,10905],[98,10988],[98,11072],[98,11155],[98,11238],[98,11321],[98,11404],[98,11488],[98,11571],[98,11654],[98,11738],[98,11821],[98,11904],[98,11988],[98,12071]]",1,0,301.9663,306.9444,81.7715959,1.6146,"[{""rating"":81.77159590043924,""responseTime"":1.614599999994084}]",space,4.4341,,306.9445,Not at all,0,306.9647,,,[],,0,7,7,7,1,audio/Narrative7Situation7.wav,audio/Narrative8Situation7.wav,audio/Narrative5Situation7.wav,audio/Narrative6Situation7.wav,5,3,4,5,,,,,,,,,,,,,,,,,,,,,,,,,,,,,,,,,,,,,,,
,,,,,,661770012a3c83b4bdaff645,2024-05-13_11h33.41.171,group3.1-3.2-social-tom,2023.2.2,Win32,60.97560976,65c5074098b851296ff0b7ed,6642321c89aea44220fc507c,,,,,,,,,,,,,,,,,,,,,,,,,,,,,306.9649,1,audio/Narrative8Situation8.wav,309.9755,,309.9756,322.8287,"[[83.7,1415],[86.3,1498],[87.3,1581],[88.2,1664],[88.2,1748],[88.2,1831],[88.2,1914],[88.2,1997],[88.2,2080],[88.2,2163],[88.2,2247],[88.2,2330],[88.2,2413],[88.2,2496],[88.2,2580],[88.2,2663],[88.2,2746],[88.2,2830],[88.2,2913],[88.2,2996],[88.2,3080],[88.2,3162],[88.2,3246],[88.2,3329],[88.2,3412],[88.2,3496],[88.2,3579],[88.2,3662],[88.2,3745],[88.2,3829],[88.2,3912],[88.2,3995],[88.2,4078],[88.2,4161],[88.2,4245],[88.2,4328],[81.9,4412],[39.6,4495],[15,4578],[4,5328],[12.1,5411],[25.3,5494],[33.5,5577],[33.5,5660],[37,5744],[37.1,5827],[37.1,5910],[37.1,5993],[39.8,6076],[42.7,6160],[44.4,6244],[47.5,6326],[47.5,6409],[47.5,6492],[47.5,6576],[47.5,6659],[47.5,6742],[47.5,6826],[47.5,6909],[47.8,6992],[47.8,7075],[48.4,7159],[48.8,7242],[48.8,7325],[48.8,7408],[48.8,7492],[48.8,7575],[48.8,7658],[48.8,7741],[48.8,7825],[48.8,7908],[48.8,7991],[48.8,8074],[48.8,8157],[48.8,8241],[48.8,8324],[48.8,8407],[48.8,8490],[48.8,8574],[48.8,8657],[48.8,8740],[48.8,8823],[48.8,8907],[48.8,8990],[48.8,9073],[48.8,9156],[48.8,9239],[48.8,9323],[48.8,9406],[48.8,9490],[48.8,9572],[48.8,9656],[48.8,9739],[48.8,9822],[48.8,9906],[48.8,9989],[48.8,10072],[48.8,10155],[48.8,10238],[48.8,10322],[48.8,10405],[48.8,10488],[48.8,10572],[48.8,10655],[48.8,10738],[48.8,10821],[48.8,10906],[48.8,10988],[48.8,11071],[48.8,11154],[48.8,11237],[48.8,11321],[48.8,11404],[48.8,11487],[48.8,11570],[48.8,11654],[48.8,11737],[48.8,11821],[48.8,11903],[48.8,11987],[48.8,12070],[48.8,12154],[48.8,12237],[48.8,12320],[48.8,12403],[48.8,12486],[48.8,12570],[48.8,12653],[48.8,12736],[48.8,12819]]",1,0,322.8289,325.3095,49.12152269,1.5386,"[{""rating"":49.12152269399707,""responseTime"":1.5385999999940623}]",space,1.9329,,325.3096,Not at all,0,325.3113,,,[],,0,8,8,8,1,audio/Narrative7Situation8.wav,audio/Narrative8Situation8.wav,audio/Narrative5Situation8.wav,audio/Narrative6Situation8.wav,2,3,3,5,,,,,,,,,,,,,,,,,,,,,,,,,,,,,,,,,,,,,,,
,,,,,,661770012a3c83b4bdaff645,2024-05-13_11h33.41.171,group3.1-3.2-social-tom,2023.2.2,Win32,60.97560976,65c5074098b851296ff0b7ed,6642321c89aea44220fc507c,,,,,,,,,,,,,,,,,,,,,,,,,,,,,325.3116,1,audio/Narrative8Situation9.wav,328.3238,,328.3239,339.6456,"[[49.3,3496],[49.3,3579],[49.3,3662],[49.3,3745],[49.3,3829],[49.3,3912],[49.3,3995],[49.3,4079],[49.3,4162],[49.3,4245],[49.3,4329],[49.3,4411],[49.3,4495],[49.3,4578],[49.3,4662],[49.3,4744],[49.3,4828],[49.3,4911],[49.3,4994],[49.3,5078],[49.3,5161],[49.3,5244],[49.3,5327],[49.3,5410],[49.3,5494],[49.3,5577],[49.3,5660],[49.3,5743],[49.3,5826],[49.3,5910],[49.3,5993],[49.3,6076],[49.3,6160],[49.3,6243],[49.3,6326],[49.3,6409],[49.3,6493],[49.3,6576],[49.3,6659],[49.3,6742],[49.3,6826],[49.3,6909],[49.3,6992],[49.3,7075],[49.3,7159],[49.3,7242],[49.3,7325],[49.3,7408],[49.3,7492],[49.3,7575],[49.3,7658],[49.3,7741],[49.3,7825],[49.3,7908],[49.3,7991],[49.3,8074],[49.3,8158],[49.3,8241],[49.3,8324],[49.3,8407],[49.3,8491],[49.3,8574],[49.3,8657],[49.3,8740],[49.3,8824],[49.3,8907],[49.3,8990],[49.3,9073],[49.3,9157],[49.3,9240],[49.3,9323],[49.3,9407],[49.3,9490],[49.3,9573],[49.3,9656],[49.3,9739],[49.3,9823],[49.3,9906],[49.3,9989],[49.3,10072],[49.3,10156],[49.3,10239],[49.3,10323],[50.9,10405],[60.2,10489],[79.4,10572],[86.5,10656],[97.3,10739],[99.6,10822],[99.8,10905],[99.8,10989],[99.8,11072],[98.8,11155],[98.6,11238],[98.6,11321]]",1,0,339.6456,347.2717,96.85212299,6.8219,"[{""rating"":90.70278184480233,""responseTime"":1.6207000000178482},{""rating"":96.85212298682285,""responseTime"":6.8219000000059395}]",space,7.08,,347.2718,Partially,50,347.2747,,,[],,0,9,9,9,1,audio/Narrative7Situation9.wav,audio/Narrative8Situation9.wav,audio/Narrative5Situation9.wav,audio/Narrative6Situation9.wav,2,3,3,4,,,,,,,,,,,,,,,,,,,,,,,,,,,,,,,,,,,,,,,
,,,,,,661770012a3c83b4bdaff645,2024-05-13_11h33.41.171,group3.1-3.2-social-tom,2023.2.2,Win32,60.97560976,65c5074098b851296ff0b7ed,6642321c89aea44220fc507c,,,,,,,,,,,,,,,,,,,,,,,,,,,,,347.2749,1,audio/Narrative7Situation1.wav,349.2861,,349.2861,405.1659,"[[96.7,916],[96.3,1000],[93,1082],[89.5,1166],[88.4,1249],[85.7,1332],[85.4,1415],[85.4,1498],[85.4,1581],[85.4,1665],[85.4,1748],[85.4,1831],[85.4,1915],[85.4,1998],[85.4,2081],[85.4,2164],[85.4,2247],[85.4,2331],[85.4,2414],[85.4,2497],[86.6,2581],[87.2,2664],[89.7,2747],[92.5,2831],[94.8,2914],[95.7,2997],[96.3,3081],[96.3,3163],[96.3,3247],[96.3,3330],[95.1,3414],[94.4,3497],[93.5,3581],[92.8,3663],[92.8,3746],[92.8,3829],[92.8,3912],[94.2,3996],[95.4,4080],[96.4,4163],[97.6,4246],[98.5,4329],[99,4412],[99.2,4495],[99.2,4579],[99.2,4662],[97.1,4745],[93.8,4829],[91.3,4912],[89.2,4995],[87.9,5078],[87.5,5161],[87.5,5244],[87.5,5328],[88.1,5411],[89.1,5495],[91.3,5577],[93.8,5661],[95.8,5744],[97.3,5827],[98,5910],[98.2,5994],[98.2,6077],[97.3,6161],[96.3,6244],[94.7,6327],[91.4,6411],[88.4,6494],[86.3,6577],[85.9,6660],[85.9,6743],[85.9,6826],[85.9,6909],[85.9,6992],[85.9,7076],[85.9,7159],[86.7,7243],[87.6,7326],[88.9,7409],[90.4,7492],[92,7575],[93.6,7659],[94.7,7742],[95.4,7825],[95.5,7908],[95.5,7992],[95.5,8075],[95.5,8159],[95.5,8241],[94.8,8325],[94.7,8408],[94.7,8491],[94.7,8575],[94.7,8657],[95.1,8741],[96.3,8824],[97,8907],[97.4,8991],[97.6,9074],[97.6,9157],[97.6,9241],[97.6,9324],[97.6,9407],[97.6,9490],[97.6,9573],[97.6,9657],[97.6,9740],[97.6,9823],[97.6,9907],[97.6,9991],[97.6,10073],[97.6,10156],[97.6,10239],[97.6,10323],[97.6,10406],[97.6,10489],[97.6,10573],[97.6,10656],[97.6,10739],[97.6,10823],[97.6,10906],[97.6,10989],[97.6,11072],[97.6,11156],[97.6,11239],[97.6,11323],[97.6,11405],[97.6,11488],[97.6,11571],[97.6,11655],[97.6,11738],[97.6,11821],[97.6,11905],[97.6,11988],[97.6,12071],[97.6,12155],[97.6,12238],[97.6,12321],[97.6,12404],[97.6,12488],[97.6,12571],[97.6,12654],[97.6,12737],[97.6,12820],[97.6,12904],[97.6,12988],[97.6,13070],[97.6,13153],[97.6,13237],[97.6,13320],[97.6,13403],[97.6,13486],[97.6,13570],[97.6,13653],[97.6,13737],[97.6,13820],[97.6,13903],[97.6,13986],[97.6,14070],[97.6,14152],[97.6,14236],[97.6,14319],[97.6,14403],[97.6,14486],[97.6,14569],[97.6,14652],[97.6,14736],[97.6,14819],[97.6,14902],[97.6,14986],[97.6,15069],[97.6,15151],[97.6,15235],[97.6,15318],[97.6,15401],[97.6,15484],[97.6,15568],[97.6,15651],[97.6,15735],[97.6,15817],[97.6,15901],[97.6,15984],[97.6,16067],[97.6,16150],[97.6,16234],[97.6,16317],[97.6,16401],[97.6,16484],[97.6,16567],[97.6,16650],[97.6,16733],[97.6,16817],[97.6,16900],[97.6,16983],[97.6,17067],[97.6,17149],[97.6,17233],[97.6,17316],[97.6,17399],[97.6,17483],[97.6,17566],[97.6,17649],[97.6,17733],[97.6,17815],[97.6,17899],[97.6,17982],[97.6,18065],[97.6,18149],[97.6,18232],[97.6,18315],[97.6,18399],[97.6,18481],[97.6,18565],[97.6,18648],[97.6,18731],[97.6,18815],[97.6,18898],[97.6,18981],[97.6,19064],[97.6,19147],[97.6,19231],[97.6,19314],[97.6,19398],[97.6,19481],[97.6,19564],[97.6,19647],[97.6,19730],[97.6,19814],[97.6,19897],[97.6,19980],[97.6,20063],[97.6,20147],[97.6,20230],[97.6,20313],[97.6,20396],[97.6,20480],[97.6,20564],[97.6,20646],[97.6,20730],[97.6,20813],[97.6,20896],[97.6,20979],[97.6,21063],[97.6,21146],[97.6,21229],[97.6,21312],[97.6,21395],[97.6,21479],[97.6,21562],[97.6,21645],[97.6,21728],[97.6,21812],[97.6,21895],[97.6,21978],[97.6,22061],[97.6,22145],[97.6,22228],[97.6,22311],[97.6,22395],[97.6,22478],[97.6,22561],[97.6,22645],[97.6,22727],[97.6,22811],[97.6,22894],[97.6,22977],[97.6,23060],[97.6,23144],[97.6,23227],[97.6,23310],[97.6,23393],[97.6,23477],[97.6,23560],[97.6,23643],[97.6,23727],[97.6,23810],[97.6,23893],[97.6,23976],[97.6,24060],[97.6,24143],[97.6,24226],[97.6,24309],[97.6,24393],[97.6,24476],[97.6,24559],[97.6,24642],[97.6,24726],[97.6,24809],[97.6,24892],[97.6,24976],[97.6,25058],[97.6,25142],[97.6,25226],[97.6,25309],[97.6,25391],[97.6,25475],[97.6,25558],[97.6,25641],[97.6,25724],[97.6,25807],[97.6,25891],[97.6,25974],[97.6,26057],[97.6,26141],[97.6,26224],[97.6,26307],[97.6,26390],[97.6,26474],[97.6,26557],[97.6,26640],[97.6,26724],[97.6,26806],[97.6,26890],[97.6,26973],[97.6,27056],[97.6,27140],[97.6,27223],[97.6,27307],[97.6,27390],[97.6,27473],[97.6,27556],[97.6,27640],[97.6,27723],[97.6,27806],[97.6,27889],[97.6,27972],[97.6,28056],[97.6,28139],[97.6,28222],[97.6,28306],[97.6,28389],[97.6,28472],[97.6,28555],[97.6,28639],[97.6,28722],[97.6,28805],[97.6,28888],[97.6,28971],[97.6,29054],[97.6,29138],[97.6,29221],[97.6,29304],[97.6,29387],[97.6,29470],[97.6,29554],[97.6,29637],[97.6,29721],[97.6,29804],[97.6,29887],[97.6,29970],[97.6,30053],[97.6,30137],[97.6,30220],[97.6,30303],[97.6,30386],[97.6,30471],[97.6,30553],[97.6,30636],[97.6,30719],[97.6,30803],[97.6,30886],[97.6,30969],[97.6,31053],[97.6,31136],[97.6,31219],[96.1,31302],[86.5,31386],[46,31968],[50.4,32052],[54,32135],[54,32218],[56.4,32302],[69.5,32385],[87.5,32468],[96.3,32552],[100,32635],[100,32717],[100,32801],[83.8,32885],[65.2,32968],[59.5,33051],[52.2,33134],[43.6,33217],[43.1,33300],[43.1,33384],[43.1,33467],[43.1,33550],[48.1,33634],[57.6,33717],[66.4,33801],[75.6,33883],[84,33966],[91.1,34050],[96,34133],[97.6,34216],[98.2,34299],[98.2,34382],[96.4,34466],[84.8,34550],[67.3,34633],[54.5,34716],[45.8,34799],[40.6,34882],[40.5,34965],[40.5,35048],[40.5,35132],[40.5,35215],[58.3,35549],[64.8,35632],[69.3,35715],[77.1,35798],[82.2,35881],[85.6,35965],[89.8,36048],[93.5,36131],[94.9,36214],[96.1,36297],[96.1,36381],[96.1,36465],[96.1,36547],[96.1,36630],[96.1,36714],[96.1,36797],[96.1,36880],[96.1,36963],[96.1,37047],[95.8,37131],[94.1,37214],[90,37297],[85.1,37381],[77.5,37465],[67.6,37548],[56.6,37630],[44.6,38463],[48.2,38546],[51.5,38629],[54,38712],[55.3,38795],[56.9,38878],[58.2,38961],[60.4,39045],[61.4,39127],[61.4,39211],[58.8,39295],[53.4,39378],[48.8,39461],[45.3,39544],[43.4,39628],[43,39711],[43,39794],[43,39877],[43,39960],[43,40044],[43,40127],[43,40210],[43,40294],[43,40377],[43,40461],[43,40543],[43,40627],[43,40711],[43,40793],[43,40876],[45.5,40960],[49.9,41044],[49.9,41126],[49.9,41209],[50.1,41293],[49.1,41377],[50.3,41460],[51.9,41543],[55,41626],[57.9,41711],[60.5,41793],[64.2,41876],[68.9,41959],[72.3,42044],[75.9,42127],[78.3,42209],[78.8,42292],[78.8,42375],[73.6,42459],[58.2,42542],[47.2,42625],[40.8,42708],[37.8,42792],[37.6,42874],[37.6,42958],[37.6,43041],[39.2,43125],[42.7,43208],[45.8,43292],[49.4,43374],[52.6,43458],[55.9,43541],[59.5,43624],[62.7,43707],[63,43790],[63,43874],[61,43957],[50.7,44041],[47.2,44124],[47.2,44206],[46.6,44291],[46,44373],[46,44457],[46.5,44541],[50.9,44623],[54,44706],[56,44789],[56.7,44872],[57.2,44956],[59.4,45040],[61,45122],[60.7,45206],[60.4,45289],[60.2,45372],[56.3,45456],[52.2,45539],[47.5,45622],[47.1,45705],[46.8,45788],[46.8,45871],[46.8,45955],[46.8,46038],[48,46121],[48.8,46205],[48.8,46288],[49.7,46371],[50.7,46455],[52.3,46537],[55.3,46621],[57.9,46704],[59.1,46787],[61.3,46871],[61.7,46954],[61.7,47037],[61.7,47120],[61.7,47204],[61.7,47287],[61.7,47370],[61.7,47453],[61.7,47537],[61.7,47620],[61.7,47704],[61.7,47787],[61.7,47869],[61.7,47953],[61.7,48037],[61.7,48120],[61.7,48202],[61.7,48286],[61.7,48369],[61.7,48452],[61.7,48536],[61.7,48619],[61.7,48702],[61.7,48785],[61.7,48868],[61.7,48952],[61.7,49035],[61.7,49118],[61.7,49201],[61.7,49285],[61.7,49368],[61.7,49451],[61.7,49535],[61.7,49618],[61.7,49701],[61.7,49784],[61.7,49868],[61.7,49951],[63.2,50034],[63.3,50117],[63.3,50201],[63.3,50284],[63.3,50367],[63.3,50450],[63.3,50533],[64.3,50617],[66.8,50700],[68.2,50783],[69.3,50866],[70.4,50950],[71.2,51033],[72.3,51117],[73.3,51200],[74.3,51283],[74.9,51366],[75.6,51449],[75.8,51532],[75.8,51616],[75.8,51699],[75.8,51782],[75.8,51866],[75.8,51949],[80,52699],[80,52782],[80.2,52865],[80.2,52948],[80.2,53031],[80.2,53114],[80.2,53198],[80.2,53281],[80.2,53365],[80.2,53448],[79.6,53531],[78.4,53615],[75.3,53698],[72.1,53781],[68.9,53864],[65.4,53947],[63.9,54031],[63.8,54113],[63.8,54197],[63.8,54280],[63.8,54363],[63.8,54446],[63.8,54529],[63.8,54613],[63.8,54696],[63.8,54779],[63.8,54863],[63.8,54946],[63.8,55029],[63.8,55112],[63.8,55196],[67.4,55279],[76.6,55362],[81,55446],[84.3,55529],[88.4,55612],[91.3,55695],[94.2,55779],[95.2,55862]]",1,0,405.1661,407.5963,96.99853587,1.212,"[{""rating"":96.99853587115666,""responseTime"":1.212000000000046}]",space,1.891,,407.5964,Definitely yes,100,407.6023,,,[],,0,10,10,10,1,audio/Narrative8Situation1.wav,audio/Narrative7Situation1.wav,audio/Narrative6Situation1.wav,audio/Narrative5Situation1.wav,5,2,2,5,,,,,,,,,,,,,,,,,,,,,,,,,,,,,,,,,,,,,,,
,,,,,,661770012a3c83b4bdaff645,2024-05-13_11h33.41.171,group3.1-3.2-social-tom,2023.2.2,Win32,60.97560976,65c5074098b851296ff0b7ed,6642321c89aea44220fc507c,,,,,,,,,,,,,,,,,,,,,,,,,,,,,407.6029,1,audio/Narrative7Situation2.wav,410.6092,,410.6093,418.0859,"[[73.3,1165],[57.2,1249],[49.1,1332],[46,1416],[43,1498],[42.8,1582],[43,1665],[48.4,1748],[54.1,1831],[57.5,1916],[58.6,1998],[58.6,2081],[58.6,2164],[56.7,2248],[55.1,2331],[53.4,2414],[52.2,2498],[51.5,2581],[51.3,2663],[51.3,2747],[51.3,2830],[51.3,2913],[51.3,2997],[49.9,3081],[49,3163],[49,3248],[49,3330],[49,3413],[49,3497],[49,3580],[49,3663],[49,3746],[49,3829],[49,3913],[49,3996],[49,4079],[49,4163],[49,4246],[49,4329],[49,4413],[49,4495],[49,4579],[49,4662],[49,4745],[49,4828],[49,4912],[49,4995],[49,5078],[49,5161],[49,5245],[49,5328],[49,5411],[49,5494],[49,5578],[49,5661],[49,5744],[49,5828],[49,5911],[49,5994],[49,6077],[49,6161],[49,6244],[49,6327],[48.2,6411],[48.1,6493],[48.1,6577],[48.1,6660],[48.1,6743],[48.1,6826],[48.1,6910],[48.1,6993],[48.1,7076],[48.1,7160],[48.1,7243],[48.1,7326],[48.1,7410]]",1,0,418.0861,420.2834,98.02342606,1.3018,"[{""rating"":98.02342606149341,""responseTime"":1.3018000000119514}]",space,1.6482,,420.2834,Definitely yes,100,420.2853,,,[],,0,11,11,11,1,audio/Narrative8Situation2.wav,audio/Narrative7Situation2.wav,audio/Narrative6Situation2.wav,audio/Narrative5Situation2.wav,3,3,3,3,,,,,,,,,,,,,,,,,,,,,,,,,,,,,,,,,,,,,,,
,,,,,,661770012a3c83b4bdaff645,2024-05-13_11h33.41.171,group3.1-3.2-social-tom,2023.2.2,Win32,60.97560976,65c5074098b851296ff0b7ed,6642321c89aea44220fc507c,,,,,,,,,,,,,,,,,,,,,,,,,,,,,420.2855,1,audio/Narrative7Situation3.wav,428.2926,,428.2926,437.5507,"[[88.8,1748],[83.8,1831],[78.8,1914],[74.3,1998],[70.9,2081],[69.5,2165],[68.7,2247],[68.7,2330],[68.7,2413],[68.7,2497],[69.2,2581],[70.2,2665],[70.4,2747],[70.4,2830],[70.4,2913],[70.4,2996],[70.4,3080],[70.4,3163],[70.4,3247],[70.4,3329],[70.4,3413],[70.4,3496],[70.4,3580],[70.4,3663],[70.4,3745],[70.4,3829],[70.4,3912],[70.4,3996],[70.4,4079],[70.4,4162],[70.4,4245],[70.4,4329],[70.4,4412],[70.4,4495],[70.4,4579],[70.4,4661],[70.4,4745],[70.4,4828],[70.4,4911],[70.4,4994],[70.4,5078],[70.4,5161],[70.4,5244],[70.4,5328],[70.4,5410],[70.4,5494],[70.4,5577],[70.4,5660],[70.4,5744],[70.4,5827],[70.4,5910],[70.4,5994],[70.4,6076],[70.4,6160],[70.4,6243],[70.4,6326],[70.4,6410],[70.4,6493],[70.4,6576],[70.4,6660],[70.4,6743],[70.4,6826],[70.4,6909],[70.4,6993],[70.4,7076],[70.4,7159],[70.4,7242],[70.4,7325],[70.4,7409],[70.4,7492],[70.4,7575],[70.4,7659],[70.4,7742],[70.4,7824],[70.4,7908],[70.4,7991],[70.4,8074],[70.4,8158],[70.4,8241],[70.4,8324],[70.4,8408],[70.4,8491],[70.4,8574],[70.4,8657],[70.4,8741],[70.4,8824],[70.4,8907],[70.4,8991],[70.4,9074],[70.4,9157],[72.1,9240]]",1,0,437.5509,439.6976,50.73206442,1.3933,"[{""rating"":50.73206442166911,""responseTime"":1.393300000011891}]",space,1.6081,,439.6977,Partially,50,439.7006,,,[],,0,12,12,12,1,audio/Narrative8Situation3.wav,audio/Narrative7Situation3.wav,audio/Narrative6Situation3.wav,audio/Narrative5Situation3.wav,4,8,5,3,,,,,,,,,,,,,,,,,,,,,,,,,,,,,,,,,,,,,,,
,,,,,,661770012a3c83b4bdaff645,2024-05-13_11h33.41.171,group3.1-3.2-social-tom,2023.2.2,Win32,60.97560976,65c5074098b851296ff0b7ed,6642321c89aea44220fc507c,,,,,,,,,,,,,,,,,,,,,,,,,,,,,439.7008,1,audio/Narrative7Situation4.wav,442.7118,,442.7118,454.4343,"[[69.9,2663],[77.1,2747],[82.4,2830],[84.7,2913],[86.5,2997],[89.7,3080],[90,3163],[89.7,3247],[73.7,3330],[60.4,3413],[51.6,3496],[48,3580],[46,3663],[46,3745],[46,3829],[46,3912],[46,3995],[46,4079],[46,4162],[46,4245],[46,4329],[46.3,4411],[46.3,4495],[46.3,4579],[46.3,4662],[46.3,4744],[46.3,4828],[46.3,4911],[46.3,4995],[46.3,5078],[46.3,5161],[46.3,5244],[46.3,5328],[46.3,5411],[46.3,5494],[46.3,5578],[46.3,5661],[46.3,5744],[46.3,5827],[46.3,5910],[46.3,5994],[46.3,6077],[46.3,6160],[46.3,6243],[46.3,6327],[46.3,6410],[46.3,6493],[46.3,6576],[46.3,6660],[46.3,6743],[46.3,6826],[46.3,6909],[46.3,6992],[46.3,7075],[46.3,7159],[46.3,7242],[46.3,7326],[46.3,7409],[46.3,7492],[46.3,7575],[46.3,7658],[46.3,7742],[46.3,7825],[46.3,7908],[46.3,7991],[46.3,8075],[46.3,8158],[46.3,8241],[46.3,8324],[46.3,8407],[46.3,8491],[46.3,8574],[46.3,8658],[46.3,8741],[46.3,8824],[46.3,8908],[46.3,8991],[46.3,9074],[46.3,9157],[46.3,9240],[46.3,9324],[46.3,9407],[46.3,9490],[46.3,9573],[46.3,9657],[46.3,9740],[46.3,9824],[46.3,9906],[46.3,9990],[46.3,10073],[46.3,10156],[46.3,10239],[46.3,10322],[46.3,10406],[46.3,10489],[46.3,10572],[46.3,10655],[46.6,10739],[46.6,10822],[46.6,10905],[46.6,10989],[46.6,11072],[46.6,11155],[46.6,11238],[46.6,11322],[46.6,11405],[46.6,11488],[46.6,11571],[46.6,11655]]",1,0,454.4346,458.3461,98.02342606,2.7499,"[{""rating"":98.02342606149341,""responseTime"":2.749900000005937}]",space,3.3692,,458.3461,Definitely yes,100,458.349,,,[],,0,13,13,13,1,audio/Narrative8Situation4.wav,audio/Narrative7Situation4.wav,audio/Narrative6Situation4.wav,audio/Narrative5Situation4.wav,3,3,2,1,,,,,,,,,,,,,,,,,,,,,,,,,,,,,,,,,,,,,,,
,,,,,,661770012a3c83b4bdaff645,2024-05-13_11h33.41.171,group3.1-3.2-social-tom,2023.2.2,Win32,60.97560976,65c5074098b851296ff0b7ed,6642321c89aea44220fc507c,,,,,,,,,,,,,,,,,,,,,,,,,,,,,458.3492,1,audio/Narrative7Situation5.wav,463.3575,,463.3575,471.8332,"[[95.1,1416],[92.3,1499],[90.3,1583],[86.5,1666],[79.4,1750],[70.8,1832],[62,1915],[56.9,1998],[55.6,2082],[53.7,2165],[52.5,2248],[52.5,2331],[52.5,2414],[52.5,2497],[52.5,2581],[51,2665],[50,2747],[50,2830],[50,2914],[50,2998],[50,3080],[50,3163],[50,3247],[50,3330],[50,3413],[50,3497],[50,3580],[50,3663],[50,3747],[50,3830],[50,3913],[50,3996],[50,4079],[50,4163],[50,4246],[50,4329],[50,4413],[50,4496],[50,4579],[50,4663],[50,4745],[50,4829],[50,4912],[50,4995],[50,5078],[50,5162],[50,5245],[50,5328],[50,5412],[50,5495],[50,5578],[50,5662],[50,5745],[50,5827],[50,5910],[50,5994],[50,6078],[50,6161],[50,6244],[50,6328],[50,6411],[50,6494],[50,6577],[50,6660],[50,6744],[50,6827],[50,6910],[50,6993],[50,7077],[50,7160],[50,7243],[50,7326],[50,7409],[50,7493],[50,7576],[50,7659],[50,7742],[50,7826],[50,7909],[50,7993],[50,8076],[50,8159],[50,8242],[50,8325],[50,8409]]",1,0,471.8334,476.8117,1.830161054,3.9886,"[{""rating"":1.8301610541727686,""responseTime"":3.988600000023837}]",space,4.4334,,476.8117,Not at all,0,476.8144,,,[],,0,14,14,14,1,audio/Narrative8Situation5.wav,audio/Narrative7Situation5.wav,audio/Narrative6Situation5.wav,audio/Narrative5Situation5.wav,2,5,2,5,,,,,,,,,,,,,,,,,,,,,,,,,,,,,,,,,,,,,,,
,,,,,,661770012a3c83b4bdaff645,2024-05-13_11h33.41.171,group3.1-3.2-social-tom,2023.2.2,Win32,60.97560976,65c5074098b851296ff0b7ed,6642321c89aea44220fc507c,,,,,,,,,,,,,,,,,,,,,,,,,,,,,476.8146,1,audio/Narrative7Situation6.wav,479.8253,,479.8254,489.8002,"[[5.5,1998],[13.7,2081],[23.4,2165],[38.7,2248],[55.1,2331],[61.6,2414],[61.6,2497],[62.3,2581],[62.4,2663],[69.5,2748],[83.1,2830],[90.6,2913],[90.7,2997],[94.1,3080],[96.4,3163],[96.4,3246],[96.7,3329],[97.6,3412],[97.9,3496],[97.9,3579],[95.8,3663],[87.8,3746],[77.4,3829],[69.8,3912],[63,3995],[50.3,4079],[48.4,4162],[48,4245],[49.6,4329],[49.3,4412],[49.3,4495],[50.1,4578],[60.7,4662],[75.3,4745],[89.8,4828],[97.6,4911],[100,4994],[100,5077],[100,5161],[100,5244],[98.3,5328],[97.6,5411],[97.6,5494],[97.6,5577],[97.6,5660],[97.6,5744],[97.6,5827],[97.6,5910],[97.6,5994],[97.6,6077],[97.6,6160],[97.6,6243],[97.6,6326],[97.6,6410],[97.6,6494],[97.6,6577],[96.9,6660],[96.9,6743],[96.9,6826],[96.9,6909],[96.9,6992],[96.9,7076],[96.9,7159],[96.9,7242],[93.6,7326],[90.4,7409],[83.4,7493],[74.2,7576],[64.5,7659],[56.3,7743],[52,7826],[51.2,7909],[50,7992],[49.9,8075],[49.9,8158],[49.9,8241],[49.9,8324],[49.9,8408],[49.9,8491],[49.9,8575],[49.9,8658],[49.9,8741],[49.9,8824],[50.4,8908],[50.4,8990],[50.4,9074],[52.9,9158],[54,9241],[56,9324],[56,9407],[56,9490],[56.1,9573],[58.2,9657],[60.5,9741],[68.3,9824],[81.9,9907]]",1,0,489.8004,498.6405,90.55636896,8.0456,"[{""rating"":90.55636896046852,""responseTime"":8.04559999999401}]",space,8.2949,,498.6405,Partially,50,498.6434,,,[],,0,15,15,15,1,audio/Narrative8Situation6.wav,audio/Narrative7Situation6.wav,audio/Narrative6Situation6.wav,audio/Narrative5Situation6.wav,2,3,2,3,,,,,,,,,,,,,,,,,,,,,,,,,,,,,,,,,,,,,,,
,,,,,,661770012a3c83b4bdaff645,2024-05-13_11h33.41.171,group3.1-3.2-social-tom,2023.2.2,Win32,60.97560976,65c5074098b851296ff0b7ed,6642321c89aea44220fc507c,,,,,,,,,,,,,,,,,,,,,,,,,,,,,498.6435,1,audio/Narrative7Situation7.wav,503.6519,,503.652,520.835,"[[999,8],[999,82],[999,166],[999,249],[999,332],[999,416],[999,499],[999,582],[999,665],[999,749],[36.7,833],[28.6,915],[18.5,998],[13.3,1082],[7.8,1165],[7.7,1248],[24.1,1332],[46.6,1415],[50,1498],[51.5,1582],[52,1664],[52,1748],[52,1831],[52,1914],[51.6,1998],[51.6,2081],[51.6,2165],[51.6,2247],[51.6,2331],[50.7,2414],[50.6,2498],[50.6,2580],[50.6,2663],[50.6,2747],[50.6,2830],[50.6,2913],[69.9,2997],[86.2,3080],[91.7,3164],[94.8,3247],[98.3,3330],[98.9,3413],[98.9,3496],[98.9,3580],[98.9,3663],[98.9,3746],[98.9,3829],[98.9,3912],[98.9,3995],[98.9,4078],[98.9,4161],[98.9,4245],[95.1,4329],[82.5,4412],[67,4495],[59.7,4578],[56.4,4661],[51,4745],[50.7,4828],[50.7,4911],[50.7,4994],[50.7,5078],[50.7,5161],[50.7,5244],[50.7,5327],[50.7,5411],[50.7,5494],[50.7,5577],[50.7,5660],[50.7,5745],[50.7,5827],[50.7,5910],[50.7,5993],[50.7,6077],[50.7,6160],[50.7,6243],[50.7,6326],[50.7,6410],[50.7,6493],[50.7,6576],[54,6660],[60.7,6743],[64.1,6826],[67,6909],[67,6993],[73.9,7076],[81.8,7159],[86,7243],[90.6,7325],[94.4,7409],[95.7,7492],[96.6,7576],[99.3,7659],[99.3,7741],[99.3,7825],[99.3,7909],[98.5,7991],[97.1,8075],[96.6,8158],[96.6,8241],[96.6,8325],[96.6,8408],[94.4,8491],[81.2,8574],[64.5,8658],[49.1,8741],[43.6,8824],[43.3,8907],[43.3,8991],[43.3,9074],[43.3,9157],[43.3,9240],[43.3,9324],[43.3,9407],[44.1,9490],[45,9574],[45,9657],[45,9740],[46.2,9823],[46.3,9907],[46.3,9990],[46.3,10073],[46.3,10156],[46.3,10239],[46.3,10322],[46.3,10405],[46.3,10489],[46.3,10572],[46.3,10655],[46.3,10739],[46.3,10822],[46.3,10906],[46.3,10989],[46.3,11072],[46.3,11155],[51.2,11240],[71.1,11323],[86.6,11406],[92.6,11489],[96.7,11572],[98.2,11655],[98.2,11738],[98.8,11822],[99.8,11904],[99.8,11988],[99.8,12071],[99.8,12154],[99.8,12237],[99.9,12321],[100,12404],[100,12487],[100,12571],[100,12654],[97,12738],[92.5,12821],[88.2,12904],[84,12988],[82.9,13070],[82.9,13154],[82.9,13236],[82.9,13320],[82.9,13403],[82.9,13486],[82.9,13570],[72,13654],[64.2,13736],[57.2,13820],[53.2,13903],[51.6,13986],[51.6,14069],[51.6,14152],[51.6,14236],[51.6,14319],[53.4,14403],[61.1,14485],[70.9,14569],[82.5,14652],[90.7,14735],[97.4,14819],[100,14902],[100,14985],[100,15068],[100,15151],[100,15235],[100,15319],[100,15401],[99,15484],[95.4,15568],[92.8,15651],[92.3,15734],[92.3,15818],[92.3,15900],[94.5,15984],[96.1,16068],[97.9,16150],[98.3,16234],[98.6,16317],[99.2,16400],[99.2,16483],[99.2,16567],[99.2,16650],[99.2,16733],[99.2,16816],[99.2,16900],[99.2,16983],[99.2,17066],[99.2,17149]]",1,0,520.8352,525.4816,98.16983895,3.6585,"[{""rating"":98.16983894582722,""responseTime"":3.6585000000000036}]",space,4.096,,525.4817,Not at all,0,525.4846,,,[],,0,16,16,16,1,audio/Narrative8Situation7.wav,audio/Narrative7Situation7.wav,audio/Narrative6Situation7.wav,audio/Narrative5Situation7.wav,3,5,5,4,,,,,,,,,,,,,,,,,,,,,,,,,,,,,,,,,,,,,,,
,,,,,,661770012a3c83b4bdaff645,2024-05-13_11h33.41.171,group3.1-3.2-social-tom,2023.2.2,Win32,60.97560976,65c5074098b851296ff0b7ed,6642321c89aea44220fc507c,,,,,,,,,,,,,,,,,,,,,,,,,,,,,525.4851,1,audio/Narrative7Situation8.wav,527.4954,,527.4955,537.519,"[[88.9,1498],[84.7,1582],[74.9,1665],[58.1,1748],[50.4,1832],[45.6,1915],[44.3,1998],[44.3,2080],[44.3,2164],[44.6,2247],[47.4,2330],[47.4,2414],[47.4,2497],[47.4,2581],[47.4,2663],[48.2,2747],[48.2,2830],[48.2,2913],[48.2,2996],[48.2,3080],[48.2,3163],[48.2,3246],[48.2,3330],[48.2,3413],[48.2,3496],[48.2,3579],[48.2,3663],[48.2,3745],[48.2,3828],[48.2,3912],[48.2,3995],[48.2,4079],[48.2,4162],[48.2,4246],[48.2,4329],[48.2,4412],[48.2,4495],[48.2,4578],[48.2,4661],[48.2,4745],[48.2,4828],[48.2,4911],[48.2,4994],[48.2,5078],[48.2,5161],[48.2,5245],[48.2,5327],[48.2,5411],[48.2,5494],[48.2,5577],[48.2,5660],[48.2,5744],[48.2,5827],[48.2,5910],[48.2,5995],[48.2,6077],[48.2,6160],[48.2,6244],[48.2,6326],[48.2,6410],[48.2,6493],[48.2,6577],[48.4,6659],[48.4,6742],[48.5,6826],[48.5,6910],[48.5,6992],[48.5,7076],[48.5,7159],[48.5,7242],[48.5,7325],[50.3,7409],[50.3,7492],[50.4,7575],[53.7,7659],[54.8,7741],[54.8,7825],[54.8,7908],[54.8,7991],[54.8,8074],[54.8,8158],[54.8,8241],[54.8,8324],[54.8,8407],[61.7,8491],[100,8575],[100,8658],[100,8741],[100,8824],[100,8908],[100,8990],[100,9074],[100,9158],[100,9240],[100,9324],[100,9407],[100,9490],[100,9573],[100,9657],[100,9740],[100,9823],[100,9907],[100,9989]]",1,0,537.5192,540.649,97.43777452,2.3345,"[{""rating"":97.43777452415813,""responseTime"":2.3344999999999345}]",space,2.5855,,540.649,Partially,50,550.839,96.85212299,9.9035,"[{""rating"":94.80234260614935,""responseTime"":6.974300000011908},{""rating"":97.87701317715958,""responseTime"":9.019700000017906},{""rating"":96.85212298682285,""responseTime"":9.903500000000008}]",space,0,17,17,17,1,audio/Narrative8Situation8.wav,audio/Narrative7Situation8.wav,audio/Narrative6Situation8.wav,audio/Narrative5Situation8.wav,3,2,5,3,,,9.6465,,,,,,,,,,,,,,,,,,,,,,,,,,,,,,,,,,,,
,,,,,,661770012a3c83b4bdaff645,2024-05-13_11h33.41.171,group3.1-3.2-social-tom,2023.2.2,Win32,60.97560976,65c5074098b851296ff0b7ed,6642321c89aea44220fc507c,,,,,,,,,,,,,,,,,,,,,,,,,,,,,550.8394,1,audio/Narrative7Situation9.wav,552.8543,,552.8543,561.4953,"[[999,0],[999,82],[999,166],[999,249],[999,332],[999,416],[999,499],[999,582],[999,666],[999,748],[999,831],[999,915],[999,998],[999,1081],[999,1165],[49.6,1248],[43.6,1331],[41.9,1415],[41.2,1497],[57.6,1581],[69,1664],[73.6,1747],[77.2,1830],[81.9,1914],[89.2,1997],[93.3,2080],[96.9,2164],[100,2247],[100,2330],[100,2413],[100,2496],[100,2579],[100,2663],[100,2746],[99.9,2831],[98.9,2913],[98.9,2996],[98.9,3079],[98.9,3163],[98.9,3246],[98.9,3329],[98.9,3412],[98.9,3495],[98.9,3579],[98.9,3662],[98.9,3745],[98.9,3828],[98.9,3912],[98.9,3995],[98.9,4078],[98.9,4162],[98.9,4245],[98.9,4328],[98.9,4411],[98.9,4494],[98.9,4578],[98.9,4661],[98.9,4744],[98.5,4827],[98,4911],[98,4994],[98,5077],[97.9,5160],[97.9,5244],[97.9,5327],[97.9,5410],[97.9,5493],[98.3,5577],[98.3,5660],[98.3,5743],[98.3,5827],[98.3,5910],[98.3,5993],[98.3,6076],[98.3,6159],[98.3,6243],[98.3,6326],[98.3,6409],[98.3,6493],[98.3,6576],[98.3,6659],[83.5,6742],[82.4,7992],[84,8075],[87.5,8158],[91,8241],[97.7,8324],[100,8408],[100,8490],[100,8574]]",1,0,561.4955,564.2597,98.75549048,2.0606,"[{""rating"":98.75549048316252,""responseTime"":2.060599999993997}]",space,2.2177,,564.2598,Not at all,0,564.2652,,,[],,0,18,18,18,1,audio/Narrative8Situation9.wav,audio/Narrative7Situation9.wav,audio/Narrative6Situation9.wav,audio/Narrative5Situation9.wav,3,2,4,3,,,,,,,,,,,,,,,,,,,,,,,,,,,,,,,,,,,,,,,
,,,,,,661770012a3c83b4bdaff645,2024-05-13_11h33.41.171,group3.1-3.2-social-tom,2023.2.2,Win32,60.97560976,65c5074098b851296ff0b7ed,6642321c89aea44220fc507c,,,,,,,,,,,,,,,,,,,,,,,,,,,569.3055,571.8859,571.9063,2,audio/Narrative13Situation2.wav,571.9063,,571.9063,601.6564,"[[82.8,982],[73.1,1065],[60.2,1148],[57.8,1231],[57.8,1311],[57.8,1394],[57.8,1480],[66.7,1564],[67.7,1647],[67.7,1730],[67.7,1812],[67.7,1896],[67.7,1977],[67.7,2060],[67.7,2143],[67.7,2226],[67.7,2312],[67.7,2393],[67.7,2476],[67.7,2562],[67.7,2643],[67.7,2728],[67.7,2811],[67.7,2893],[67.7,2976],[67.7,3061],[67.7,3144],[67.7,3225],[67.7,3312],[67.7,3392],[67.7,3477],[67.7,3558],[67.7,3643],[67.7,3727],[67.7,3808],[67.7,3891],[67.7,3976],[67.7,4058],[67.7,4144],[67.7,4225],[67.7,4308],[67.7,4394],[67.7,4474],[67.7,4557],[67.7,4641],[67.7,4727],[67.7,4807],[67.7,4893],[67.7,4974],[60.4,5074],[59.8,5157],[59.8,5240],[59.8,5323],[57.8,5407],[53.2,5490],[53.2,5573],[53.2,5656],[53.2,5740],[53.2,5823],[53.2,5906],[53.2,5989],[53.2,6072],[53.2,6156],[53.2,6239],[53.2,6323],[53.2,6405],[53.2,6489],[53.2,6572],[53.2,6655],[53.2,6738],[53.2,6822],[53.2,6905],[53.2,6988],[53.2,7071],[53.2,7155],[53.2,7238],[53.2,7321],[53.2,7405],[53.2,7488],[53.2,7571],[53.2,7654],[53.2,7739],[53.2,7821],[53.2,7904],[53.2,7987],[53.2,8070],[53.2,8154],[53.2,8237],[53.2,8320],[53.2,8403],[53.2,8486],[53.2,8570],[53.2,8653],[53.2,8737],[53.2,8820],[53.2,8903],[53.2,8986],[53.2,9069],[53.2,9153],[53.2,9236],[53.2,9319],[53.2,9403],[53.2,9486],[53.2,9569],[53.2,9653],[53.2,9735],[53.2,9819],[53.2,9902],[53.2,9985],[53.2,10069],[53.2,10152],[53.2,10235],[53.2,10318],[53.2,10401],[53.2,10485],[53.2,10568],[53.2,10651],[53.2,10734],[53.2,10817],[53.2,10901],[53.2,10984],[53.2,11067],[53.2,11151],[53.2,11234],[53.2,11317],[53.2,11400],[53.2,11484],[53.2,11567],[53.2,11650],[53.2,11733],[53.2,11817],[53.2,11900],[53.2,11983],[53.2,12067],[53.2,12149],[53.2,12233],[53.2,12316],[53.2,12399],[53.2,12483],[53.2,12566],[53.2,12649],[53.2,12732],[53.2,12816],[53.2,12899],[53.2,12982],[53.2,13065],[53.2,13149],[53.2,13232],[53.2,13315],[53.2,13399],[53.2,13482],[53.2,13565],[53.2,13649],[53.2,13731],[53.2,13814],[53.2,13898],[53.2,13981],[53.2,14065],[53.2,14147],[53.2,14230],[53.2,14314],[53.2,14398],[53.2,14481],[53.2,14563],[53.2,14647],[53.2,14731],[53.2,14813],[53.2,14897],[53.2,14980],[53.2,15063],[53.2,15147],[53.2,15230],[53.2,15313],[53.2,15396],[53.2,15480],[53.2,15563],[53.2,15646],[53.2,15729],[53.2,15813],[53.2,15896],[53.2,15979],[53.2,16062],[53.2,16146],[53.2,16229],[53.2,16312],[53.2,16395],[53.2,16478],[53.2,16562],[53.2,16645],[53.2,16728],[53.2,16812],[53.2,16895],[53.2,16978],[53.2,17061],[53.2,17145],[53.2,17228],[53.2,17311],[53.2,17394],[53.2,17477],[53.2,17561],[53.2,17644],[53.2,17727],[53.2,17810],[53.2,17893],[53.2,17977],[51.2,18061],[50.6,18143],[50.6,18226],[48.8,18310],[48.5,18394],[48.5,18477],[48.5,18560],[44.4,18643],[36.4,18726],[26.6,18809],[14,18893],[7.7,18977],[5.9,19059],[0.8,19143],[0.7,19226],[0.7,19309],[0.7,19392],[0.7,19475],[0.7,19558],[0.7,19642],[0.7,19725],[0.7,19808],[0.7,19892],[0.7,19975],[0.7,20059],[0.7,20142],[0.7,20225],[0.7,20308],[0.7,20391],[0.7,20475],[0.7,20559],[0.7,20642],[0.7,20725],[1.7,20808],[2.1,20891],[2.1,20975],[2.1,21057],[2.1,21141],[2.1,21225],[4.9,21308],[6.7,21391],[8.3,21475],[10,21557],[10.6,21641],[11.9,21724],[13.3,21807],[14.6,21891],[16.5,21974],[19.8,22058],[25.1,22140],[29.5,22224],[33.5,22307],[37.8,22391],[41.4,22474],[44.9,22557],[46.3,22641],[46.5,22723],[46.5,22806],[46.5,22889],[46.5,22972],[47.5,23056],[47.8,23139],[47.8,23222],[47.8,23306],[47.8,23389],[47.8,23472],[47.8,23555],[47.8,23639],[47.8,23722],[47.8,23805],[47.8,23888],[47.8,23971],[47.8,24055],[47.8,24138],[47.8,24221],[47.8,24305],[47.8,24388],[47.8,24471],[47.8,24554],[47.8,24638],[47.8,24721],[47.8,24804],[47.8,24887],[47.8,24971],[47.8,25054],[47.8,25137],[47.8,25220],[47.8,25303],[47.8,25387],[47.8,25470],[47.8,25553],[47.8,25637],[47.8,25720],[47.8,25803],[47.8,25886],[47.8,25970],[47.8,26053],[47.8,26136],[47.8,26220],[47.8,26302],[47.8,26385],[47.8,26469],[47.8,26553],[47.8,26636],[47.8,26719],[47.8,26802],[47.8,26886],[47.8,26968],[47.8,27052],[47.8,27135],[47.8,27218],[47.8,27301],[47.8,27384],[47.8,27468],[47.8,27551],[47.8,27634],[47.8,27718],[47.8,27801],[47.8,27885],[47.8,27967],[47.8,28051],[47.8,28135],[47.8,28218],[47.8,28301],[47.8,28384],[47.8,28467],[47.8,28550],[47.8,28633],[47.8,28717],[47.8,28800],[47.8,28883],[47.8,28967],[47.8,29050],[47.8,29133],[47.8,29217],[47.8,29300],[47.8,29383],[47.8,29466],[47.8,29549],[47.8,29633],[47.8,29716]]",1,0,601.6569,601.6738,,,[],,,,601.6739,Partially,50,601.6766,,,[],,0,0,0,0,1,audio/Narrative13Situation2.wav,audio/Narrative13Situation2.wav,audio/Narrative13Situation2.wav,audio/Narrative13Situation2.wav,2,2,2,2,,,,,564.2664,569.29,space,4.4958,,,,,,,,,,,,,,,,,,,,,,,,,,,,,,,
,,,,,,661770012a3c83b4bdaff645,2024-05-13_11h33.41.171,group3.1-3.2-social-tom,2023.2.2,Win32,60.97560976,65c5074098b851296ff0b7ed,6642321c89aea44220fc507c,,,,,,,,,,,,,,,,,,,,,,,,,,,,,601.677,2,audio/Narrative6Situation1.wav,603.6877,,603.6877,630.2777,"[[47.7,83],[47.7,166],[47.7,249],[47.7,332],[47.7,415],[47.7,499],[47.7,582],[47.7,665],[47.7,749],[47.7,832],[47.7,915],[47.7,998],[47.7,1082],[47.7,1165],[47.7,1248],[47.7,1332],[47.7,1415],[47.7,1498],[47.7,1581],[47.7,1664],[47.7,1748],[47.7,1831],[47.7,1914],[47.7,1997],[47.7,2080],[47.7,2164],[47.7,2247],[47.7,2330],[47.7,2413],[47.7,2497],[47.7,2581],[47.7,2664],[47.7,2747],[47.7,2829],[47.7,2913],[47.7,2996],[47.7,3080],[47.7,3163],[47.7,3246],[47.7,3329],[47.7,3412],[47.7,3495],[47.7,3579],[47.7,3662],[47.7,3746],[47.7,3829],[48.5,3912],[49.3,3996],[50,4080],[50.9,4162],[50.9,4245],[50.9,4329],[50.9,4412],[50.9,4495],[50.9,4579],[50.9,4661],[50.7,4745],[50.7,4828],[50.7,4911],[50.7,4994],[50.7,5078],[50.7,5160],[50.7,5244],[50.7,5328],[50.7,5410],[50.7,5494],[50.7,5577],[50.7,5660],[50.7,5744],[47.4,5827],[1.7,5910],[1.5,6660],[13.8,6744],[30.7,6826],[38.9,6910],[48.2,6993],[60.5,7076],[83.7,7159],[91.7,7242],[97,7325],[98.8,7409],[98.8,7491],[99,7576],[99.3,7659],[99.3,7742],[99.3,7825],[99.3,7908],[99.3,7991],[99.3,8075],[99.2,8158],[99.2,8241],[99,8325],[99,8407],[99,8491],[99,8574],[99,8657],[99,8740],[99,8824],[99,8908],[99,8990],[99,9074],[99,9157],[99,9240],[99,9323],[99,9407],[99,9490],[99,9573],[99,9656],[99,9740],[99,9823],[99,9906],[99,9990],[99,10073],[99,10156],[99,10239],[99,10322],[99,10405],[99,10489],[99,10572],[99,10655],[99,10738],[99,10822],[99,10905],[99,10988],[99,11072],[99,11155],[99,11238],[99,11321],[99,11404],[99,11488],[99,11571],[99,11654],[99,11737],[99,11820],[99,11904],[99,11988],[99,12070],[99,12154],[99,12237],[99,12320],[98.5,12404],[98.3,12487],[98.3,12570],[98.3,12653],[98.2,12737],[94.5,12820],[86.7,12903],[76.5,12986],[64.1,13069],[57.9,13153],[54.4,13236],[51.9,13319],[51.9,13402],[51.9,13486],[51.9,13569],[51.9,13652],[51.9,13736],[51.3,13820],[51.2,13904],[51.2,13985],[51.2,14069],[51.2,14152],[51.2,14235],[51.2,14318],[51.2,14402],[51.2,14485],[51.2,14569],[51.2,14651],[51.2,14735],[51.2,14818],[51.2,14901],[51.2,14985],[51.2,15067],[51.2,15151],[51.2,15234],[51.2,15318],[51.2,15401],[51.2,15484],[51.2,15567],[51.2,15650],[51.2,15733],[51.2,15817],[51.2,15900],[51.2,15983],[51.2,16067],[51.2,16150],[51.2,16233],[51.2,16316],[51.2,16399],[51.2,16483],[51.2,16566],[51.2,16649],[51.2,16733],[51.2,16816],[51.2,16899],[51.2,16982],[51.2,17065],[51.2,17149],[51.2,17232],[51.2,17315],[51.2,17398],[51.2,17482],[51.2,17565],[51.2,17648],[51.2,17732],[51.2,17815],[51.2,17898],[51.2,17982],[51.2,18064],[51.2,18148],[51.2,18231],[51.2,18314],[51.2,18398],[51.2,18481],[51.2,18564],[51.2,18648],[51.2,18731],[51.2,18814],[51.2,18898],[50.7,18980],[50.7,19064],[50.7,19147],[50.7,19230],[50.7,19313],[50.7,19397],[50.7,19480],[50.7,19563],[50.7,19647],[50.7,19730],[50.7,19813],[50.7,19896],[50.7,19979],[50.7,20063],[25.1,20147],[41.1,21728],[41.2,21810],[41.2,21894],[43.1,21977],[44.7,22061],[44.7,22144],[45,22227],[45.2,22310],[45.2,22394],[45.2,22477],[45.2,22560],[45.2,22644],[46,22727],[46.6,22810],[46.6,22894],[46.6,22976],[47.1,23060],[47.8,23144],[48.4,23226],[48.5,23309],[49,23393],[49.4,23476],[49.4,23559],[49.4,23643],[49.4,23726],[49.4,23809],[49.4,23892],[49.4,23976],[49.4,24059],[49.4,24142],[49.4,24225],[49.4,24308],[49.4,24392],[49.4,24475],[49.4,24559],[49.4,24641],[49.4,24725],[49.4,24808],[49.4,24891],[49.4,24975],[49.4,25058],[49.4,25141],[49.4,25225],[49.4,25307],[49.4,25391],[49.4,25474],[49.4,25557],[49.4,25641],[49.4,25724],[49.4,25807],[49.4,25890],[49.4,25973],[49.4,26057],[49.4,26140],[49.4,26223],[49.4,26307],[49.4,26389],[49.4,26473],[49.4,26556]]",1,0,630.2777,636.3223,61.85944363,5.1125,"[{""rating"":61.85944363103953,""responseTime"":5.112500000000068}]",space,5.4959,,636.3224,Not at all,0,636.3251,,,[],,0,1,1,1,1,audio/Narrative7Situation1.wav,audio/Narrative8Situation1.wav,audio/Narrative5Situation1.wav,audio/Narrative6Situation1.wav,2,5,5,2,,,,,,,,,,,,,,,,,,,,,,,,,,,,,,,,,,,,,,,
,,,,,,661770012a3c83b4bdaff645,2024-05-13_11h33.41.171,group3.1-3.2-social-tom,2023.2.2,Win32,60.97560976,65c5074098b851296ff0b7ed,6642321c89aea44220fc507c,,,,,,,,,,,,,,,,,,,,,,,,,,,,,636.3253,2,audio/Narrative6Situation2.wav,639.3368,,639.3369,667.8416,"[[59.5,332],[59.1,415],[58.9,498],[58.9,582],[58.9,664],[58.9,747],[58.9,831],[58.9,914],[58.9,998],[58.8,1081],[58.6,1165],[58.5,1247],[58.5,1330],[58.5,1414],[58.5,1497],[58.5,1580],[58.5,1664],[58.5,1747],[58.5,1830],[58.5,1913],[58.5,1997],[58.5,2080],[58.5,2163],[58.5,2246],[58.5,2329],[58.5,2413],[58.5,2496],[58.5,2580],[58.5,2663],[58.5,2746],[58.5,2829],[58.5,2913],[58.5,2995],[58.5,3078],[58.5,3162],[58.5,3246],[58.5,3328],[58.5,3412],[58.5,3495],[58.5,3579],[58.5,3661],[58.5,3745],[58.5,3828],[58.3,3912],[58.3,3995],[58.3,4078],[58.3,4161],[58.3,4245],[57.9,4328],[56.7,4411],[55.7,4494],[53.1,4577],[51.9,4661],[51.9,6326],[52.5,6409],[57.2,6492],[70.1,6576],[78.8,6659],[82.5,6742],[87.3,6825],[91.1,6908],[94.1,6991],[95.7,7075],[96.3,7158],[96.6,7241],[96.6,7324],[96.6,7408],[96.6,7491],[96.6,7575],[96.6,7658],[96.6,7740],[96.6,7824],[96.6,7907],[96.6,7990],[96.6,8074],[96.6,8157],[96.6,8240],[96,8324],[96,8407],[96,8490],[96,8573],[96,8657],[96,8740],[96,8823],[96,8906],[96,8990],[96,9073],[96,9156],[96,9239],[96,9323],[96,9406],[96,9489],[96,9572],[96,9655],[96,9739],[96,9823],[96,9906],[96,9988],[96,10072],[96,10155],[96,10238],[96,10322],[96,10406],[96,10489],[96,10571],[96,10654],[94.5,10738],[94.1,10821],[93.9,10905],[93.2,10989],[92.2,11071],[91.4,11155],[90.6,11238],[89.7,11321],[88.9,11404],[87.8,11487],[86.9,11571],[85.4,11654],[82.4,11738],[77.7,11820],[72.4,11904],[70.5,11988],[68.3,12071],[64.5,12154],[60.1,12237],[57,12320],[54.7,12403],[52.8,12486],[52.5,12569],[52.5,12652],[52.5,12736],[52.5,12819],[51.5,12903],[51.3,12986],[51.3,13070],[51.3,13153],[51.3,13236],[51.3,13319],[51.3,13402],[51.3,13485],[51.3,13569],[51.3,13652],[55.3,13735],[61.7,13819],[69.5,13902],[75.2,13985],[80.9,14069],[84.4,14152],[87.8,14235],[92,14319],[95.7,14402],[98.9,14485],[100,14568],[100,14651],[100,14734],[100,14817],[100,14900],[100,14984],[100,15067],[100,15150],[100,15233],[100,15317],[100,15400],[100,15484],[100,15566],[100,15650],[100,15733],[100,15816],[100,15899],[100,15983],[100,16067],[100,16149],[100,16233],[100,16315],[100,16399],[100,16483],[100,16566],[100,16649],[100,16732],[100,16815],[100,16899],[100,16982],[100,17065],[100,17148],[100,17232],[100,17315],[100,17399],[100,17481],[100,17564],[100,17648],[100,17731],[100,17814],[100,17898],[100,17981],[100,18064],[100,18148],[100,18230],[100,18314],[100,18397],[100,18480],[100,18563],[100,18647],[100,18730],[100,18813],[100,18896],[100,18980],[100,19064],[100,19146],[100,19230],[100,19313],[100,19396],[100,19480],[100,19563],[100,19647],[99.8,19730],[97,19813],[93.2,19896],[84.8,19979],[74.3,20063],[64.2,20146],[57.2,20229],[52.6,20313],[48,21645],[48.4,21727],[48.4,21811],[48.7,21895],[50.1,21977],[49.6,22061],[49.6,22144],[49,22227],[48.5,22310],[48.5,22393],[48.1,22477],[47.5,22561],[47.1,22643],[47.2,22727],[47.4,22809],[47.4,22893],[47.7,22976],[47.7,23059],[47.7,23143],[47.7,23225],[47.7,23309],[47.7,23392],[47.7,23475],[47.7,23560],[47.7,23642],[47.7,23726],[47.7,23808],[47.7,23892],[47.7,23975],[47.7,24059],[47.7,24142],[47.7,24225],[47.7,24308],[47.7,24391],[47.7,24474],[47.8,24558],[55.9,27639],[76.8,27722],[90.4,27805],[100,27971],[100,28054],[100,28138],[100,28221],[100,28304],[100,28388],[100,28471]]",1,0,667.8419,672.6696,97.87701318,2.678,"[{""rating"":97.87701317715958,""responseTime"":2.6779999999999973}]",space,4.2905,,672.6696,Not at all,0,672.6714,,,[],,0,2,2,2,1,audio/Narrative7Situation2.wav,audio/Narrative8Situation2.wav,audio/Narrative5Situation2.wav,audio/Narrative6Situation2.wav,3,3,3,3,,,,,,,,,,,,,,,,,,,,,,,,,,,,,,,,,,,,,,,
,,,,,,661770012a3c83b4bdaff645,2024-05-13_11h33.41.171,group3.1-3.2-social-tom,2023.2.2,Win32,60.97560976,65c5074098b851296ff0b7ed,6642321c89aea44220fc507c,,,,,,,,,,,,,,,,,,,,,,,,,,,,,672.6716,2,audio/Narrative6Situation3.wav,677.6827,,677.6827,690.3025,"[[85,998],[78.6,1081],[75.5,1164],[69,1247],[49.3,1331],[28,1414],[25.1,1497],[25.1,1580],[28.5,1663],[40.3,1747],[52.2,1830],[55,1913],[56.3,1996],[56.3,2080],[56.3,2163],[55.7,2247],[54.8,2329],[54.8,2413],[54.8,2496],[54.8,2579],[54.8,2662],[54.8,2745],[54.8,2829],[54.8,2912],[56.3,2996],[60.4,3079],[67.6,3162],[75.6,3245],[83.1,3329],[86.2,3412],[86.3,3495],[86.3,3578],[86.3,3661],[85.3,3745],[73.7,3828],[64.9,3911],[59.4,3995],[53.7,4078],[49.9,4161],[49.1,4244],[49.1,4327],[49.1,4410],[49.1,4494],[49.1,4577],[49.1,4660],[49.1,4744],[49.1,4827],[49.1,4910],[49.1,4993],[49.6,5077],[52.5,5160],[52.5,5243],[52.5,5326],[54,5410],[57.8,5493],[58.5,5576],[59.4,5660],[60.2,5743],[60.5,5826],[60.5,5909],[55.6,5993],[50.9,6076],[46.2,6159],[43.4,6243],[43,6326],[43,6408],[41.4,6492],[40.5,6575],[39.3,6659],[38.4,6742],[37.4,6825],[35.5,6909],[33.3,6991],[31.3,7075],[31,7158],[31,7241],[31,7324],[31,7407],[31,7491],[31,7574],[31,7657],[31,7741],[31,7824],[31,7907],[31,7990],[31,8074],[31,8157],[31,8240],[31,8323],[31,8407],[31,8490],[31.3,8574],[37.8,8657],[46.9,8740],[56.1,8823],[65.7,8907],[81.3,8989],[93.8,9073],[100,9156],[100,9239],[100,9322],[100,9406],[100,9489],[100,9573],[94.1,9656],[85.6,9739],[76.9,9822],[71.1,9905],[65.1,9988],[60.8,10072],[57.9,10155],[56.1,10238],[56.1,10321],[56.1,10404],[56.1,10488],[56.1,10571],[56.1,10654],[56.1,10738],[56.1,10821],[56.1,10904],[56.1,10988],[56.1,11070],[56.1,11154],[56.1,11237],[56.1,11320],[56.1,11404],[56.1,11487],[56.1,11571],[56.1,11653],[56.1,11737],[56.1,11820],[56.1,11903],[56.1,11986],[56.1,12070],[56.1,12153],[73.6,12237],[88.9,12320],[96,12403],[99.5,12486],[100,12569]]",1,0,690.3026,692.1178,98.46266471,1.059,"[{""rating"":98.46266471449488,""responseTime"":1.058999999999969}]",space,1.2681,,692.1179,Definitely yes,100,692.1235,,,[],,0,3,3,3,1,audio/Narrative7Situation3.wav,audio/Narrative8Situation3.wav,audio/Narrative5Situation3.wav,audio/Narrative6Situation3.wav,8,4,3,5,,,,,,,,,,,,,,,,,,,,,,,,,,,,,,,,,,,,,,,
,,,,,,661770012a3c83b4bdaff645,2024-05-13_11h33.41.171,group3.1-3.2-social-tom,2023.2.2,Win32,60.97560976,65c5074098b851296ff0b7ed,6642321c89aea44220fc507c,,,,,,,,,,,,,,,,,,,,,,,,,,,,,692.1241,2,audio/Narrative6Situation4.wav,694.1335,,694.1336,706.7537,"[[72.3,82],[62.6,166],[66,249],[67.4,331],[69.3,415],[70.1,498],[70.6,581],[70.9,664],[70.2,748],[69.3,831],[69.2,914],[69.2,997],[68.9,1080],[68.6,1164],[68.6,1247],[68.6,1330],[68.6,1414],[68.6,1497],[68.6,1580],[68.6,1663],[68.6,1747],[66.1,1830],[64.6,1913],[62.6,1997],[60.2,2080],[58.8,2163],[57.6,2247],[57,2329],[56.3,2414],[55.4,2496],[54.7,2579],[54.7,2662],[52.8,2746],[51.2,2829],[50.7,2912],[50.7,2995],[50.7,3078],[50.7,3162],[50.7,3245],[50.7,3328],[50.7,3412],[50.7,3495],[50.7,3579],[50.7,3662],[50.7,3744],[50.7,3828],[50.7,3911],[50.7,3994],[50.7,4078],[50.7,4160],[50.7,4244],[50.7,4327],[50.7,4410],[50.7,4494],[50.7,4577],[50.7,4660],[50.7,4744],[50.7,4827],[50.7,4910],[50.7,4993],[50.7,5077],[50.7,5160],[50.7,5243],[50.7,5326],[50.7,5409],[50.7,5493],[50.7,5575],[50.7,5659],[50.7,5743],[50.7,5826],[50.7,5909],[50.7,5993],[50.7,6075],[50.7,6159],[50.7,6242],[50.7,6325],[50.7,6408],[50.7,6492],[50.7,6575],[50.7,6658],[50.7,6742],[50.7,6824],[50.7,6908],[50.7,6991],[50.7,7074],[50.7,7157],[50.7,7241],[50.7,7324],[50.7,7407],[50.7,7491],[50.7,7574],[50.7,7658],[50.7,7741],[51.2,7825],[52.3,7907],[52.3,7990],[52.3,8074],[52.3,8157],[52.2,8241],[51.9,8324],[51.9,8407],[51.9,8489],[51.8,8573],[51.8,8656],[51.8,8739],[51.8,8823],[51.2,8906],[51.2,8989],[51.2,9072],[51.2,9156],[51.2,9239],[51.2,9322],[51.2,9406],[51.2,9489],[50.7,9572],[50.7,9655],[50.7,9739],[50.7,9822],[50.7,9905],[50.7,9988],[50.7,10072],[50.7,10155],[50.7,10238],[50.7,10322],[50.7,10405],[50.7,10488],[50.7,10571],[50.7,10654],[50.7,10738],[50.7,10821],[50.7,10904],[50.7,10987],[50.7,11070],[50.7,11154],[50.7,11237],[50.7,11320],[50.7,11404],[50.7,11487],[50.7,11570],[50.7,11653],[50.7,11737],[50.7,11820],[50.7,11903],[50.7,11987],[50.7,12069],[50.7,12153],[50.7,12237],[50.7,12319],[50.7,12403],[50.7,12486],[50.7,12569]]",1,0,706.7538,709.5498,1.537335286,1.7468,"[{""rating"":1.5373352855051259,""responseTime"":1.746799999982045}]",space,2.2485,,709.5499,Partially,50,709.553,,,[],,0,4,4,4,1,audio/Narrative7Situation4.wav,audio/Narrative8Situation4.wav,audio/Narrative5Situation4.wav,audio/Narrative6Situation4.wav,3,3,1,2,,,,,,,,,,,,,,,,,,,,,,,,,,,,,,,,,,,,,,,
,,,,,,661770012a3c83b4bdaff645,2024-05-13_11h33.41.171,group3.1-3.2-social-tom,2023.2.2,Win32,60.97560976,65c5074098b851296ff0b7ed,6642321c89aea44220fc507c,,,,,,,,,,,,,,,,,,,,,,,,,,,,,709.5532,2,audio/Narrative6Situation5.wav,711.5651,,711.5651,719.5244,"[[2.4,915],[2.6,999],[2.6,1082],[2.6,1165],[5.2,1249],[5.5,1332],[5.5,1415],[5.5,1498],[5.5,1581],[5.5,1665],[5.5,1748],[5.5,1831],[5.5,1915],[5.5,1998],[5.5,2081],[5.5,2164],[5.5,2247],[5.5,2330],[5.5,2414],[5.5,2497],[5.5,2580],[3,2664],[2.9,2747],[2,2830],[0.5,2913],[0.5,2997],[0.5,3079],[0.5,3163],[0.5,3246],[0.5,3329],[0.5,3413],[0.5,3496],[0.5,3579],[0.5,3662],[0.5,3746],[0.5,3829],[0.5,3912],[0.5,3995],[0.5,4079],[0.5,4162],[0.5,4246],[0.5,4328],[0.5,4412],[0.5,4495],[0.5,4579],[0.5,4661],[0.5,4745],[0.5,4828],[0.5,4911],[0.5,4995],[0.5,5078],[0.5,5161],[0.5,5244],[0.5,5327],[0.5,5411],[0.5,5494],[0.5,5577],[0.5,5661],[0.5,5744],[0.5,5827],[0.5,5910],[0.5,5993],[0.5,6077],[0.5,6160],[0.5,6243],[0.5,6326],[0.5,6410],[0.5,6493],[0.5,6576],[0.5,6660],[0.5,6743],[0.5,6826],[0.5,6909],[0.5,6992],[0.5,7076],[0.5,7159],[0.5,7242],[0.5,7326],[0.5,7409],[0.5,7492],[0.5,7575],[0.5,7659],[0.5,7742],[0.5,7825],[0.5,7909]]",1,0,719.5245,721.6881,53.51390922,1.4725,"[{""rating"":53.51390922401171,""responseTime"":1.4724999999999682}]",space,1.624,,721.6882,Partially,50,725.618,51.31771596,3.8415,"[{""rating"":51.464128843338216,""responseTime"":2.479599999994093},{""rating"":51.317715959004396,""responseTime"":3.8414999999999964}]",space,0,5,5,5,1,audio/Narrative7Situation5.wav,audio/Narrative8Situation5.wav,audio/Narrative5Situation5.wav,audio/Narrative6Situation5.wav,5,2,5,2,,,3.3849,,,,,,,,,,,,,,,,,,,,,,,,,,,,,,,,,,,,
,,,,,,661770012a3c83b4bdaff645,2024-05-13_11h33.41.171,group3.1-3.2-social-tom,2023.2.2,Win32,60.97560976,65c5074098b851296ff0b7ed,6642321c89aea44220fc507c,,,,,,,,,,,,,,,,,,,,,,,,,,,,,725.6186,2,audio/Narrative6Situation6.wav,727.6328,,727.6329,738.7217,"[[49.3,999],[44.1,1082],[39.8,1166],[39.8,1249],[40.8,1332],[43,1415],[46.2,1498],[46.2,1581],[49,2164],[49.7,2248],[50.1,2331],[50.1,2413],[50.1,2497],[50.1,2580],[50.1,2663],[50.1,2747],[50.1,2830],[50.1,2913],[50.1,2996],[50.1,3079],[50.1,3163],[50.1,3246],[49.9,3331],[49.9,3413],[48.5,3496],[48.5,3579],[48.5,3663],[48.5,3745],[48.5,3829],[48.5,3912],[48.5,3995],[48.5,4079],[48.5,4162],[48.5,4245],[48.5,4328],[48.5,4412],[48.5,4495],[48.5,4579],[48.5,4661],[48.5,4744],[48.5,4829],[48.5,4911],[48.5,4994],[48.5,5078],[48.5,5161],[48.5,5244],[48.5,5327],[48.5,5411],[48.5,5494],[48.5,5577],[48.5,5660],[48.5,5743],[48.5,5827],[48.5,5910],[48.5,5993],[48.5,6077],[48.5,6160],[48.5,6242],[48.5,6326],[49,6410],[50.6,6493],[50.6,6576],[50.6,6660],[50.6,6743],[50.6,6826],[50.4,6910],[50.3,6992],[50.1,7076],[50.1,7159],[50.1,7242],[50.1,7325],[50.1,7408],[50.1,7492],[50.1,7575],[50.1,7658],[50.1,7741],[50.1,7825],[50.1,7908],[50.1,7991],[50.1,8074],[50.1,8158],[50.1,8241],[50.1,8324],[50.1,8408],[50.1,8491],[50.1,8575],[50.1,8657],[50.1,8741],[50.1,8824],[50.1,8907],[50.1,8991],[50.1,9073],[50.1,9156],[50.1,9240],[50.1,9323],[50.1,9407],[50.1,9490],[50.1,9573],[50.1,9656],[50.1,9740],[50.1,9823],[50.1,9906],[50.1,9989],[50.1,10073],[50.1,10156],[50.1,10239],[50.1,10322],[50.1,10406],[50.1,10489],[50.1,10572],[50.1,10655],[50.1,10739],[50.1,10822],[50.1,10905],[50.1,10988],[50.1,11072]]",1,0,738.7217,745.3818,46.77891654,5.7628,"[{""rating"":38.72620790629575,""responseTime"":1.4614000000059377},{""rating"":4.758418740849196,""responseTime"":2.834300000011922},{""rating"":42.82576866764275,""responseTime"":5.27800000000002},{""rating"":46.77891654465593,""responseTime"":5.762800000011907}]",space,6.1251,,745.3818,Partially,50,745.3835,,,[],,0,6,6,6,1,audio/Narrative7Situation6.wav,audio/Narrative8Situation6.wav,audio/Narrative5Situation6.wav,audio/Narrative6Situation6.wav,3,2,3,2,,,,,,,,,,,,,,,,,,,,,,,,,,,,,,,,,,,,,,,
,,,,,,661770012a3c83b4bdaff645,2024-05-13_11h33.41.171,group3.1-3.2-social-tom,2023.2.2,Win32,60.97560976,65c5074098b851296ff0b7ed,6642321c89aea44220fc507c,,,,,,,,,,,,,,,,,,,,,,,,,,,,,745.3836,2,audio/Narrative6Situation7.wav,750.3936,,750.3937,775.2526,"[[48.8,1082],[48.8,1166],[48.8,1248],[48.8,1332],[48.8,1415],[48.8,1498],[49.1,1582],[49.4,1666],[50,1748],[50.1,1831],[50.6,1915],[50.7,1998],[51.5,2082],[51.9,2165],[51.9,2247],[51.9,2331],[52,2415],[52.2,2498],[52.2,2581],[52.2,2664],[52.2,2748],[52.2,2830],[52.2,2913],[51.8,2997],[51.8,3663],[51.8,3747],[51.8,3829],[52.3,3913],[52.9,3996],[52.9,4079],[52.9,4162],[52.9,4246],[52.9,4329],[52.9,4412],[52.9,4495],[52,4579],[50.9,4663],[50.7,4745],[50,4829],[49.6,4912],[49.6,4995],[49.6,5078],[49.6,5161],[49.6,5245],[49.6,5327],[49.6,5411],[49.6,5494],[49.6,5577],[49.6,5661],[49.6,5744],[49.6,5827],[49.6,5910],[49.6,5994],[49.6,6077],[49.6,6160],[49.6,6243],[49.6,6326],[49.6,6410],[49.6,6493],[49.6,6577],[49.6,6660],[49.6,6743],[49.6,6826],[49.6,6909],[49.6,6993],[49.6,7076],[49.6,7159],[49.6,7242],[49.6,7326],[49.6,7409],[49.6,7492],[49.6,7576],[49.6,7659],[49.6,7742],[49.6,7826],[49.6,7909],[49.6,7992],[49.6,8076],[49.6,8159],[49.6,8241],[49.6,8324],[49.6,8408],[49.6,8491],[49.6,8575],[49.6,8658],[49.6,8741],[49.6,8824],[49.6,8908],[49.6,8991],[49.6,9074],[49.6,9158],[49.6,9240],[49.6,9324],[49.6,9408],[49.6,9490],[49.6,9573],[49.6,9657],[49.6,9740],[49.6,9823],[49.6,9906],[49.6,9990],[49.6,10074],[49.6,10156],[49.6,10240],[49.6,10322],[49.6,10406],[49.6,10489],[49.6,10573],[49.3,10656],[49.3,10739],[49.3,10823],[49.3,10906],[49.3,10989],[49.3,11072],[49.3,11155],[49.3,11239],[49.3,11322],[49.3,11406],[49.3,11489],[49.3,11572],[49.3,11655],[49.3,11738],[49.3,11822],[49.3,11905],[49.3,11988],[49.3,12071],[49.3,12154],[49.3,12238],[49.3,12321],[49.3,12404],[49.3,12488],[49.3,12570],[49.3,12653],[49.3,12737],[49.3,12821],[49.3,12903],[49.3,12987],[49.3,13070],[49.3,13153],[49.3,13237],[49.3,13320],[49.3,13403],[49.3,13486],[49.3,13569],[49.3,13653],[49.3,13736],[49.3,13819],[49.3,13903],[49.3,13986],[49.3,14069],[49.3,14152],[49.3,14235],[49.3,14319],[49.3,14403],[49.3,14485],[49.3,14569],[49.3,14652],[49.3,14735],[49.3,14818],[49.3,14901],[49.3,14985],[49.3,15068],[49.3,15152],[49.3,15235],[49.3,15318],[49.3,15401],[49.3,15484],[49.3,15568],[49.3,15651],[49.3,15734],[49.3,15817],[49.3,15901],[49.3,15983],[49.3,16067],[49.3,16150],[49.3,16234],[49.3,16317],[49.3,16400],[49.3,16483],[49.3,16567],[49.3,16650],[49.3,16733],[49.3,16817],[49.3,16899],[49.3,16983],[49.3,17066],[49.3,17149],[49.3,17232],[49.3,17316],[49.3,17399],[49.3,17482],[49.3,17566],[49.3,17649],[49.3,17733],[49.3,17815],[49.3,17899],[49.3,17982],[49.3,18065],[49.3,18148],[49.3,18231],[49.3,18315],[49.3,18398],[49.3,18481],[49.3,18565],[49.3,18648],[49.3,18731],[49.3,18815],[49.3,18898],[49.3,18981],[49.3,19064],[49.3,19147],[49.3,19231],[49.3,19314],[49.3,19397],[49.3,19481],[49.3,19564],[49.3,19647],[49.3,19730],[49.3,19814],[49.3,19897],[49.3,19980],[49.3,20064],[49.3,20146],[49.3,20230],[49.3,20313],[49.3,20397],[49.3,20479],[49.3,20563],[49.3,20647],[49.3,20730],[49.3,20813],[49.3,20896],[53.8,20986],[64.6,21062],[72.5,21145],[78.1,21229],[85.7,21313],[93.5,21396],[98,21479],[98.9,21562],[98.9,21645],[98.9,21728],[98.8,21811],[98,21895],[97.9,21978],[97.9,22061],[97.9,22145],[97.9,22228],[97.9,22311],[97.9,22394],[97.9,22478],[97.9,22561],[97.9,22644],[97.9,22727],[97.9,22810],[97.9,22893],[97.9,22977],[97.9,23060],[97.9,23143],[97.9,23227],[97.9,23310],[97.9,23393],[97.9,23476],[97.9,23560],[97.9,23643],[97.9,23726],[97.9,23809],[97.9,23893],[97.9,23976],[97.9,24060],[97.9,24142],[97.9,24226],[97.9,24309],[97.9,24392],[97.9,24476],[97.9,24559],[97.9,24642],[97.9,24725],[97.9,24809]]",1,0,775.2527,776.6016,97.43777452,1.0629,"[{""rating"":97.43777452415813,""responseTime"":1.062900000005925}]",space,0.8029,,776.6017,Not at all,0,776.6045,,,[],,0,7,7,7,1,audio/Narrative7Situation7.wav,audio/Narrative8Situation7.wav,audio/Narrative5Situation7.wav,audio/Narrative6Situation7.wav,5,3,4,5,,,,,,,,,,,,,,,,,,,,,,,,,,,,,,,,,,,,,,,
,,,,,,661770012a3c83b4bdaff645,2024-05-13_11h33.41.171,group3.1-3.2-social-tom,2023.2.2,Win32,60.97560976,65c5074098b851296ff0b7ed,6642321c89aea44220fc507c,,,,,,,,,,,,,,,,,,,,,,,,,,,,,776.6048,2,audio/Narrative6Situation8.wav,781.6134,,781.6135,788.4733,"[[41.7,1498],[42.5,1581],[42.8,1664],[44,1748],[44.3,1830],[46.6,1915],[49.9,1998],[52,2081],[52.5,2164],[52.5,2247],[51.9,2330],[50.7,2414],[50.1,2497],[50.1,2580],[50.1,2663],[50.1,2746],[50.1,2830],[50.1,2913],[50.1,2996],[50.1,3079],[50.1,3163],[50.1,3246],[50.1,3330],[50.1,3412],[50.1,3496],[50.1,3579],[50.1,3662],[50.1,3746],[50.1,3829],[50.1,3912],[50.1,3996],[50.1,4079],[50.1,4163],[50.1,4245],[50.1,4328],[50.1,4412],[50.1,4495],[50.1,4578],[50.1,4661],[50.1,4745],[50.1,4828],[50.1,4912],[50.1,4994],[50.1,5077],[50.1,5161],[50.1,5244],[50.1,5328],[50.1,5410],[50.1,5495],[50.1,5577],[50.1,5660],[50.1,5744],[50.1,5827],[50.1,5910],[50.1,5994],[50.1,6077],[50.1,6160],[50.1,6243],[50.1,6327],[50.1,6410],[50.1,6493],[50.1,6576],[50.1,6660],[50.1,6743],[50.1,6826]]",1,0,788.4736,792.8357,1.098096633,3.9092,"[{""rating"":2.8550512445095153,""responseTime"":2.0710999999940896},{""rating"":1.098096632503659,""responseTime"":3.909199999988118}]",space,3.8202,,792.8357,Definitely yes,100,792.8387,,,[],,0,8,8,8,1,audio/Narrative7Situation8.wav,audio/Narrative8Situation8.wav,audio/Narrative5Situation8.wav,audio/Narrative6Situation8.wav,2,3,3,5,,,,,,,,,,,,,,,,,,,,,,,,,,,,,,,,,,,,,,,
,,,,,,661770012a3c83b4bdaff645,2024-05-13_11h33.41.171,group3.1-3.2-social-tom,2023.2.2,Win32,60.97560976,65c5074098b851296ff0b7ed,6642321c89aea44220fc507c,,,,,,,,,,,,,,,,,,,,,,,,,,,,,792.8389,2,audio/Narrative6Situation9.wav,796.8481,,796.8482,806.8055,"[[5.5,1165],[5.5,1248],[5.5,1332],[5.5,1415],[5.5,1498],[5.5,1581],[5.5,1665],[5.5,1748],[5.5,1831],[5.5,1914],[5.5,1998],[5.5,2081],[5.5,2164],[5.5,2247],[5.5,2330],[5.5,2414],[5.5,2497],[5.5,2581],[5.5,2663],[5.5,2747],[5.5,2830],[5.5,2914],[5.5,2997],[5.5,3080],[5.5,3163],[5.5,3246],[5.5,3329],[5.5,3413],[5.5,3496],[5.5,3580],[5.5,3662],[5.5,3746],[5.5,3829],[5.5,3913],[5.5,3995],[5.5,4079],[5.5,4162],[5.5,4245],[5.5,4329],[5.5,4412],[5.5,4495],[5.5,4579],[5.5,4662],[5.5,4745],[5.5,4828],[4.2,4918],[4,4995],[4,5078],[4,5162],[4,5245],[4,5328],[2.7,5412],[2.4,5494],[2.4,5578],[2.4,5661],[1.7,5745],[1.7,5827],[1.7,5910],[1.7,5994],[1.7,6077],[1.7,6161],[1.7,6244],[1.7,6327],[1.7,6410],[1.7,6494],[1.7,6577],[1.7,6660],[1.7,6743],[1.7,6827],[1.7,6909],[1.7,6993],[1.7,7076],[1.7,7159],[1.7,7243],[1.7,7326],[1.7,7409],[1.7,7493],[1.7,7575],[1.7,7658],[1.7,7742],[1.7,7825],[1.7,7908],[1.7,7992],[1.7,8075],[1.7,8158],[1.7,8242],[1.7,8325],[1.7,8408],[1.7,8491],[1.7,8574],[1.7,8658],[1.7,8741],[1.7,8824],[1.7,8908],[1.7,8991],[1.7,9074],[1.7,9158],[1.7,9241],[1.7,9324],[1.7,9407],[1.7,9490],[1.7,9573],[1.7,9656],[1.7,9741],[1.7,9823],[1.7,9906]]",1,0,806.8057,809.1868,0,2.0435,"[{""rating"":1.8301610541727686,""responseTime"":1.2777000000178305},{""rating"":0,""responseTime"":2.0434999999999945}]",space,1.8316,,809.1869,Not at all,0,809.1896,,,[],,0,9,9,9,1,audio/Narrative7Situation9.wav,audio/Narrative8Situation9.wav,audio/Narrative5Situation9.wav,audio/Narrative6Situation9.wav,2,3,3,4,,,,,,,,,,,,,,,,,,,,,,,,,,,,,,,,,,,,,,,
,,,,,,661770012a3c83b4bdaff645,2024-05-13_11h33.41.171,group3.1-3.2-social-tom,2023.2.2,Win32,60.97560976,65c5074098b851296ff0b7ed,6642321c89aea44220fc507c,,,,,,,,,,,,,,,,,,,,,,,,,,,,,809.1897,2,audio/Narrative5Situation1.wav,814.1979,,814.198,827.4851,"[[32.3,1250],[32.7,1332],[32.9,1415],[33,1498],[33,1582],[33,1665],[33,1748],[33,1832],[33,1914],[33,1998],[37.3,2081],[37.6,2164],[37.6,2248],[37.6,2331],[37.6,2414],[37.6,2497],[37.6,2581],[37.6,2664],[37.6,2747],[37.6,2831],[37.6,2914],[37.6,2996],[37.6,3080],[37.6,3163],[37.6,3246],[37.6,3329],[37.6,3413],[37.6,3496],[37.6,3580],[37.6,3662],[37.6,3746],[37.6,3829],[37.6,3912],[37.6,3996],[37.6,4079],[37.6,4162],[37.6,4245],[37.6,4329],[37.6,4412],[37.6,4495],[37.6,4578],[37.6,4662],[37.6,4745],[37.6,4828],[37.6,4911],[37.6,4995],[37.6,5078],[37.6,5162],[37.6,5245],[37.6,5328],[37.6,5411],[37.6,5495],[37.6,5578],[37.6,5661],[37.6,5744],[37.6,5827],[37.6,5911],[37.6,5994],[37.6,6077],[37.6,6160],[37.6,6243],[37.6,6326],[37.6,6410],[37.6,6493],[37.6,6576],[37.6,6659],[37.6,6743],[37.6,6826],[37.6,6909],[37.6,6993],[37.6,7076],[37.6,7159],[37.6,7243],[37.6,7326],[37.6,7409],[37.6,7492],[37.6,7575],[37.6,7659],[37.6,7742],[37.6,7825],[37.6,7908],[37.6,7991],[37.6,8075],[37.6,8158],[37.6,8241],[37.6,8325],[37.6,8408],[37.6,8491],[37.6,8574],[37.6,8658],[37.6,8741],[37.6,8824],[37.6,8907],[37.6,8991],[37.6,9074],[37.6,9157],[37.6,9240],[37.6,9324],[37.6,9407],[37.6,9490],[37.6,9573],[37.6,9657],[37.6,9740],[37.6,9823],[37.6,9907],[37.6,9989],[37.6,10073],[37.6,10156],[37.6,10239],[37.6,10323],[37.6,10406],[37.6,10489],[37.6,10572],[37.6,10656],[37.6,10739],[37.6,10822],[37.6,10905],[37.6,10988],[37.6,11072],[37.6,11155],[37.6,11238],[37.6,11322],[37.6,11404],[37.6,11488],[37.6,11571],[37.6,11654],[37.6,11738],[37.6,11821],[37.6,11904],[37.6,11988],[37.6,12071],[37.6,12154],[37.6,12237],[37.6,12321],[37.6,12404],[37.6,12487],[37.6,12571],[37.6,12654],[37.6,12737],[37.6,12820],[37.6,12903],[37.6,12987],[37.6,13070],[37.6,13154],[37.6,13236]]",1,0,827.4852,838.258,2.855051245,7.9825,"[{""rating"":95.97364568081991,""responseTime"":2.0720000000000027},{""rating"":2.8550512445095153,""responseTime"":7.982499999999959}]",space,10.2313,,838.258,Not at all,0,838.2755,,,[],,0,10,10,10,1,audio/Narrative8Situation1.wav,audio/Narrative7Situation1.wav,audio/Narrative6Situation1.wav,audio/Narrative5Situation1.wav,5,2,2,5,,,,,,,,,,,,,,,,,,,,,,,,,,,,,,,,,,,,,,,
,,,,,,661770012a3c83b4bdaff645,2024-05-13_11h33.41.171,group3.1-3.2-social-tom,2023.2.2,Win32,60.97560976,65c5074098b851296ff0b7ed,6642321c89aea44220fc507c,,,,,,,,,,,,,,,,,,,,,,,,,,,,,838.2759,2,audio/Narrative5Situation2.wav,841.288,,841.288,870.7606,"[[4.3,2914],[8.4,2998],[8.4,3080],[8.4,3164],[8.4,3246],[8.4,3330],[8.4,3413],[8.4,3497],[8.3,3580],[6.7,3663],[6.4,3746],[4.6,3830],[4.5,3912],[4.3,3995],[1.2,4080],[1.2,4162],[1.2,4246],[0.5,4329],[0.2,4413],[0.5,7576],[5.6,7659],[15,7743],[29.2,7826],[38.3,7909],[41.1,7993],[44.9,8076],[100,8908],[99.3,8992],[97.6,9075],[97,9158],[97,9241],[97,9324],[97,9407],[97,9490],[97,9573],[97,9657],[96.6,9741],[95.5,9824],[95.1,9907],[94.5,9990],[94.5,10073],[94.5,10156],[94.2,10240],[92.5,10323],[91.7,10406],[91.7,10489],[91.7,10572],[89.2,10656],[80.5,10740],[80.2,10822],[80.2,10906],[80.3,10989],[86,11073],[91.1,11155],[94.9,11239],[97.4,11322],[98.3,11405],[98.3,11488],[98.3,11572],[98.3,11655],[97.3,11739],[97,11821],[97,11905],[97,11988],[97,12071],[97,12154],[97,12238],[97,12321],[97,12404],[97,12488],[97,12571],[97,12654],[97,12737],[97,12820],[97,12903],[97,12987],[97,13070],[97,13153],[97,13237],[97,13320],[97,13404],[97,13487],[97,13569],[97,13653],[97,13736],[97,13819],[96.7,13903],[96.1,13986],[96,14069],[96,14152],[96,14236],[96,14319],[96,14402],[96,14485],[96,14569],[96,14652],[96,14736],[96,14819],[96,14902],[96,14985],[96,15068],[96,15151],[96,15235],[96,15318],[96,15401],[96,15485],[96,15567],[96,15651],[96,15734],[96,15817],[96,15901],[96,15984],[96,16067],[96,16151],[96,16234],[96,16317],[95.7,16400],[95.2,16483],[95.2,16567],[95.2,16649],[95.2,16733],[97.9,16817],[100,16900],[100,16983],[100,17066],[100,17149],[100,17233],[100,17316],[99.9,17399],[99.9,17482],[99.5,17566],[98.8,17649],[98.8,17732],[98.6,17815],[98,17899],[98,17982],[98,18065],[98,18148],[98,18231],[98,18315],[98,18398],[98,18481],[98,18565],[98,18648],[98,18731],[98,18814],[98,18897],[98,18981],[98,19064],[98,19147],[98,19231],[98,19314],[98,19398],[98,19480],[98,19563],[98,19647],[98,19731],[98,19813],[98,19897],[98,19980],[98,20063],[98,20147],[98,20230],[98,20313],[98,20397],[97.7,20479],[97.7,20563],[97.7,20646],[97.7,20729],[97.7,20812],[97.7,20896],[97.7,20979],[97.7,21063],[97.7,21146],[97.7,21229],[97.7,21312],[97.7,21395],[97.7,21478],[97.7,21562],[97.7,21645],[97.7,21728],[97.7,21812],[97.7,21895],[97.7,21978],[97.7,22061],[97.7,22145],[97.7,22228],[97.7,22311],[97.7,22394],[97.7,22478],[97.7,22561],[97.7,22644],[97.7,22728],[97.7,22811],[97.7,22894],[97.7,22977],[97.7,23060],[97.7,23144],[97.7,23227],[97.7,23310],[97.7,23394],[97.7,23477],[97.7,23560],[97.7,23644],[97.7,23727],[97.7,23809],[97.7,23893],[97.7,23976],[97.7,24060],[97.7,24143],[97.7,24226],[97.7,24309],[97.7,24393],[97.7,24476],[97.7,24559],[97.7,24643],[97.7,24726],[97.7,24809],[97.7,24892],[97.7,24976],[97.7,25059],[97.7,25142],[97.7,25226],[97.7,25308],[97.7,25392],[97.7,25475],[97.7,25558],[97.7,25641],[97.7,25725],[97.7,25807],[97.7,25891],[97.7,25974],[97.7,26057],[97.7,26141],[97.7,26224],[97.7,26308],[97.7,26390],[97.7,26474],[97.7,26557],[97.7,26640],[97.7,26724],[97.7,26807],[97.7,26890],[97.7,26974],[97.7,27056],[97.7,27140],[97.7,27223],[97.7,27307],[97.7,27389],[97.7,27473],[97.7,27556],[97.7,27639],[97.7,27723],[97.7,27806],[97.7,27889],[97.7,27973],[97.7,28055],[97.7,28139],[97.7,28222],[97.7,28305],[97.7,28389],[97.7,28472],[97.7,28555],[97.7,28638],[97.7,28722],[97.7,28805],[96.7,28889],[83.8,28972],[74,29055],[65.5,29138],[56.3,29222],[51.6,29305],[46.6,29388],[40,29472]]",1,0,870.7609,872.8741,0.805270864,1.2385,"[{""rating"":0.8052708638360162,""responseTime"":1.2385000000000446}]",space,1.563,,872.8742,Partially,50,872.877,,,[],,0,11,11,11,1,audio/Narrative8Situation2.wav,audio/Narrative7Situation2.wav,audio/Narrative6Situation2.wav,audio/Narrative5Situation2.wav,3,3,3,3,,,,,,,,,,,,,,,,,,,,,,,,,,,,,,,,,,,,,,,
,,,,,,661770012a3c83b4bdaff645,2024-05-13_11h33.41.171,group3.1-3.2-social-tom,2023.2.2,Win32,60.97560976,65c5074098b851296ff0b7ed,6642321c89aea44220fc507c,,,,,,,,,,,,,,,,,,,,,,,,,,,,,872.8772,2,audio/Narrative5Situation3.wav,875.8877,,875.8878,889.8076,"[[1,1168],[1.4,1252],[1.5,1332],[1.5,1415],[1.5,1501],[1.5,1584],[1.5,1665],[1.5,1750],[1.5,1831],[1.5,1917],[1.5,1998],[1.5,2081],[1.5,2167],[1.5,2247],[1.5,2333],[1.5,2417],[1.5,2499],[1.5,2583],[1.5,2664],[1.5,2749],[1.5,2832],[1.5,2916],[1.5,2999],[1.5,3082],[1.5,3163],[1.5,3246],[1.5,3332],[1.5,3416],[1.5,3500],[1.5,3580],[1.5,3663],[1.5,3746],[1.5,3832],[1.5,3912],[1.5,3998],[1.5,4079],[1.5,4164],[1.5,4248],[1.5,4331],[1.5,4412],[1.5,4497],[1.5,4578],[1.5,4664],[1.5,4748],[1.5,4828],[1.5,4914],[1.5,4998],[1.5,5078],[1.5,5162],[1.5,5244],[1.5,5328],[1.5,5413],[1.5,5497],[25.5,5594],[83.8,5761],[100,6260],[100,6343],[99.6,6427],[99.6,6509],[99.6,6593],[99.6,6676],[99.6,6759],[99.5,6843],[99.5,6926],[99.3,7009],[99.3,7093],[99.3,7175],[99.3,7259],[99.3,7342],[99.3,7425],[99.3,7508],[99.3,7592],[99.3,7675],[99.3,7758],[99.3,7842],[99.3,7925],[99.3,8008],[99.3,8091],[99.3,8174],[99.3,8258],[99.3,8341],[99.3,8425],[99.3,8508],[99.3,8591],[99.3,8674],[99.3,8757],[99.3,8841],[99.3,8924],[99.3,9007],[99.3,9091],[99.3,9174],[99.3,9257],[99.3,9340],[99.3,9424],[99.3,9507],[99.3,9590],[99.3,9673],[99.3,9756],[99.3,9839],[99.3,9923],[99.3,10006],[99.3,10089],[99.3,10173],[99.3,10256],[99.3,10339],[99.3,10423],[99.3,10506],[99.3,10589],[99.3,10672],[99.3,10755],[99.3,10839],[99.3,10922],[99.3,11005],[99.3,11088],[99.3,11172],[99.3,11255],[99.3,11339],[99.3,11421],[99.3,11505],[99.3,11588],[99.3,11672],[99.3,11755],[99.3,11837],[99.3,11921],[99.3,12004],[99.3,12087],[99.3,12171],[99.3,12254],[99.3,12337],[99.3,12421],[99.3,12504],[99.3,12587],[99.3,12670],[99.3,12753],[99.3,12837],[99.3,12919],[99.3,13004],[99.3,13086],[99.3,13169],[99.3,13253],[99.3,13336],[99.3,13419],[99.3,13502],[99.3,13586],[99.3,13669],[99.3,13753],[94.9,13836],[91.4,13919]]",1,0,889.8077,891.9384,98.02342606,0.8877,"[{""rating"":98.02342606149341,""responseTime"":0.8877000000178441}]",space,1.5803,,891.9384,Not at all,0,891.9413,,,[],,0,12,12,12,1,audio/Narrative8Situation3.wav,audio/Narrative7Situation3.wav,audio/Narrative6Situation3.wav,audio/Narrative5Situation3.wav,4,8,5,3,,,,,,,,,,,,,,,,,,,,,,,,,,,,,,,,,,,,,,,
,,,,,,661770012a3c83b4bdaff645,2024-05-13_11h33.41.171,group3.1-3.2-social-tom,2023.2.2,Win32,60.97560976,65c5074098b851296ff0b7ed,6642321c89aea44220fc507c,,,,,,,,,,,,,,,,,,,,,,,,,,,,,891.9414,2,audio/Narrative5Situation4.wav,892.9542,,892.9542,913.351,"[[95.4,666],[89.2,749],[47.8,1332],[63.9,1415],[68.7,1498],[76.8,1582],[81.3,1665],[81.3,1748],[81.3,1831],[81.3,1914],[80.5,1998],[79.1,2081],[76.5,2165],[74.9,2247],[74.9,2331],[74.9,2414],[74.9,2497],[74.9,2580],[74.9,2663],[74.9,2746],[74.9,2830],[74.9,2913],[74.9,2997],[74.9,3080],[74.9,3163],[74.9,3246],[74.9,3329],[74.9,3412],[74.9,3496],[74.9,3579],[74.9,3663],[74.9,3746],[74.9,3829],[74.9,3912],[74.9,3995],[74.9,4079],[74.9,4162],[74.9,4245],[74.9,4329],[74.9,4412],[74.9,4495],[74.9,4578],[74.9,4662],[74.9,4745],[74.9,4828],[74.9,4912],[74.9,4995],[74.9,5078],[74.9,5162],[74.9,5244],[74.9,5328],[74.9,5411],[74.9,5495],[74.9,5577],[73.7,5665],[70.5,5744],[70.8,5828],[74.5,5911],[74.5,5994],[74.5,6078],[74.5,6160],[74.5,6243],[74.9,6327],[73.6,6410],[73,6493],[72.1,6577],[72.1,6660],[72.1,6743],[72.1,6827],[72.1,6910],[71.5,6993],[71.5,7076],[71.5,7159],[71.5,7242],[71.5,7326],[71.5,7410],[71.5,7492],[71.5,7576],[71.5,7659],[71.5,7742],[71.5,7825],[71.5,7908],[71.5,7992],[71.5,8076],[71.5,8158],[71.5,8241],[71.5,8325],[71.5,8408],[71.5,8491],[71.5,8574],[71.5,8658],[71.5,8741],[71.5,8825],[71.5,8908],[71.5,8991],[71.5,9074],[71.5,9157],[71.5,9241],[71.5,9324],[71.5,9407],[71.5,9490],[71.5,9573],[71.5,9657],[71.5,9740],[71.5,9823],[71.5,9907],[71.5,9990],[71.5,10073],[71.5,10156],[71.5,10239],[71.5,10323],[71.5,10406],[71.5,10489],[71.5,10572],[71.5,10656],[71.5,10739],[71.5,10822],[71.5,10905],[71.5,10989],[71.5,11072],[71.5,11155],[71.5,11238],[71.5,11322],[71.5,11405],[71.5,11488],[71.5,11572],[71.5,11654],[71.5,11738],[71.5,11821],[71.5,11905],[71.5,11988],[71.5,12071],[71.5,12155],[71.5,12237],[71.5,12321],[71.5,12404],[71.5,12487],[71.5,12571],[71.5,12653],[71.5,12737],[71.5,12820],[71.5,12903],[71.5,12986],[71.5,13070],[69.9,13153],[68.6,13236],[68.6,13320],[68.6,13403],[68.6,13486],[63,13570],[23.6,13653],[12.1,13736],[9.2,13819],[9.2,13902],[9.2,13985],[9.2,14069],[9.2,14153],[9.2,14236],[9.2,14318],[9.2,14402],[9.2,14486],[9.2,14569],[9.2,14652],[9.2,14735],[9.2,14818],[9.2,14902],[9.2,14985],[9.2,15068],[9.2,15152],[9.2,15235],[9.2,15318],[9.2,15401],[9.2,15484],[9.2,15568],[10,15651],[10.8,15734],[11.8,15817],[12.7,15900],[13.4,15984],[14.3,16067],[14.9,16150],[14.9,16233],[14.9,16317],[14.9,16400],[14.9,16483],[14.9,16567],[14.9,16649],[14.9,16733],[14.9,16817],[16.8,16900],[19.1,16983],[20,17066],[20.7,17149],[21.6,17233],[22.3,17316],[23.1,17399],[23.4,17482],[23.4,17565],[23.4,17649],[24.1,17732],[25.3,17816],[26.1,17899],[27,17982],[27.9,18065],[28.9,18149],[29.9,18232],[32,18315],[34.2,18398],[35.4,18481],[36.2,18565],[39.6,18649],[42.4,18731],[43.4,19480],[43,19564],[42.7,19647],[43.3,19731],[44.4,19813],[44.7,19896],[44.7,19979],[46,20063],[48.7,20146],[51,20230],[61.6,20313],[77.2,20396]]",1,0,913.3511,914.9497,99.4875549,0.8241,"[{""rating"":99.48755490483163,""responseTime"":0.8240999999940186}]",space,1.05,,914.9497,Not at all,0,914.9515,,,[],,0,13,13,13,1,audio/Narrative8Situation4.wav,audio/Narrative7Situation4.wav,audio/Narrative6Situation4.wav,audio/Narrative5Situation4.wav,3,3,2,1,,,,,,,,,,,,,,,,,,,,,,,,,,,,,,,,,,,,,,,
,,,,,,661770012a3c83b4bdaff645,2024-05-13_11h33.41.171,group3.1-3.2-social-tom,2023.2.2,Win32,60.97560976,65c5074098b851296ff0b7ed,6642321c89aea44220fc507c,,,,,,,,,,,,,,,,,,,,,,,,,,,,,914.9519,2,audio/Narrative5Situation5.wav,919.961,,919.961,935.3959,"[[94.9,5828],[95.1,5911],[95.4,5994],[95.4,6077],[95.4,6161],[95.4,6244],[95.4,6326],[95.4,6410],[95.4,6493],[95.4,6577],[95.4,6660],[95.4,6743],[95.4,6826],[95.4,6910],[95.4,6992],[95.4,7076],[95.4,7160],[95.4,7243],[95.4,7326],[96,7410],[96.9,7493],[97.4,7576],[97.9,7659],[97.9,7742],[97.9,7825],[97.9,7908],[97.9,7992],[97.9,8075],[97.9,8158],[97.9,8241],[97.9,8325],[97.9,8408],[97.9,8491],[97.9,8575],[97.9,8658],[97.9,8741],[97.9,8825],[97.9,8908],[97.9,8991],[97.9,9075],[97.9,9157],[97.9,9241],[97.9,9324],[97.9,9407],[97.9,9491],[97.9,9573],[97.9,9657],[97.9,9740],[97.9,9823],[97.9,9906],[97.9,9990],[97.9,10073],[97.9,10156],[97.9,10240],[97.9,10323],[97.9,10406],[97.9,10490],[97.9,10573],[97.9,10656],[97.9,10739],[97.9,10822],[97.9,10905],[97.9,10989],[97.9,11072],[97.9,11155],[97.9,11239],[97.9,11322],[97.9,11405],[97.9,11489],[97.9,11572],[97.9,11655],[97.9,11738],[97.9,11822],[97.9,11905],[97.9,11988],[97.9,12071],[97.9,12154],[97.9,12238],[97.9,12321],[97.9,12404],[97.9,12488],[97.9,12571],[97.9,12654],[97.9,12737],[97.9,12821],[97.9,12904],[97.9,12987],[97.9,13070],[97.9,13154],[97.9,13236],[97.9,13319],[97.9,13403],[97.9,13486],[97.9,13570],[97.9,13653],[97.9,13736],[97.9,13819],[97.9,13902],[97.9,13986],[97.9,14069],[97.9,14152],[97.9,14236],[97.9,14319],[97.9,14402],[97.9,14485],[97.9,14568],[97.9,14652],[93.3,14735],[81.9,14819],[70.9,14902],[65.1,14985],[59.1,15068],[54.8,15152],[51,15235],[49.9,15318],[49.3,15401]]",1,0,935.396,937.2438,49.70717423,0.994,"[{""rating"":49.26793557833089,""responseTime"":0.22819999998807816},{""rating"":49.70717423133236,""responseTime"":0.9939999999999145}]",space,1.3142,,937.2439,Partially,50,937.2465,,,[],,0,14,14,14,1,audio/Narrative8Situation5.wav,audio/Narrative7Situation5.wav,audio/Narrative6Situation5.wav,audio/Narrative5Situation5.wav,2,5,2,5,,,,,,,,,,,,,,,,,,,,,,,,,,,,,,,,,,,,,,,
,,,,,,661770012a3c83b4bdaff645,2024-05-13_11h33.41.171,group3.1-3.2-social-tom,2023.2.2,Win32,60.97560976,65c5074098b851296ff0b7ed,6642321c89aea44220fc507c,,,,,,,,,,,,,,,,,,,,,,,,,,,,,937.2467,2,audio/Narrative5Situation6.wav,940.2578,,940.2579,945.9354,"[[49.4,665],[49.6,749],[49.6,832],[49.6,915],[49.6,998],[49.6,1082],[49.6,1165],[49.6,1248],[49.6,1331],[49.6,1414],[49.6,1498],[49.6,1581],[49.6,1664],[49.7,1747],[49.7,1831],[49.7,1914],[49.7,1998],[49.7,2081],[49.7,2164],[49.7,2247],[49.7,2331],[49.7,2413],[49.7,2497],[49.7,2580],[49.7,2664],[49.7,2746],[49.7,2830],[49.7,2914],[49.7,2996],[49.7,3079],[49.7,3163],[49.7,3246],[49.7,3329],[49.7,3413],[49.7,3496],[49.7,3579],[49.7,3662],[49.7,3746],[49.7,3829],[49.7,3913],[49.7,3995],[49.7,4079],[49.7,4162],[49.7,4245],[49.7,4328],[49.7,4412],[49.7,4495],[64.2,4579],[71.7,4662],[77.2,4745],[82.4,4828],[86.9,4912],[90.8,4994],[92,5078],[93.9,5162],[95.8,5244],[96.3,5327],[96.3,5411],[96.3,5494],[96.3,5577],[96.3,5660]]",1,0,945.9355,948.45,98.75549048,1.5645,"[{""rating"":98.75549048316252,""responseTime"":1.5644999999999527}]",space,1.9803,,948.4501,Partially,50,948.4529,,,[],,0,15,15,15,1,audio/Narrative8Situation6.wav,audio/Narrative7Situation6.wav,audio/Narrative6Situation6.wav,audio/Narrative5Situation6.wav,2,3,2,3,,,,,,,,,,,,,,,,,,,,,,,,,,,,,,,,,,,,,,,
,,,,,,661770012a3c83b4bdaff645,2024-05-13_11h33.41.171,group3.1-3.2-social-tom,2023.2.2,Win32,60.97560976,65c5074098b851296ff0b7ed,6642321c89aea44220fc507c,,,,,,,,,,,,,,,,,,,,,,,,,,,,,948.4532,2,audio/Narrative5Situation7.wav,952.4627,,952.4628,973.5091,"[[34.2,250],[34.2,333],[34.2,416],[34.2,499],[34.2,582],[34.2,666],[34.2,749],[34.2,832],[34.2,915],[34.2,998],[34.2,1082],[34.2,1165],[34.2,1248],[34.2,1331],[34.2,1414],[34.2,1498],[34.2,1581],[34.2,1664],[34.2,1748],[34.2,1831],[34.5,1914],[34.5,1998],[34.5,2081],[34.5,2164],[34.5,2247],[34.5,2330],[34.5,2414],[34.5,2497],[34.5,2580],[34.5,2663],[34.5,2747],[34.5,2830],[34.5,2913],[34.5,2997],[34.5,3080],[34.5,3163],[34.5,3246],[34.5,3330],[34.5,3413],[34.5,3496],[34.5,3580],[34.5,3662],[34.5,3746],[34.5,3829],[34.5,3912],[34.5,3996],[34.5,4079],[34.5,4162],[34.5,4245],[34.5,4328],[34.5,4412],[34.5,4495],[34.5,4579],[34.5,4662],[34.5,4745],[34.5,4828],[45.8,4912],[53.4,4995],[57.3,5078],[57.6,5161],[57.6,5245],[56,5328],[52.3,5412],[51,5495],[50.9,5577],[50.9,5660],[50.9,5744],[50.9,5827],[50.9,5910],[50.9,5993],[50.9,6077],[50.1,6161],[50.1,6243],[50.1,6326],[50.1,6410],[50.1,6493],[50.1,6576],[50.1,6660],[50.1,6743],[50.1,6826],[50.1,6909],[50.1,6993],[50.1,7076],[50.1,7159],[50.1,7242],[50.1,7326],[50.1,7409],[50.1,7492],[50.1,7575],[50.1,7658],[50.1,7742],[50.1,7825],[50.1,7908],[50.1,7992],[50.1,8075],[50.1,8158],[50.1,8241],[50.1,8324],[50.1,8408],[50.1,8491],[50.1,8574],[50.1,8658],[50.1,8741],[50.1,8824],[50.1,8908],[50.1,8990],[50.1,9074],[50.1,9158],[50.1,9240],[50.1,9324],[50.1,9407],[50.1,9490],[50.1,9573],[50.1,9657],[50.1,9740],[50.1,9823],[50.1,9906],[50.1,9989],[50.1,10073],[50.1,10157],[50.1,10239],[50.1,10323],[50.1,10406],[50.1,10490],[50.1,10572],[50.1,10656],[50.1,10739],[50.1,10822],[50.1,10905],[50.1,10989],[50.1,11072],[50.1,11155],[50.1,11239],[50.1,11322],[50.1,11405],[50.1,11488],[50.1,11572],[50.1,11654],[50.1,11738],[50.1,11822],[50.1,11905],[50.1,11988],[50.1,12071],[50.1,12154],[50.1,12237],[50.1,12320],[50.1,12404],[50.1,12487],[50.1,12570],[50.1,12654],[50.1,12737],[50.1,12820],[50.1,12904],[50.1,12987],[50.1,13070],[50.1,13153],[50.1,13237],[50.1,13320],[50.1,13402],[50.1,13487],[50.1,13569],[50.1,13652],[50.1,13736],[50.1,13819],[50.1,13902],[50.1,13986],[50.1,14069],[50.1,14152],[50.1,14235],[50.1,14319],[50.1,14402],[50.1,14485],[50.1,14568],[50.1,14652],[50.1,14735],[50.1,14819],[50.1,14901],[50.1,14984],[50.1,15068],[50.1,15151],[50.1,15234],[50.1,15318],[50.1,15401],[50.1,15484],[50.1,15568],[50.1,15650],[50.1,15734],[50.1,15817],[50.1,15900],[50.1,15984],[50.1,16068],[50.1,16150],[50.1,16233],[50.1,16317],[50.1,16400],[50.1,16483],[50.1,16566],[50.3,16650],[52.6,16734],[56.3,16817],[59.8,16900],[61.3,16983],[64.3,17067],[66,17150],[66.3,17233],[66.3,17316],[66.3,17399],[66.3,17483],[66.1,17566],[66.1,17649],[66.1,17732],[64.8,17816],[62,17899],[58.2,17983],[54,18066],[50.9,18149],[50.4,18231],[50.4,18315],[50.4,18398],[50.4,18481],[50.4,18564],[50.4,18648],[50.4,18731],[50.4,18814],[50.4,18898],[50.4,18980],[50.4,19064],[50.4,19147],[50.4,19230],[50.4,19314],[50.4,19397],[50.4,19480],[50.4,19563],[50.4,19647],[50.4,19730],[50.4,19813],[50.4,19897],[50.4,19979],[50.4,20063],[50.4,20146],[50.4,20229],[50.4,20313],[53.7,20396],[54.1,20479],[54.1,20563],[54.1,20646],[53.1,20730],[51.8,20813],[51,20896],[50.9,20979]]",1,0,973.5093,976.1896,24.81698389,1.3868,"[{""rating"":24.816983894582723,""responseTime"":1.386800000011931}]",space,2.1356,,976.1898,Not at all,0,976.1947,,,[],,0,16,16,16,1,audio/Narrative8Situation7.wav,audio/Narrative7Situation7.wav,audio/Narrative6Situation7.wav,audio/Narrative5Situation7.wav,3,5,5,4,,,,,,,,,,,,,,,,,,,,,,,,,,,,,,,,,,,,,,,
