exp_question,consent.started,consent.stopped,consentResponse.keys,consentResponse.rt,consentResponse.duration,participantID,date,expName,psychopyVersion,OS,frameRate,STUDY_ID,SESSION_ID,opening1.started,opening1.stopped,keyEndingOpening1.keys,keyEndingOpening1.rt,keyEndingOpening1.duration,volumeAdjust.started,volumeAdjust.stopped,endingAdjust.keys,endingAdjust.rt,endingAdjust.duration,opening2.started,opening2.stopped,keyEndingOpening.keys,keyEndingOpening.rt,keyEndingOpening.duration,mouse.x,mouse.y,mouse.leftButton,mouse.midButton,mouse.rightButton,mouse.time,instructionLoop.thisRepN,instructionLoop.thisTrialN,instructionLoop.thisN,instructionLoop.thisIndex,instructionLoop.ran,readyForAudio.started,readyForAudio.stopped,fixation.started,run,audio_played,fixation.stopped,endPractice.keys,audioPre.started,audioPre.stopped,continuousResponses_audio,continuousSlider.response,continuousSlider.rt,intRating.started,intRating.stopped,intQuestionSlider.response,intQuestionSlider.rt,intQuestionSlider.history,confirmResponse.keys,confirmResponse.rt,confirmResponse.duration,catchQuestion.started,catch_label,catch_value,catchQuestion.stopped,catchQuestionSlider.response,catchQuestionSlider.rt,catchQuestionSlider.history,confirmResponse_2.keys,confirmResponse_2.rt,confirmResponse_2.duration,audioRunLoop.thisRepN,audioRunLoop.thisTrialN,audioRunLoop.thisN,audioRunLoop.thisIndex,audioRunLoop.ran,conditions1_1,conditions2_1,conditions1_2,conditions2_2,dur1_1,dur2_1,dur1_2,dur2_2,endPractice.rt,endPractice.duration,runIntervalBreak.started,runIntervalBreak.stopped,endingBreakKey.keys,endingBreakKey.rt,endingBreakKey.duration,connection.started,connection.stopped,connectionEnding.keys,connectionEnding.rt,connectionEnding.duration,readyForText.started,readyForText.stopped,textPre.started,run_dup,textPre.stopped,continuousResponses_text,textRunLoop.thisRepN,textRunLoop.thisTrialN,textRunLoop.thisN,textRunLoop.thisIndex,textRunLoop.ran,text1_1,text1_2,text2_1,text2_2,runBreakText.started,runBreakText.stopped,endingBreakKey_2.keys,ending.started,ending.stopped,endingEnding.keys,endingEnding.rt,endingEnding.duration
social,0.0002,15.7147,y,15.371,,661f16434d4a84871e91d6db,2024-05-13_08h45.37.214,group3.1-3.2-social-tom,2023.2.2,Win32,59.52380952,65c5074098b851296ff0b7ed,664235694d8bef45f9dc8ea6,,,,,,,,,,,,,,,,,,,,,,,,,,,,,,,,,,,,,,,,,,,,,,,,,,,,,,,,,,,,,,,,,,,,,,,,,,,,,,,,,,,,,,,,,,,,,,,,,,,,,,,,
,,,,,,661f16434d4a84871e91d6db,2024-05-13_08h45.37.214,group3.1-3.2-social-tom,2023.2.2,Win32,59.52380952,65c5074098b851296ff0b7ed,664235694d8bef45f9dc8ea6,15.7149,24.3776,space,8.6381,,,,,,,,,,,,,,,,,,,,,,,,,,,,,,,,,,,,,,,,,,,,,,,,,,,,,,,,,,,,,,,,,,,,,,,,,,,,,,,,,,,,,,,,,,,,,,,,,,,,
,,,,,,661f16434d4a84871e91d6db,2024-05-13_08h45.37.214,group3.1-3.2-social-tom,2023.2.2,Win32,59.52380952,65c5074098b851296ff0b7ed,664235694d8bef45f9dc8ea6,,,,,,24.378,39.276,space,14.5652,,,,,,,,,,,,,,,,,,,,,,,,,,,,,,,,,,,,,,,,,,,,,,,,,,,,,,,,,,,,,,,,,,,,,,,,,,,,,,,,,,,,,,,,,,,,,,,
,,,,,,661f16434d4a84871e91d6db,2024-05-13_08h45.37.214,group3.1-3.2-social-tom,2023.2.2,Win32,59.52380952,65c5074098b851296ff0b7ed,664235694d8bef45f9dc8ea6,,,,,,,,,,,39.2807,50.9086,space,11.599,,[],[],[],[],[],[],0,0,0,0,1,,,,,,,,,,,,,,,,,,,,,,,,,,,,,,,,,,,,,,,,,,,,,,,,,,,,,,,,,,,,,,,,,,,,,,,,,,,,,,
,,,,,,661f16434d4a84871e91d6db,2024-05-13_08h45.37.214,group3.1-3.2-social-tom,2023.2.2,Win32,59.52380952,65c5074098b851296ff0b7ed,664235694d8bef45f9dc8ea6,,,,,,,,,,,50.9091,93.8664,space,42.8877,,[],[],[],[],[],[],1,0,1,0,1,,,,,,,,,,,,,,,,,,,,,,,,,,,,,,,,,,,,,,,,,,,,,,,,,,,,,,,,,,,,,,,,,,,,,,,,,,,,,,
,,,,,,661f16434d4a84871e91d6db,2024-05-13_08h45.37.214,group3.1-3.2-social-tom,2023.2.2,Win32,59.52380952,65c5074098b851296ff0b7ed,664235694d8bef45f9dc8ea6,,,,,,,,,,,93.8734,113.9463,space,20.0414,,[],[],[],[],[],[],2,0,2,0,1,,,,,,,,,,,,,,,,,,,,,,,,,,,,,,,,,,,,,,,,,,,,,,,,,,,,,,,,,,,,,,,,,,,,,,,,,,,,,,
,,,,,,661f16434d4a84871e91d6db,2024-05-13_08h45.37.214,group3.1-3.2-social-tom,2023.2.2,Win32,59.52380952,65c5074098b851296ff0b7ed,664235694d8bef45f9dc8ea6,,,,,,,,,,,113.9542,140.4757,space,26.5023,,[],[],[],[],[],[],3,0,3,0,1,,,,,,,,,,,,,,,,,,,,,,,,,,,,,,,,,,,,,,,,,,,,,,,,,,,,,,,,,,,,,,,,,,,,,,,,,,,,,,
,,,,,,661f16434d4a84871e91d6db,2024-05-13_08h45.37.214,group3.1-3.2-social-tom,2023.2.2,Win32,59.52380952,65c5074098b851296ff0b7ed,664235694d8bef45f9dc8ea6,,,,,,,,,,,140.4845,156.1727,space,15.6762,,[],[],[],[],[],[],4,0,4,0,1,,,,,,,,,,,,,,,,,,,,,,,,,,,,,,,,,,,,,,,,,,,,,,,,,,,,,,,,,,,,,,,,,,,,,,,,,,,,,,
,,,,,,661f16434d4a84871e91d6db,2024-05-13_08h45.37.214,group3.1-3.2-social-tom,2023.2.2,Win32,59.52380952,65c5074098b851296ff0b7ed,664235694d8bef45f9dc8ea6,,,,,,,,,,,,,,,,,,,,,,,,,,,156.1808,158.7563,158.7733,1,audio/Narrative13Situation2.wav,160.789,,160.7891,190.5513,"[[999,1],[999,99],[999,183],[999,265],[999,349],[999,432],[999,515],[999,599],[999,682],[999,765],[999,849],[999,932],[999,1016],[999,1099],[999,1182],[999,1265],[999,1349],[999,1432],[999,1515],[999,1599],[999,1682],[999,1766],[999,1849],[999,1932],[999,2016],[999,2099],[999,2182],[999,2266],[999,2349],[999,2432],[999,2515],[999,2599],[999,2682],[999,2765],[999,2849],[999,2932],[999,3015],[999,3099],[999,3182],[999,3265],[999,3348],[999,3432],[999,3515],[999,3605],[41.6,3682],[23.2,3765],[8.6,3848],[2.8,3932],[2.3,4015],[1.9,4098],[1.8,4182],[1.8,4265],[1.8,4348],[1.8,4432],[1.8,4515],[1.8,4598],[1.8,4682],[1.8,4765],[1.8,4848],[1.8,4932],[1.8,5015],[1.8,5098],[1.8,5181],[1.8,5265],[1.8,5348],[1.8,5431],[1.8,5515],[1.8,5598],[1.8,5682],[1.8,5765],[1.5,5848],[0.7,5932],[0.1,6015],[39.5,8431],[100,9098],[100,9181],[100,9264],[100,9348],[100,9431],[100,9515],[100,9598],[100,9681],[100,9764],[100,9848],[100,9931],[100,10014],[100,10097],[100,10181],[100,10264],[100,10348],[100,10431],[100,10514],[100,10598],[100,10681],[100,10764],[100,10847],[100,10931],[100,11014],[100,11097],[100,11181],[100,11264],[100,11348],[100,11431],[100,11514],[100,11598],[100,11681],[100,11764],[100,11847],[100,11931],[100,12014],[100,12097],[100,12180],[100,12264],[100,12347],[100,12431],[100,12514],[100,12597],[100,12681],[100,12764],[100,12847],[100,12930],[100,13014],[100,13097],[100,13180],[100,13264],[100,13347],[100,13431],[100,13514],[100,13597],[100,13680],[100,13764],[100,13847],[100,13930],[100,14014],[100,14097],[100,14180],[100,14264],[100,14347],[100,14430],[100,14514],[100,14597],[100,14680],[100,14764],[100,14847],[100,14930],[100,15014],[100,15097],[100,15180],[100,15264],[100,15347],[100,15430],[100,15513],[100,15597],[100,15680],[100,15763],[100,15847],[85.8,15930],[80,16013],[75.9,16096],[58.4,17180],[56.7,17264],[55.4,17347],[52.2,17430],[37.4,17513],[26.7,17596],[25.5,17680],[25.5,17763],[25.5,17846],[25.5,17930],[23.2,18013],[21.1,18097],[20.1,18180],[18.1,18263],[15.2,18346],[13.2,18429],[12.3,18513],[10.7,18596],[9.4,18680],[7.7,18763],[6.4,18846],[4.6,18930],[3.4,19013],[2.4,19096],[1.4,19180],[0.4,19263],[10.3,23346],[23.3,23429],[58.2,23679],[70.6,23762],[79.9,23845],[80.5,23928],[80.5,24012],[80.5,24095],[80.5,24179],[83.1,24262],[91.1,24345],[94.8,24429],[95.5,24512],[95.8,24595],[96.3,24679],[97.1,24762],[100,24845],[100,24929],[100,25012],[98.6,25095],[92.2,25179],[88.7,25262],[82.8,25345],[74.6,25428],[69.9,25512],[68.4,25595],[68.2,25678],[68.2,25762],[68.2,25845],[68.2,25928],[66.9,26012],[50.3,26095],[40.3,26178],[33.6,26262],[27.4,26345],[20.1,26428],[15,26511],[11.1,26595],[7.4,26678],[4,26761],[1.4,26845]]",1,0,190.5515,203.699,50.10416508,12.0078,"[{""rating"":50.10416507720947,""responseTime"":12.007799999952312}]",space,12.6014,,203.6992,Partially,50,218.3802,50,11.4917,"[{""rating"":50,""responseTime"":11.491700000047672}]",space,14.1303,,0,0,0,0,1,audio/Narrative13Situation2.wav,audio/Narrative13Situation2.wav,audio/Narrative13Situation2.wav,audio/Narrative13Situation2.wav,2,2,2,2,,,,,,,,,,,,,,,,,,,,,,,,,,,,,,,,,,,
,,,,,,661f16434d4a84871e91d6db,2024-05-13_08h45.37.214,group3.1-3.2-social-tom,2023.2.2,Win32,59.52380952,65c5074098b851296ff0b7ed,664235694d8bef45f9dc8ea6,,,,,,,,,,,,,,,,,,,,,,,,,,,,,218.3805,1,audio/Narrative7Situation1.wav,221.1458,space,221.1458,277.0205,"[[49.7,2332],[49.4,2416],[37.5,2499],[21.5,2582],[19.6,2666],[19.6,2749],[19.6,2832],[19.6,2916],[15.8,2999],[2.7,3082],[100,19663],[100,19747],[100,19830],[100,19913],[100,19997],[100,20079],[100,20163],[100,20246],[100,20330],[100,20413],[100,20496],[100,20580],[100,20663],[100,20746],[100,20830],[100,20913],[100,20996],[100,21080],[100,21163],[100,21246],[100,21330],[100,21413],[100,21496],[100,21580],[100,21663],[100,21746],[100,21830],[100,21913],[100,21996],[100,22079],[100,22163],[100,22246],[100,22330],[100,22413],[100,22496],[100,22579],[100,22663],[100,22746],[100,22830],[100,22913],[100,22996],[100,23080],[100,23163],[100,23246],[100,23329],[100,23413],[100,23496],[100,23579],[100,23662],[100,23746],[100,23829],[100,23912],[100,23996],[100,24079],[100,24162],[100,24246],[100,24329],[100,24412],[100,24496],[100,24579],[100,24662],[100,24745],[100,24829],[100,24912],[100,24996],[100,25079],[100,25162],[100,25246],[100,25329],[100,25412],[100,25495],[100,25579],[100,25662],[100,25745],[100,25829],[100,25912],[100,25995],[100,26079],[100,26162],[100,26245],[12,27495],[8.5,27578],[6.1,27662],[4.5,27745],[4.4,27828],[4.4,27912],[4.4,27995],[4.4,28079],[3.5,28162],[0.5,29745],[0.9,29828],[0.9,29911],[1,29995],[11.2,30078],[27.8,30161],[37.5,30245],[37.9,30328],[37.9,30411],[37.6,30495],[37.2,30578],[16.5,31911],[41.6,31995],[57,32078],[63.5,32161],[70.1,32245],[75.7,32328],[84.9,32411],[93,32494],[96.9,32578],[100,32661],[100,32745],[100,32828],[100,32911],[100,32994],[100,33078],[100,33161],[100,33244],[100,33328],[100,33411],[100,33494],[100,33578],[100,33661],[100,33744],[100,33828],[100,33911],[100,33994],[100,34078],[100,34161],[100,34244],[100,34328],[100,34411],[100,34494],[100,34578],[100,34661],[100,34744],[100,34828],[100,34911],[100,34994],[100,35078],[100,35161],[100,35244],[100,35327],[100,35411],[100,35494],[100,35577],[100,35661],[100,35744],[100,35827],[100,35911],[100,35994],[100,36077],[100,36160],[100,36243],[100,36327],[100,36410],[100,36494],[100,36577],[100,36660],[100,36744],[100,36827],[100,36910],[100,36994],[100,37077],[100,37161],[100,37244],[100,37327],[100,37410],[100,37494],[100,37577],[100,37660],[100,37744],[100,37827],[100,37910],[100,37994],[100,38077],[100,38160],[100,38244],[100,38327],[100,38410],[100,38493],[100,38577],[100,38660],[100,38743],[100,38827],[100,38910],[100,38993],[100,39076],[100,39160],[100,39243],[100,39327],[100,39410],[100,39494],[100,39577],[100,39660],[100,39743],[100,39826],[100,39910],[100,39993],[100,40077],[100,40160],[100,40243],[100,40327],[100,40410],[100,40493],[100,40577],[100,40660],[100,40743],[100,40827],[100,40910],[100,40993],[100,41077],[100,41160],[100,41243],[100,41327],[100,41410],[100,41493],[100,41576],[100,41659],[100,41743],[100,41826],[100,41910],[100,41993],[100,42076],[100,42160],[100,42243],[100,42326],[100,42409],[100,42493],[100,42576],[100,42660],[100,42743],[100,42826],[100,42909],[100,42993],[100,43076],[100,43159],[100,43243],[100,43326],[100,43409],[100,43493],[100,43576],[100,43660],[100,43743],[100,43826],[100,43909],[100,43993],[100,44076],[100,44160],[100,44243],[100,44326],[100,44409],[100,44493],[100,44576],[100,44659],[100,44743],[100,44826],[100,44909],[100,44992],[100,45076],[100,45159],[100,45242],[100,45326],[100,45409],[100,45492],[100,45575],[100,45659],[100,45742],[100,45826],[100,45909],[100,45992],[100,46076],[100,46159],[100,46242],[100,46326],[100,46409],[100,46492],[100,46575],[100,46659],[100,46742],[100,46826],[100,46909],[100,46992],[100,47075],[100,47158],[100,47242],[100,47325],[100,47409],[100,47492],[100,47576],[100,47659],[100,47742],[100,47825],[100,47909],[100,47992],[100,48076],[100,48159],[100,48242],[100,48325],[100,48409],[100,48492],[100,48575],[100,48658],[100,48742],[100,48825],[100,48909],[100,48992],[100,49075],[100,49158],[100,49242],[100,49325],[100,49409],[100,49492],[100,49575],[100,49659],[100,49742],[100,49825],[100,49908],[100,49991],[100,50075],[100,50158],[100,50242],[100,50325],[100,50408],[100,50492],[100,50575],[100,50658],[100,50741],[100,50825],[100,50908],[100,50991],[100,51075],[100,51158],[100,51241],[100,51325],[100,51408],[100,51491],[100,51575],[100,51658],[100,51741],[100,51825],[100,51908],[100,51991],[100,52075],[100,52158],[100,52241],[100,52324],[100,52408],[100,52491],[100,52574],[100,52658],[100,52741],[100,52825],[100,52908],[100,52991],[100,53074],[100,53158],[100,53241],[100,53325],[100,53408],[100,53491],[100,53575],[100,53658],[100,53741],[100,53824],[100,53908],[100,53991],[100,54074],[100,54158],[100,54241],[100,54324],[100,54408],[100,54491],[100,54574],[100,54658],[100,54741],[100,54824],[100,54908],[100,54991],[100,55074],[100,55158],[100,55241],[100,55324],[100,55408],[100,55491],[100,55574],[100,55658],[100,55741],[100,55824]]",1,0,277.0207,283.3696,73.22916985,5.298,"[{""rating"":73.22916984558105,""responseTime"":5.298000000000002}]",space,5.8044,,283.3696,Definitely yes,100,283.3739,,,[],,,,0,1,1,1,1,audio/Narrative7Situation1.wav,audio/Narrative8Situation1.wav,audio/Narrative5Situation1.wav,audio/Narrative6Situation1.wav,2,5,5,2,2.7458,,,,,,,,,,,,,,,,,,,,,,,,,,,,,,,,,,
,,,,,,661f16434d4a84871e91d6db,2024-05-13_08h45.37.214,group3.1-3.2-social-tom,2023.2.2,Win32,59.52380952,65c5074098b851296ff0b7ed,664235694d8bef45f9dc8ea6,,,,,,,,,,,,,,,,,,,,,,,,,,,,,283.3741,1,audio/Narrative7Situation2.wav,286.3858,,286.3859,293.8675,"[[999,0],[999,82],[999,166],[999,249],[999,332],[999,416],[999,499],[999,582],[999,666],[999,749],[999,832],[999,916],[999,999],[999,1082],[999,1166],[999,1249],[999,1332],[999,1416],[999,1499],[999,1582],[999,1666],[999,1749],[999,1832],[999,1916],[999,1999],[999,2082],[999,2166],[999,2249],[999,2332],[999,2415],[999,2499],[999,2582],[999,2665],[999,2749],[999,2832],[999,2915],[999,2999],[999,3082],[999,3165],[999,3248],[999,3332],[999,3415],[999,3499],[999,3582],[999,3665],[999,3749],[999,3832],[999,3915],[51,3999],[51.4,4082],[52.1,4165],[56.3,4249],[62.2,4332],[63.5,4415],[63.9,4498],[65.7,4581],[69.6,4665],[73.4,4748],[74.5,4831],[75.3,4915],[76.4,4998],[77,5082],[77,5165],[77.1,5248],[77.1,5332],[77.1,5415],[77.1,5498],[78.4,5581],[85.2,5665],[93,5748],[95.8,5831],[97.2,5915],[98.2,5998],[99.4,6081],[100,6165],[100,6249],[100,6331],[100,6415],[100,6498],[100,6581],[100,6665],[100,6748],[100,6831],[100,6915],[100,6998],[100,7081],[100,7165],[100,7248],[100,7331],[100,7415]]",1,0,293.8676,299.7003,98.75000318,4.6547,"[{""rating"":98.75000317891438,""responseTime"":4.654699999928482}]",space,5.2933,,299.7004,Definitely yes,100,299.7037,,,[],,,,0,2,2,2,1,audio/Narrative7Situation2.wav,audio/Narrative8Situation2.wav,audio/Narrative5Situation2.wav,audio/Narrative6Situation2.wav,3,3,3,3,,,,,,,,,,,,,,,,,,,,,,,,,,,,,,,,,,,
,,,,,,661f16434d4a84871e91d6db,2024-05-13_08h45.37.214,group3.1-3.2-social-tom,2023.2.2,Win32,59.52380952,65c5074098b851296ff0b7ed,664235694d8bef45f9dc8ea6,,,,,,,,,,,,,,,,,,,,,,,,,,,,,299.7041,1,audio/Narrative7Situation3.wav,307.7156,,307.7156,316.981,"[[999,9],[999,83],[999,166],[999,250],[999,332],[999,416],[999,499],[999,583],[999,666],[999,749],[999,832],[999,916],[999,1000],[999,1083],[999,1166],[999,1250],[999,1333],[999,1416],[999,1500],[999,1582],[999,1666],[999,1749],[999,1833],[999,1916],[999,2000],[999,2082],[999,2166],[999,2249],[999,2332],[999,2416],[999,2499],[999,2582],[999,2666],[999,2749],[999,2832],[999,2916],[20,2999],[9.9,3082],[6.1,3166],[5,3249],[4.8,3332],[2.4,3416],[1.4,3499],[1.4,3582],[1.4,3666],[1.4,3749],[1.4,3832],[1.4,3916],[1.4,3999],[1.4,4082],[1.4,4165],[1.4,4249],[1.4,4332],[1.4,4415],[1.4,4499],[1.4,4582],[1.4,4666],[1.4,4749],[1.4,4832],[1.4,4916],[1.4,4999],[1.4,5082],[1.4,5166],[1.4,5249],[1.4,5332],[1.4,5415]]",1,0,316.9811,319.9803,0.833332539,1.3257,"[{""rating"":0.8333325386047363,""responseTime"":1.3256999999284744}]",space,2.4482,,319.9803,Partially,50,319.9842,,,[],,,,0,3,3,3,1,audio/Narrative7Situation3.wav,audio/Narrative8Situation3.wav,audio/Narrative5Situation3.wav,audio/Narrative6Situation3.wav,8,4,3,5,,,,,,,,,,,,,,,,,,,,,,,,,,,,,,,,,,,
,,,,,,661f16434d4a84871e91d6db,2024-05-13_08h45.37.214,group3.1-3.2-social-tom,2023.2.2,Win32,59.52380952,65c5074098b851296ff0b7ed,664235694d8bef45f9dc8ea6,,,,,,,,,,,,,,,,,,,,,,,,,,,,,319.9844,1,audio/Narrative7Situation4.wav,322.9964,,322.9964,334.728,"[[31.9,2082],[17.7,2166],[10.2,2250],[4.2,2333]]",1,0,334.7281,338.0104,0.625002384,2.4954,"[{""rating"":0.625002384185791,""responseTime"":2.4953999999761436}]",space,2.7361,,338.0104,Partially,50,338.0117,,,[],,,,0,4,4,4,1,audio/Narrative7Situation4.wav,audio/Narrative8Situation4.wav,audio/Narrative5Situation4.wav,audio/Narrative6Situation4.wav,3,3,1,2,,,,,,,,,,,,,,,,,,,,,,,,,,,,,,,,,,,
,,,,,,661f16434d4a84871e91d6db,2024-05-13_08h45.37.214,group3.1-3.2-social-tom,2023.2.2,Win32,59.52380952,65c5074098b851296ff0b7ed,664235694d8bef45f9dc8ea6,,,,,,,,,,,,,,,,,,,,,,,,,,,,,338.0125,1,audio/Narrative7Situation5.wav,343.0264,,343.0264,351.5087,"[[999,7],[999,83],[999,166],[999,249],[999,333],[999,416],[999,500],[999,583],[999,666],[999,750],[999,833],[999,916],[999,1000],[999,1083],[999,1166],[999,1250],[999,1333],[999,1416],[999,1499],[999,1583],[999,1666],[999,1749],[999,1833],[999,1916],[999,1999],[999,2083],[999,2166],[999,2250],[999,2333],[999,2416],[999,2500],[999,2583],[999,2666],[999,2749],[999,2833],[999,2916],[999,2999],[51.1,3082],[50.4,3166],[44.7,3249],[40.4,3332],[33.6,3416],[22.3,3499],[14.9,3583],[11,3666],[7.6,3749],[5.6,3832],[2.9,3916],[0.9,3999],[0.2,4083]]",1,0,351.5088,354.0415,1.770834128,2.0069,"[{""rating"":1.7708341280619322,""responseTime"":2.0069000000953565}]",space,1.9926,,354.0416,Not at all,0,354.0471,,,[],,,,0,5,5,5,1,audio/Narrative7Situation5.wav,audio/Narrative8Situation5.wav,audio/Narrative5Situation5.wav,audio/Narrative6Situation5.wav,5,2,5,2,,,,,,,,,,,,,,,,,,,,,,,,,,,,,,,,,,,
,,,,,,661f16434d4a84871e91d6db,2024-05-13_08h45.37.214,group3.1-3.2-social-tom,2023.2.2,Win32,59.52380952,65c5074098b851296ff0b7ed,664235694d8bef45f9dc8ea6,,,,,,,,,,,,,,,,,,,,,,,,,,,,,354.0473,1,audio/Narrative7Situation6.wav,357.0577,,357.0578,367.0397,"[[999,0],[999,83],[999,166],[999,249],[999,333],[999,416],[999,499],[999,583],[999,666],[999,749],[999,832],[999,916],[999,999],[999,1082],[999,1166],[999,1249],[999,1332],[999,1416],[999,1499],[999,1583],[48.1,1666],[48.9,1749],[49.9,1832],[50,1916],[50,1999],[50,2082],[50,2165],[50,2249],[14.3,2749],[17.2,2832],[19,2916],[19.5,2999],[32.2,3082],[74.9,3166],[79.8,3249],[79.8,3332],[79.8,3416],[79.8,3499],[79.8,3582],[79.8,3666],[79.8,3749],[89.5,3832],[91.8,3916],[96,3999],[97.8,4083],[98.2,4166],[100,4249],[100,4332],[100,4416],[100,4499],[100,4582],[100,4666],[100,4749],[100,4832],[100,4915],[100,4999],[100,5082],[100,5165],[100,5249],[100,5332],[100,5415],[100,5499],[100,5582],[100,5665],[100,5748],[100,5832],[100,5915],[100,5999],[100,6082],[100,6165],[100,6249],[100,6332],[100,6415],[100,6498],[100,6582],[100,6665],[100,6748],[100,6832],[100,6915],[100,6998],[100,7082],[100,7165],[100,7248],[100,7332],[100,7415],[100,7498],[100,7581],[100,7665],[100,7748],[100,7832],[100,7915],[100,7998],[100,8082],[100,8165],[100,8248],[100,8332],[100,8415],[100,8498],[100,8581],[100,8665],[100,8748],[100,8831],[100,8915],[100,8998],[100,9081],[100,9165],[100,9248],[100,9331],[100,9415],[100,9498],[100,9581],[100,9665],[100,9748],[100,9831],[100,9915]]",1,0,367.0399,368.5395,99.89584287,0.7683,"[{""rating"":99.89584287007649,""responseTime"":0.768299999952319}]",space,0.9539,,368.5395,Definitely yes,100,368.5422,,,[],,,,0,6,6,6,1,audio/Narrative7Situation6.wav,audio/Narrative8Situation6.wav,audio/Narrative5Situation6.wav,audio/Narrative6Situation6.wav,3,2,3,2,,,,,,,,,,,,,,,,,,,,,,,,,,,,,,,,,,,
,,,,,,661f16434d4a84871e91d6db,2024-05-13_08h45.37.214,group3.1-3.2-social-tom,2023.2.2,Win32,59.52380952,65c5074098b851296ff0b7ed,664235694d8bef45f9dc8ea6,,,,,,,,,,,,,,,,,,,,,,,,,,,,,368.543,1,audio/Narrative7Situation7.wav,373.5554,,373.5555,390.7361,"[[999,11],[999,82],[999,166],[999,249],[999,332],[999,416],[999,499],[999,582],[999,666],[999,749],[999,832],[999,916],[999,999],[999,1082],[999,1166],[999,1249],[999,1332],[999,1415],[999,1499],[999,1582],[999,1665],[999,1749],[999,1832],[999,1916],[999,1999],[999,2082],[999,2165],[999,2249],[999,2332],[999,2416],[999,2499],[999,2582],[999,2665],[999,2749],[999,2832],[999,2915],[999,2999],[999,3082],[999,3165],[999,3249],[999,3332],[999,3415],[999,3499],[999,3582],[999,3665],[48.8,3748],[47,3831],[45.9,3915],[42.2,3998],[34.1,4082],[16.7,4165],[2.3,4249],[21,5581],[87.6,5665],[97.9,5748],[100,5831],[100,5915],[100,5998],[100,6081],[100,6165],[100,6248],[100,6331],[100,6415],[100,6498],[100,6581],[100,6665],[100,6748],[100,6831],[100,6915],[100,6998],[100,7081],[100,7164],[100,7248],[100,7331],[100,7414],[100,7498],[100,7581],[100,7665],[100,7748],[100,7831],[100,7914],[100,7998],[100,8081],[100,8164],[100,8248],[100,8331],[100,8414],[100,8498],[100,8581],[100,8664],[100,8748],[100,8831],[100,8914],[100,8998],[100,9081],[100,9164],[100,9248],[100,9331],[100,9414],[100,9498],[100,9581],[100,9665],[100,9748],[100,9831],[100,9914],[100,9997],[100,10081],[100,10164],[100,10248],[100,10331],[100,10414],[100,10497],[100,10581],[100,10664],[100,10747],[100,10831],[100,10914],[100,10998],[100,11081],[100,11164],[100,11248],[100,11331],[100,11414],[100,11497],[100,11581],[100,11664],[100,11747],[100,11830],[100,11914],[100,11997],[100,12080],[100,12164],[100,12247],[100,12330],[100,12414],[100,12497],[100,12581],[100,12663],[100,12747],[100,12830],[100,12914],[100,12997],[100,13081],[100,13164],[100,13247],[100,13330],[100,13414],[100,13497],[100,13580],[100,13663],[100,13747],[100,13830],[100,13913],[100,13997],[100,14080],[100,14164],[100,14247],[100,14330],[100,14413],[100,14497],[100,14580],[100,14664],[100,14747],[100,14830],[100,14913],[100,14997],[100,15080],[100,15163],[100,15247],[100,15330],[100,15413],[100,15497],[100,15580],[100,15663],[100,15747],[100,15830],[100,15913],[100,15997],[100,16080],[100,16163],[100,16246],[100,16330],[100,16413],[100,16496],[100,16580],[100,16663],[100,16747],[100,16830],[100,16913],[100,16996],[100,17080],[100,17163]]",1,0,390.7362,392.2189,99.37500954,1.0368,"[{""rating"":99.37500953674316,""responseTime"":1.036800000071537}]",space,0.9351,,392.219,Partially,50,392.2216,,,[],,,,0,7,7,7,1,audio/Narrative7Situation7.wav,audio/Narrative8Situation7.wav,audio/Narrative5Situation7.wav,audio/Narrative6Situation7.wav,5,3,4,5,,,,,,,,,,,,,,,,,,,,,,,,,,,,,,,,,,,
,,,,,,661f16434d4a84871e91d6db,2024-05-13_08h45.37.214,group3.1-3.2-social-tom,2023.2.2,Win32,59.52380952,65c5074098b851296ff0b7ed,664235694d8bef45f9dc8ea6,,,,,,,,,,,,,,,,,,,,,,,,,,,,,392.2227,1,audio/Narrative7Situation8.wav,394.2358,,394.2358,404.2673,"[[999,0],[999,82],[999,166],[999,249],[999,332],[999,417],[999,499],[999,582],[999,665],[999,749],[999,832],[999,915],[999,999],[999,1082],[999,1166],[999,1248],[999,1332],[999,1415],[999,1499],[999,1582],[999,1665],[999,1749],[999,1832],[48.5,1915],[46.5,1998],[31.4,2082],[29.2,2165],[29.1,2248],[29.1,2332],[29.1,2415],[29.1,2498],[29.1,2581],[29.1,2665],[29.1,2748],[29.1,2831],[29.1,2915],[29.1,2998],[29.1,3082],[29.1,3165],[29.1,3248],[29.1,3331],[29.1,3415],[29.1,3498],[29.1,3581],[28,3665],[27.3,3748],[27,3831],[26.1,3915],[24.8,3998],[22.8,4081],[22,4165],[22,4248],[21.3,4331],[18.2,4414],[15.8,4498],[13.3,4581],[11.1,4665],[7.7,4748],[6.9,4831],[5.4,4914],[3.4,4998],[2.4,5081],[11.8,5498],[55.9,5581],[72.5,5664],[76.5,5748],[84.4,5831],[95.1,5914],[97,5998],[99.6,6081],[100,6165],[100,6248],[100,6331],[100,6415],[100,6498],[100,6581],[100,6664],[100,6748],[100,6831],[100,6914],[100,6998],[100,7081],[100,7164],[100,7248],[100,7331],[100,7414],[100,7498],[100,7581],[100,7664],[100,7748],[100,7830],[100,7914],[100,7997],[100,8080],[100,8164],[100,8247],[100,8331],[100,8414],[100,8497],[100,8581],[100,8664],[100,8747],[100,8831],[100,8914],[100,8998],[100,9081],[100,9164],[100,9247],[100,9331],[100,9414],[100,9497],[100,9581],[100,9664],[100,9747],[100,9831],[100,9914],[100,9997]]",1,0,404.2675,407.066,72.81250159,2.2198,"[{""rating"":72.81250158945718,""responseTime"":2.219799999952329}]",space,2.2564,,407.0661,Not at all,0,407.0705,,,[],,,,0,8,8,8,1,audio/Narrative7Situation8.wav,audio/Narrative8Situation8.wav,audio/Narrative5Situation8.wav,audio/Narrative6Situation8.wav,2,3,3,5,,,,,,,,,,,,,,,,,,,,,,,,,,,,,,,,,,,
,,,,,,661f16434d4a84871e91d6db,2024-05-13_08h45.37.214,group3.1-3.2-social-tom,2023.2.2,Win32,59.52380952,65c5074098b851296ff0b7ed,664235694d8bef45f9dc8ea6,,,,,,,,,,,,,,,,,,,,,,,,,,,,,407.0706,1,audio/Narrative7Situation9.wav,409.083,,409.083,417.7239,"[[999,0],[999,83],[999,166],[999,249],[999,333],[999,416],[999,499],[999,583],[999,666],[999,749],[999,833],[999,916],[999,999],[999,1082],[999,1166],[999,1249],[49,1332],[49.4,1416],[49.5,1499],[49.5,1583],[49.5,1666],[39,1749],[26.4,1833],[26,1916],[43.2,1999],[76.5,2082],[84.3,2166],[85.3,2249],[86,2332],[87,2415],[87.5,2498],[87.8,2582],[88.2,2665],[88.2,2749],[88.2,2832],[88.2,2915],[88.2,2998],[89.8,3082],[90.6,3165],[90.6,3248],[90.8,3332],[90.8,3415],[90.8,3499],[90.8,3582],[90.8,3665],[91.7,3749],[92.5,3832],[93.5,3915],[95.2,3999],[95.7,4092],[97,4175],[97.9,4258],[98.9,4343],[99.7,4415],[100,4501],[100,4591],[100,4674],[100,4757],[100,4842],[100,4923],[100,5008],[100,5090],[100,5174],[100,5250],[100,5340],[100,5420],[100,5507],[100,5587],[100,5665],[100,5757],[100,5832],[100,5915],[100,5999],[100,6082],[100,6165],[100,6248],[100,6339],[100,6415],[100,6507],[100,6582],[100,6673],[100,6749],[100,6832],[100,6919],[100,6999],[100,7082],[100,7165],[100,7248],[100,7340],[100,7415],[100,7506],[100,7582],[100,7665],[100,7748],[100,7841],[100,7915],[100,7998],[100,8090],[100,8165],[100,8248],[100,8340],[100,8424],[100,8498],[100,8591]]",1,0,417.724,420.0599,97.2916762,1.4773,"[{""rating"":97.29167620340984,""responseTime"":1.4773000000715797}]",space,1.7875,,420.0599,Partially,50,420.0632,,,[],,,,0,9,9,9,1,audio/Narrative7Situation9.wav,audio/Narrative8Situation9.wav,audio/Narrative5Situation9.wav,audio/Narrative6Situation9.wav,2,3,3,4,,,,,,,,,,,,,,,,,,,,,,,,,,,,,,,,,,,
,,,,,,661f16434d4a84871e91d6db,2024-05-13_08h45.37.214,group3.1-3.2-social-tom,2023.2.2,Win32,59.52380952,65c5074098b851296ff0b7ed,664235694d8bef45f9dc8ea6,,,,,,,,,,,,,,,,,,,,,,,,,,,,,420.0634,1,audio/Narrative8Situation1.wav,425.064,,425.0642,440.9859,"[[999,6],[999,83],[999,166],[999,249],[999,333],[999,419],[999,499],[999,582],[999,666],[999,749],[999,832],[999,915],[999,999],[999,1082],[999,1165],[999,1248],[999,1333],[999,1416],[999,1499],[999,1583],[999,1673],[999,1756],[999,1840],[999,1915],[999,2006],[999,2082],[999,2166],[999,2256],[999,2339],[999,2423],[999,2505],[999,2582],[49.6,2672],[49.6,2756],[48.9,2839],[44.9,2922],[31.4,3006],[24.9,3081],[15.2,3165],[8.6,3248],[6,3340],[3.3,3423],[0.6,9920],[16.1,10004],[43.2,10088],[69,10171],[86.3,10255],[94.8,10338],[97.2,10421],[97.4,10498],[97.4,10581],[97.4,10664],[97.4,10747],[97.4,10831],[97.4,10914],[97.4,10997],[97.4,11087],[97.4,11164],[97.4,11248],[97.4,11331],[97.4,11414],[97.4,11498],[97.4,11581],[97.4,11664],[97.4,11747],[97.4,11830],[97.4,11914],[97.4,12004],[97.4,12088],[97.4,12164],[97.4,12254],[97.4,12330],[97.4,12414],[97.4,12500],[97.4,12580],[97.4,12664],[97.4,12747],[97.4,12830],[97.4,12914],[97.4,12997],[97.4,13081],[97.4,13164],[97.4,13247],[97.4,13337],[97.4,13413],[97.4,13497],[97.4,13580],[97.4,13663],[97.4,13747],[97.4,13833],[97.4,13913],[97.4,14000],[97.4,14080],[97.4,14163],[97.4,14248],[94.3,14338],[93,14421],[92.8,14504],[92.6,14580],[92.5,14670],[92.5,14746],[92.5,14837],[92.5,14913],[92.5,15004],[92.5,15080],[92.5,15166],[92.5,15254],[92.5,15330],[92.5,15417],[92.5,15497],[92.5,15580],[92.5,15670],[92.5,15747],[92.5,15837],[92.5,15921]]",1,0,440.9861,442.6446,46.97916508,1.0691,"[{""rating"":46.97916507720947,""responseTime"":1.069100000023866}]",space,1.1014,,442.6448,Definitely yes,100,442.6483,,,[],,,,0,10,10,10,1,audio/Narrative8Situation1.wav,audio/Narrative7Situation1.wav,audio/Narrative6Situation1.wav,audio/Narrative5Situation1.wav,5,2,2,5,,,,,,,,,,,,,,,,,,,,,,,,,,,,,,,,,,,
,,,,,,661f16434d4a84871e91d6db,2024-05-13_08h45.37.214,group3.1-3.2-social-tom,2023.2.2,Win32,59.52380952,65c5074098b851296ff0b7ed,664235694d8bef45f9dc8ea6,,,,,,,,,,,,,,,,,,,,,,,,,,,,,442.6485,1,audio/Narrative8Situation2.wav,445.6603,,445.6605,455.7826,"[[999,9],[999,83],[999,166],[999,250],[999,333],[999,416],[999,500],[999,583],[999,673],[999,757],[999,832],[999,916],[999,1006],[999,1084],[999,1167],[999,1256],[999,1339],[999,1423],[32.2,1507],[31.7,1583],[31.7,1666],[31.8,1750],[35.3,1834],[36.3,1923],[36.3,1999],[36.4,2082],[38,2166],[53.2,2256],[58.8,2340],[59.3,2423],[59.4,2502],[59.4,2582],[59.4,2665],[59.4,2756],[59.4,2832],[59.4,2915],[59.4,3003],[28.6,3089],[17.4,3173],[17.4,3249],[17.4,3332],[17.4,3416],[17.4,3499],[17.4,3582],[17.4,3672],[17.4,3749],[17.4,3832],[17.4,3922],[17.4,3999],[17.4,4083],[17.4,4165],[17.4,4249],[17.4,4332],[17.4,4415],[17.4,4499],[17.4,4582],[15.6,4673],[14.4,4756],[14,4833],[11.1,4923],[2.2,5006]]",1,0,455.7826,457.7478,1.354165872,1.1117,"[{""rating"":1.3541658719380678,""responseTime"":1.1117000000476764}]",space,1.4119,,457.7479,Not at all,0,457.7509,,,[],,,,0,11,11,11,1,audio/Narrative8Situation2.wav,audio/Narrative7Situation2.wav,audio/Narrative6Situation2.wav,audio/Narrative5Situation2.wav,3,3,3,3,,,,,,,,,,,,,,,,,,,,,,,,,,,,,,,,,,,
,,,,,,661f16434d4a84871e91d6db,2024-05-13_08h45.37.214,group3.1-3.2-social-tom,2023.2.2,Win32,59.52380952,65c5074098b851296ff0b7ed,664235694d8bef45f9dc8ea6,,,,,,,,,,,,,,,,,,,,,,,,,,,,,457.7511,1,audio/Narrative8Situation3.wav,461.7578,,461.7579,484.1377,"[[43.2,3679],[46.4,3756],[48.9,3840],[52.1,3923],[54.9,4005],[57.9,4089],[61.6,4173],[65,4256],[67.6,4332],[69.2,4418],[70.3,4507],[71.4,4583],[72.4,4666],[73.1,4756],[73.1,4832],[73.1,4923],[73.1,4999],[73.1,5082],[73.1,5165],[73.1,5249],[76.1,5339],[79,5423],[81.1,5506],[82,5582],[82.3,5671],[82.8,5756],[83.8,5839],[84.6,5923],[85.3,6007],[85.4,6082],[85.4,6172],[85.4,6249],[85.4,6332],[85.4,6415],[85.4,6504],[85.4,6589],[85.4,6665],[85.4,6749],[85.4,6832],[85.4,6915],[85.4,6999],[85.4,7089],[85.4,7165],[85.4,7249],[85.4,7331],[84,7415],[81.4,7498],[80.4,7589],[80.3,7672],[80.3,7755],[80.3,7831],[80.3,7922],[80.3,8005],[80.3,8082],[80.3,8165],[80.3,8248],[80.3,8331],[80.3,8415],[80.3,8499],[80.3,8588],[80.3,8665],[80.3,8755],[80.3,8838],[80.3,8915],[80.3,9003],[80.3,9081],[80.3,9165],[80.3,9248],[80.3,9331],[80.3,9415],[80.3,9498],[80.3,9581],[80.3,9665],[80.3,9749],[80.3,9831],[80.3,9914],[80.3,9998],[80.3,10081],[80.3,10165],[80.3,10248],[80.3,10331],[80.3,10422],[80.3,10506],[80.3,10581],[80.3,10665],[80.3,10747],[80.3,10831],[80.3,10915],[80.3,10998],[80.3,11081],[80.3,11164],[80.3,11248],[80.3,11331],[80.3,11415],[80.3,11498],[80.3,11581],[80.3,11665],[80.3,11748],[80.3,11831],[80.3,11915],[80.3,11998],[80.3,12088],[80.3,12164],[80.3,12248],[80.3,12331],[80.3,12414],[80.3,12497],[78.4,12588],[75.9,12671],[72.7,12755],[69.7,12838],[67.6,12922],[65.4,13005],[63.8,13088],[61.9,13172],[60.2,13248],[58.3,13338],[57.4,13421],[57.2,13498],[57.2,13587],[57.2,13664],[57.2,13747],[57.2,13831],[57.2,13921],[57.2,13998],[57.2,14081],[57.2,14165],[57.2,14248],[57.2,14331],[57.2,14414],[52.1,14497],[39.3,14588],[33.2,14664],[27.8,14755],[27.8,14830],[27.8,14921],[27.8,14998],[27.8,15080],[27.8,15164],[20.2,15254],[15.3,15338],[14.7,15421],[14.5,15498],[13.4,15588],[8.1,15671],[5.8,15754],[4.8,15838],[3.9,15920],[2.8,15998],[1.4,16088],[0.8,16171],[0.8,16247],[0.8,16337],[0.9,16421],[0.9,16497],[0.9,16580],[0.9,16663],[0.9,16748],[0.9,16830],[0.9,16913],[0.9,16997],[0.9,17080],[0.9,17163],[0.9,17247],[0.9,17330],[0.9,17413],[0.9,17497],[0.9,17580],[0.9,17663],[0.9,17747],[0.9,17830],[0.9,17913],[0.9,17997],[0.9,18087],[0.9,18163],[0.9,18247],[0.9,18330],[0.9,18413],[0.9,18504],[0.9,18580],[0.9,18663],[0.9,18746],[0.9,18830],[0.9,18913],[0.9,18997],[0.9,19080],[0.9,19163],[0.9,19247],[0.9,19330],[0.9,19419],[0.9,19496],[0.9,19580],[0.9,19663],[0.9,19746],[0.9,19835],[0.9,19913],[0.9,19996],[0.9,20080],[0.9,20163],[0.9,20246],[0.9,20329],[0.9,20413],[0.9,20496],[0.9,20579],[0.9,20663],[0.9,20753],[0.9,20829],[0.9,20913],[0.9,20996],[0.9,21079],[0.9,21168],[0.9,21253],[0.9,21329],[0.9,21413],[0.9,21496],[0.9,21579],[0.9,21663],[0.9,21746],[0.9,21829],[0.9,21913],[0.9,21999],[0.9,22079],[0.9,22162],[0.9,22249],[0.9,22329]]",1,0,484.1383,485.6208,30.31249841,1.0332,"[{""rating"":30.31249841054281,""responseTime"":1.0331999999284562}]",space,0.9424,,485.6209,Partially,50,485.6247,,,[],,,,0,12,12,12,1,audio/Narrative8Situation3.wav,audio/Narrative7Situation3.wav,audio/Narrative6Situation3.wav,audio/Narrative5Situation3.wav,4,8,5,3,,,,,,,,,,,,,,,,,,,,,,,,,,,,,,,,,,,
,,,,,,661f16434d4a84871e91d6db,2024-05-13_08h45.37.214,group3.1-3.2-social-tom,2023.2.2,Win32,59.52380952,65c5074098b851296ff0b7ed,664235694d8bef45f9dc8ea6,,,,,,,,,,,,,,,,,,,,,,,,,,,,,485.6248,1,audio/Narrative8Situation4.wav,488.6375,,488.6378,502.8374,"[[29.8,2589],[28.7,2672],[28.3,2749],[28.3,2832],[28.3,2915],[28.3,2998],[28.3,3088],[28.4,3166],[28.4,3248],[28.4,3332],[28.4,3415],[28.4,3498],[28.4,3581],[28.4,3665],[28.4,3748],[28.4,3831],[28.4,3915],[28.4,3999],[28.4,4081],[28.4,4165],[28.4,4248],[28.4,4331],[32.5,4416],[55.1,4506],[62.1,4589],[69.1,4672],[73.6,4756],[77.7,4839],[80.5,4922],[81,4998],[81.6,5089],[81.8,5171],[82.1,5255],[82.1,5331],[82.1,5414],[82.1,5498],[82.1,5581],[82.1,5665],[82.1,5754],[82.1,5831],[82.1,5914],[82.1,5998],[82.1,6081],[82.1,6164],[82.1,6248],[82.1,6338],[82.1,6414],[82.1,6497],[82.1,6588],[82.1,6664],[82.1,6748],[82.1,6831],[82.1,6914],[82.1,6998],[82.1,7081],[82.1,7164],[82.1,7248],[82.1,7331],[82.1,7414],[82.1,7498],[82.1,7581],[82.1,7664],[82.1,7747],[82.1,7831],[82.1,7914],[82.1,7998],[82.1,8081],[82.1,8164],[82.1,8247],[82.1,8331],[82.1,8414],[82.1,8498],[82.1,8581],[82.1,8664],[82.1,8747],[82.1,8837],[82.1,8914],[82.1,8997],[82.1,9081],[82.1,9164],[82.1,9247],[82.1,9330],[83.3,9426],[84.7,9505],[85.4,9582],[86.1,9671],[87.1,9747],[88.9,9831],[90.4,9921],[91.7,10004],[92.7,10088],[94,10171],[95.5,10255],[96.4,10330],[97.7,10423],[98.4,10504],[99.3,10588],[99.8,10672],[100,10754],[100,10837],[100,10913],[100,10997],[100,11080],[100,11163],[100,11247],[100,11330],[100,11413],[100,11497],[100,11587],[100,11664],[100,11754],[100,11830],[100,11914],[100,11997],[100,12080],[100,12164],[100,12254],[100,12331],[100,12414],[100,12497],[100,12580],[100,12669],[100,12747],[100,12829],[100,12913],[100,12997],[100,13086],[100,13163],[100,13247],[100,13330],[100,13413],[100,13497],[100,13580],[100,13663],[100,13747],[100,13830],[100,13913],[100,13997],[100,14083],[100,14163]]",1,0,502.8375,504.8245,99.89584287,1.3548,"[{""rating"":99.89584287007649,""responseTime"":1.35479999995232}]",space,1.4335,,504.8245,Not at all,0,504.8269,,,[],,,,0,13,13,13,1,audio/Narrative8Situation4.wav,audio/Narrative7Situation4.wav,audio/Narrative6Situation4.wav,audio/Narrative5Situation4.wav,3,3,2,1,,,,,,,,,,,,,,,,,,,,,,,,,,,,,,,,,,,
,,,,,,661f16434d4a84871e91d6db,2024-05-13_08h45.37.214,group3.1-3.2-social-tom,2023.2.2,Win32,59.52380952,65c5074098b851296ff0b7ed,664235694d8bef45f9dc8ea6,,,,,,,,,,,,,,,,,,,,,,,,,,,,,504.8272,1,audio/Narrative8Situation5.wav,506.8342,,506.8344,515.1027,"[[92.1,173],[60,1006],[60,1083],[60,1165],[60,1252],[58.4,1332],[53.7,1423],[51.5,1506],[51.1,1582],[51.1,1671],[51.1,1752],[51.1,1832],[51.1,1916],[51.1,1999],[51.1,2082],[51.1,2166],[51.1,2252],[51.1,2339],[51.1,2415],[67.6,2506],[74,2589],[78.1,2673],[83.6,2756],[87.1,2840],[91.3,2923],[95.7,3006],[99,3090],[99.5,3165],[99.5,3248],[99.5,3332],[99.5,3415],[99.5,3499],[99.5,3582],[99.5,3665],[99.5,3748],[99.5,3835],[99.5,3915],[99.5,4005],[99.5,4082],[99.5,4165],[99.5,4249],[99.5,4332],[99.5,4415],[99.5,4505],[99.5,4582],[99.5,4668],[99.5,4748],[99.5,4832],[99.5,4915],[99.5,5002],[99.5,5082],[99.5,5165],[99.5,5248],[99.5,5332],[99.5,5415],[99.5,5505],[99.5,5581],[99.5,5664],[99.5,5748],[99.5,5832],[99.5,5915],[99.5,5998],[99.5,6081],[99.5,6165],[99.5,6248],[99.5,6331],[99.5,6415],[99.5,6498],[99.5,6582],[99.5,6665],[99.5,6748],[99.5,6832],[99.5,6914],[99.5,6998],[99.5,7081],[99.5,7164],[99.5,7248],[99.5,7331],[99.5,7415],[99.5,7498],[99.5,7582],[99.5,7664],[99.5,7748],[99.5,7831],[99.5,7915],[99.5,7998],[99.5,8081],[99.5,8165],[99.5,8248]]",1,0,515.1028,517.1824,99.89584287,1.7146,"[{""rating"":99.89584287007649,""responseTime"":1.714600000023779}]",space,1.5333,,517.1825,Partially,50,517.1861,,,[],,,,0,14,14,14,1,audio/Narrative8Situation5.wav,audio/Narrative7Situation5.wav,audio/Narrative6Situation5.wav,audio/Narrative5Situation5.wav,2,5,2,5,,,,,,,,,,,,,,,,,,,,,,,,,,,,,,,,,,,
,,,,,,661f16434d4a84871e91d6db,2024-05-13_08h45.37.214,group3.1-3.2-social-tom,2023.2.2,Win32,59.52380952,65c5074098b851296ff0b7ed,664235694d8bef45f9dc8ea6,,,,,,,,,,,,,,,,,,,,,,,,,,,,,517.1862,1,audio/Narrative8Situation6.wav,519.199,,519.1992,525.6976,"[[88.3,2756],[90.1,2833],[90.3,2916],[92.1,3006],[94.2,3089],[99.5,3173],[100,3256],[100,3338],[100,3416],[100,3498],[100,3582],[100,3672],[100,3749],[100,3832],[100,3915],[100,3998],[100,4082],[100,4165],[100,4248],[100,4332],[100,4416],[100,4498],[100,4582],[100,4665],[100,4755],[100,4831],[100,4915],[100,4998],[100,5082],[100,5165],[100,5248],[100,5332],[100,5415],[100,5505],[100,5581],[100,5665],[100,5748],[100,5839],[100,5915],[100,5998],[100,6081],[100,6165],[100,6248],[100,6332],[100,6415],[100,6498]]",1,0,525.6981,526.8973,98.95833333,0.8497,"[{""rating"":98.95833333333333,""responseTime"":0.8496999999284753}]",space,0.6398,,526.8975,Partially,50,526.9006,,,[],,,,0,15,15,15,1,audio/Narrative8Situation6.wav,audio/Narrative7Situation6.wav,audio/Narrative6Situation6.wav,audio/Narrative5Situation6.wav,2,3,2,3,,,,,,,,,,,,,,,,,,,,,,,,,,,,,,,,,,,
,,,,,,661f16434d4a84871e91d6db,2024-05-13_08h45.37.214,group3.1-3.2-social-tom,2023.2.2,Win32,59.52380952,65c5074098b851296ff0b7ed,664235694d8bef45f9dc8ea6,,,,,,,,,,,,,,,,,,,,,,,,,,,,,526.9008,1,audio/Narrative8Situation7.wav,529.914,,529.9141,542.0191,"[[98,2916],[80.9,3006],[68.1,3082],[51.5,3171],[39.1,3248],[29.9,3339],[29.9,3416],[29.9,3505],[29.9,3583],[29.9,3665],[29.9,3754],[29.9,3832],[29.9,3915],[21.6,4004],[9.2,4082],[3.5,4166],[2.7,4249],[2.7,4338],[2.7,4415],[2.7,4505],[2.7,4582],[2.7,4665],[2.7,4755],[2.7,4833],[1.8,4915]]",1,0,542.0193,542.9957,0.416668256,0.5972,"[{""rating"":0.4166682561238588,""responseTime"":0.5972000000476783}]",space,0.4341,,542.996,Partially,50,542.9982,,,[],,,,0,16,16,16,1,audio/Narrative8Situation7.wav,audio/Narrative7Situation7.wav,audio/Narrative6Situation7.wav,audio/Narrative5Situation7.wav,3,5,5,4,,,,,,,,,,,,,,,,,,,,,,,,,,,,,,,,,,,
,,,,,,661f16434d4a84871e91d6db,2024-05-13_08h45.37.214,group3.1-3.2-social-tom,2023.2.2,Win32,59.52380952,65c5074098b851296ff0b7ed,664235694d8bef45f9dc8ea6,,,,,,,,,,,,,,,,,,,,,,,,,,,,,542.9983,1,audio/Narrative8Situation8.wav,546.0121,,546.0125,558.8768,"[[16.9,750],[17.2,832],[17.4,915],[17.4,998],[17.4,1082],[17.4,1164],[17.4,1248],[17.4,1331],[17.5,1414],[17.5,1498],[17.5,1581],[17.5,1664],[17.5,1748],[17.5,1838],[17.5,1914],[17.5,1998],[17.5,2082],[17.5,2164],[17.5,2248],[17.5,2331],[17.5,2414],[17.5,2498],[17.6,2582],[17.6,2664],[17.6,2754],[17.6,2831],[17.6,2914],[17.3,2998],[15.9,3089],[14,3172],[12.9,3251],[12.4,3338],[11.6,3414],[10.1,3505],[6.1,3588],[3.2,3664],[2.6,3748],[2.6,3831],[2.6,3915],[2.6,3998],[2.6,4081],[2.6,4165],[2.6,4248],[2.6,4331],[2.6,4415],[2.6,4497],[2.6,4588],[2.6,4664],[2.6,4747],[2.6,4831],[2.6,4918],[2.6,4998],[2.6,5088],[2.6,5164],[2.6,5247],[2.6,5331],[2.6,5414],[2.6,5498],[2.6,5581],[2.6,5664],[2.6,5747],[2.6,5837],[2.6,5914],[2.6,5997],[2.6,6086],[2.6,6164],[2.6,6247],[2.6,6331],[2.6,6414],[2.6,6497],[2.6,6580],[2.6,6664],[2.6,6747],[2.6,6830],[2.6,6913],[2.6,6997],[2.6,7080],[2.6,7164],[2.6,7254],[2.6,7331],[2.6,7414],[2.6,7497],[2.6,7581],[2.6,7664],[2.6,7746],[2.6,7833],[2.6,7914],[2.6,7997],[2.6,8087],[2.6,8164],[2.6,8247],[2.6,8330],[2.6,8420],[2.6,8497],[2.6,8580],[2.6,8663],[2.6,8747],[2.6,8830],[2.6,8913],[2.6,8997],[2.6,9080],[2.6,9166],[2.6,9247],[2.6,9331],[2.6,9416],[2.6,9497],[2.6,9580],[2.6,9663],[2.6,9747],[2.6,9830],[2.6,9914],[2.6,9997],[2.6,10080],[2.6,10163],[2.6,10247],[2.6,10337],[2.6,10413],[2.6,10496],[2.6,10580],[2.6,10663],[2.6,10747],[2.6,10830],[2.6,10914],[2.6,10996],[2.6,11079],[2.6,11163],[2.6,11246],[2.6,11330],[2.6,11413],[2.6,11496],[2.6,11580],[2.6,11663],[22,11749],[62.5,11837],[72.3,11919],[73.4,12000],[73.9,12080],[74.8,12171],[75,12247],[75,12337],[75,12413],[75,12497],[75,12580],[75,12663],[75,12746],[75,12830]]",1,0,558.8772,560.6924,45.10416985,1.414,"[{""rating"":45.104169845581055,""responseTime"":1.4139999999999873}]",space,1.2673,,560.6926,Not at all,0,560.6964,,,[],,,,0,17,17,17,1,audio/Narrative8Situation8.wav,audio/Narrative7Situation8.wav,audio/Narrative6Situation8.wav,audio/Narrative5Situation8.wav,3,2,5,3,,,,,,,,,,,,,,,,,,,,,,,,,,,,,,,,,,,
,,,,,,661f16434d4a84871e91d6db,2024-05-13_08h45.37.214,group3.1-3.2-social-tom,2023.2.2,Win32,59.52380952,65c5074098b851296ff0b7ed,664235694d8bef45f9dc8ea6,,,,,,,,,,,,,,,,,,,,,,,,,,,,,560.6966,1,audio/Narrative8Situation9.wav,563.7079,,563.708,575.0409,"[[48.1,3846],[49.5,3920],[50.3,4001],[52.8,4090],[53.9,4167],[57.6,4257],[61.9,4336],[67.4,4424],[72,4506],[76.8,4590],[80.7,4673],[82.5,4756],[84.3,4839],[85.2,4923],[85.4,5006],[85.4,5082],[85.4,5165],[85.4,5256],[85.4,5332],[85.4,5416],[85.4,5504],[85.4,5583],[85.4,5673],[85.4,5749],[85.4,5840],[85.4,5923],[85.4,5999],[85.4,6082],[85.4,6166],[85.4,6250],[85.4,6332],[85.4,6416],[85.4,6499],[85.4,6588],[85.4,6673],[85.4,6749],[85.4,6832],[85.4,6922],[85.4,6999],[85.4,7082],[85.4,7171],[85.4,7249],[85.4,7332],[85.4,7416],[85.4,7506],[85.4,7582],[85.4,7665],[85.4,7749],[85.4,7832],[85.4,7922],[85.4,7999],[85.4,8082],[85.4,8173],[85.4,8249],[85.4,8332],[85.4,8415],[85.4,8499],[85.4,8582],[85.4,8665],[85.4,8749],[85.4,8832],[85.4,8923],[85.4,8999],[85.4,9089],[85.4,9165],[85.4,9249],[85.4,9332],[85.4,9415],[85.4,9498],[85.4,9582],[85.4,9665],[85.4,9749],[85.4,9832],[85.4,9915],[85.4,9999],[85.4,10081],[85.4,10171],[85.4,10249],[85.4,10332],[85.4,10415],[85.4,10499],[85.4,10581],[85.4,10664],[85.4,10748],[85.4,10832],[85.4,10915],[85.4,10999],[85.4,11081],[85.4,11165],[85.4,11249],[85.4,11332]]",1,0,575.0413,577.7564,79.6875,2.1496,"[{""rating"":79.6875,""responseTime"":2.149600000023838}]",space,2.1681,,577.7565,Partially,50,586.2553,49.79166985,6.3922,"[{""rating"":49.791669845581055,""responseTime"":6.392200000047637}]",space,7.9353,,0,18,18,18,1,audio/Narrative8Situation9.wav,audio/Narrative7Situation9.wav,audio/Narrative6Situation9.wav,audio/Narrative5Situation9.wav,3,2,4,3,,,,,,,,,,,,,,,,,,,,,,,,,,,,,,,,,,,
,,,,,,661f16434d4a84871e91d6db,2024-05-13_08h45.37.214,group3.1-3.2-social-tom,2023.2.2,Win32,59.52380952,65c5074098b851296ff0b7ed,664235694d8bef45f9dc8ea6,,,,,,,,,,,,,,,,,,,,,,,,,,,599.2278,601.803,601.8128,2,audio/Narrative13Situation2.wav,601.8128,,601.8128,631.5701,"[[999,0],[999,72],[999,155],[999,246],[999,322],[999,406],[999,489],[999,573],[999,656],[999,740],[999,822],[999,906],[999,989],[999,1072],[999,1155],[999,1245],[999,1322],[999,1405],[999,1489],[999,1572],[999,1663],[999,1739],[999,1828],[999,1905],[999,1996],[10.9,2079],[8.4,2162],[4.7,2246],[3.3,2329],[3.2,2409],[3.1,2490],[3.1,2579],[3,2663],[2.8,2746],[2.3,2829],[2.2,2905],[2.2,2989],[2.2,3072],[2.2,3155],[2.2,3239],[2.2,3322],[2.2,3405],[2.2,3488],[2.2,3579],[2.2,3662],[2.2,3738],[2.2,3822],[2.2,3905],[2.2,3988],[2.2,4075],[2.2,4155],[2.2,4238],[2.2,4322],[2.2,4405],[2.2,4488],[2.2,4571],[2.2,4655],[2.2,4738],[2.2,4822],[2.2,4905],[2.2,4988],[2.2,5072],[2.2,5154],[2.2,5238],[2.2,5322],[2.2,5405],[2.2,5488],[2.2,5572],[2.2,5655],[2.2,5738],[2.2,5824],[2.2,5905],[2.2,5988],[2.2,6071],[2.2,6155],[2.2,6238],[2.2,6321],[2.2,6411],[2.2,6489],[2.2,6571],[2.2,6654],[2.2,6738],[2.2,6822],[2.2,6904],[2.2,6994],[2.2,7072],[2.2,7155],[2.2,7238],[2.2,7321],[2.2,7404],[2.2,7488],[2.2,7572],[2.2,7655],[2.2,7738],[2.2,7821],[2.2,7905],[2.2,7988],[2.2,8071],[2.2,8155],[5,8244],[31.1,8321],[65.7,8404],[84.3,8489],[89.6,8578],[89.9,8654],[90.1,8745],[90.1,8821],[97.5,8912],[100,8994],[100,9078],[100,9157],[100,9237],[100,9321],[100,9404],[100,9487],[100,9578],[100,9654],[100,9737],[100,9829],[100,9904],[100,9995],[100,10077],[100,10154],[100,10238],[100,10321],[100,10404],[100,10487],[100,10571],[100,10654],[100,10738],[100,10821],[100,10904],[100,10987],[100,11071],[100,11154],[100,11237],[100,11326],[100,11404],[100,11487],[100,11577],[100,11654],[100,11738],[100,11824],[100,11904],[100,11987],[100,12071],[100,12154],[100,12237],[100,12321],[100,12403],[100,12487],[100,12578],[100,12654],[100,12744],[100,12828],[100,12904],[100,12987],[100,13077],[100,13154],[100,13237],[100,13324],[100,13404],[100,13487],[100,13571],[100,13654],[100,13737],[100,13826],[100,13904],[100,13987],[100,14075],[100,14153],[100,14237],[100,14320],[100,14404],[100,14494],[100,14577],[100,14654],[100,14744],[100,14820],[100,14904],[100,14987],[100,15077],[100,15160],[100,15236],[100,15320],[100,15404],[100,15486],[100,15577],[100,15653],[100,15736],[100,15820],[100,15903],[100,15986],[100,16077],[100,16153],[100,16237],[100,16320],[100,16403],[100,16494],[100,16570],[100,16653],[100,16737],[100,16820],[100,16903],[100,16986],[100,17070],[100,17153],[100,17236],[100,17320],[100,17403],[99.9,17493],[96.5,17577],[89.5,17660],[82.4,17737],[64.5,17827],[50.1,17910],[44.1,17986],[44.1,18070],[44.1,18153],[44.1,18236],[44.1,18320],[44.1,18403],[44.1,18493],[44.1,18569],[36.4,18660],[31.5,18743],[22.2,18828],[15.1,18910],[9.1,18994],[7,19071],[6.7,19160],[6.6,19237],[6.6,19319],[6.6,19410],[6.6,19493],[6.6,19569],[6.6,19653],[6.6,19736],[6.6,19826],[6.6,19907],[6.6,19986],[6.6,20076],[6.6,20153],[6.6,20236],[6.6,20319],[6.6,20409],[6.6,20486],[4.3,20578],[2.7,20660],[2.5,20743],[2.5,20819],[2.5,20902],[2.5,20986],[2.4,21070],[0.3,21160]]",1,0,631.5703,631.58,,,[],,,,631.58,Definitely yes,100,631.5832,,,[],,,,0,0,0,0,1,audio/Narrative13Situation2.wav,audio/Narrative13Situation2.wav,audio/Narrative13Situation2.wav,audio/Narrative13Situation2.wav,2,2,2,2,,,586.2574,599.2221,space,12.4319,,,,,,,,,,,,,,,,,,,,,,,,,,,,,
,,,,,,661f16434d4a84871e91d6db,2024-05-13_08h45.37.214,group3.1-3.2-social-tom,2023.2.2,Win32,59.52380952,65c5074098b851296ff0b7ed,664235694d8bef45f9dc8ea6,,,,,,,,,,,,,,,,,,,,,,,,,,,,,631.5835,2,audio/Narrative5Situation1.wav,636.597,,636.5972,649.9015,"[[0.5,2173],[0.7,2256],[0.8,2340],[0.8,2422],[0.8,2499],[0.8,2582],[0.8,2666],[0.8,2749],[0.8,2832],[0.8,2916],[0.8,2999],[0.8,3082],[0.8,3166],[0.8,3249],[0.8,3332],[0.8,3415],[0.8,3499],[0.8,3588],[0.8,3665],[0.8,3749],[0.8,3839],[0.8,3916],[0.8,3999],[0.8,4082],[0.8,4172],[0.8,4249],[0.8,4332],[0.8,4415],[0.8,4499],[0.8,4582],[0.8,4665],[0.8,4749],[0.8,4832],[0.8,4915],[0.8,5002],[0.8,5081],[0.8,5173],[0.8,5249],[0.8,5332],[0.8,5415],[0.8,5498],[0.8,5581],[0.8,5665],[0.8,5748],[0.8,5832],[0.8,5914],[0.8,5999],[0.8,6082],[0.8,6165],[0.8,6255],[0.8,6332],[0.8,6415],[0.8,6498],[0.8,6582],[0.8,6665],[0.8,6748],[0.8,6831],[0.8,6920],[0.8,6999],[0.8,7082],[0.8,7164],[0.8,7256],[0.8,7331],[0.8,7422],[0.8,7498],[0.8,7588],[0.8,7665],[0.8,7748],[0.8,7831],[0.8,7914],[0.8,7998],[0.8,8081],[0.8,8165],[0.8,8249],[0.8,8331],[0.8,8415],[0.8,8498],[0.8,8581],[0.8,8664],[0.8,8748],[0.8,8831],[0.8,8914],[0.8,8998],[0.8,9081],[0.8,9164],[0.8,9248],[0.8,9331],[0.8,9414],[0.8,9501],[0.8,9587],[0.8,9664],[0.8,9748],[0.8,9831],[0.8,9914],[0.8,9998],[0.8,10081],[0.8,10164],[0.8,10248],[0.8,10331],[0.8,10414],[0.8,10498],[0.8,10587],[0.8,10664],[0.8,10747],[0.8,10831],[0.8,10914],[0.8,10998],[0.8,11081],[0.8,11171],[0.8,11248],[0.8,11331],[0.8,11421],[0.8,11498],[0.8,11581],[0.8,11671],[0.8,11748],[0.8,11831],[0.8,11914],[0.8,11998],[0.8,12080],[0.8,12164],[0.8,12248],[0.8,12330],[0.8,12414],[0.8,12497],[0.8,12580],[0.8,12671],[0.8,12747],[0.8,12830],[0.8,12917],[0.8,12997],[0.8,13080],[0.8,13164],[0.8,13247]]",1,0,649.9017,652.4015,0.833332539,1.527,"[{""rating"":0.8333325386047363,""responseTime"":1.52699999999993}]",space,1.9521,,652.4016,Not at all,0,652.4042,,,[],,,,0,1,1,1,1,audio/Narrative7Situation1.wav,audio/Narrative8Situation1.wav,audio/Narrative5Situation1.wav,audio/Narrative6Situation1.wav,2,5,5,2,,,,,,,,,,,,,,,,,,,,,,,,,,,,,,,,,,,
,,,,,,661f16434d4a84871e91d6db,2024-05-13_08h45.37.214,group3.1-3.2-social-tom,2023.2.2,Win32,59.52380952,65c5074098b851296ff0b7ed,664235694d8bef45f9dc8ea6,,,,,,,,,,,,,,,,,,,,,,,,,,,,,652.4044,2,audio/Narrative5Situation2.wav,655.4115,,655.4116,684.89,"[[0.4,2089],[0.3,2172],[0.2,2249],[0.2,2338],[0.2,2415],[0.2,2498],[0.2,2581],[0.2,2671],[0.2,2748],[0.2,2838],[0.2,2915],[0.2,2998],[0.2,3087],[0.2,3165],[0.2,3248],[0.2,3331],[0.2,3415],[0.2,3498],[0.2,3581],[0.2,3665],[0.2,3748],[0.2,3838],[0.2,3915],[0.2,3998],[0.2,4081],[0.2,4165],[0.2,4255],[0.2,4331],[0.2,4415],[0.2,4505],[0.2,4581],[0.2,4664],[0.2,4747],[0.2,4838],[0.2,4915],[0.2,4998],[0.2,5081],[0.2,5164],[0.2,5248],[0.2,5337],[0.2,5414],[0.2,5497],[0.2,5586],[0.2,5664],[0.2,5748],[0.2,5831],[0.2,5914],[0.2,5998],[0.2,6081],[0.2,6171],[0.2,6247],[0.2,6331],[0.2,6414],[0.2,6497],[0.2,6581],[0.2,6664],[0.2,6747],[0.2,6831],[0.2,6921],[0.2,6997],[0.2,7081],[0.2,7164],[0.2,7248],[0.2,7337],[0.2,7414],[0.2,7497],[0.2,7580],[0.2,7664],[0.2,7747],[0.2,7831],[0.2,7914],[0.2,7997],[0.2,8080],[0.2,8164],[0.2,8248],[0.2,8335],[0.2,8413],[0.2,8497],[0.2,8581],[0.2,8671],[0.2,8754],[0.2,8830],[0.2,8914],[0.2,8997],[0.2,9080],[0.2,9164],[0.2,9247],[0.2,9330],[0.2,9414],[0.2,9497],[0.2,9580],[0.2,9664],[0.2,9747],[0.2,9830],[0.2,9913],[0.2,9997],[0.2,10080],[0.2,10167],[0.2,10247],[0.2,10330],[0.2,10421],[0.2,10496],[0.2,10580],[0.2,10663],[0.2,10747],[0.2,10830],[0.2,10913],[0.2,10997],[0.2,11087],[0.2,11163],[0.2,11247],[0.2,11337],[0.2,11414],[0.2,11496],[0.2,11580],[0.2,11669],[0.2,11747],[0.2,11830],[0.2,11913],[0.2,11997],[61.8,12252],[69.5,12329],[72,12421],[74.3,12505],[75,12588],[79.2,12671],[80.7,12754],[80.7,12837],[80.7,12913],[80.7,12996],[80.7,13080],[80.7,13163],[80.7,13246],[80.7,13330],[80.7,13413],[80.7,13497],[80.7,13580],[80.7,13670],[80.7,13746],[80.7,13830],[80.7,13913],[80.7,13996],[80.7,14080],[80.7,14163],[80.7,14246],[80.7,14330],[80.7,14413],[80.7,14496],[80.7,14579],[80.7,14663],[80.7,14746],[80.7,14836],[80.7,14913],[80.7,14996],[80.7,15079],[80.7,15163],[80.7,15249],[80.7,15329],[80.7,15412],[80.7,15495],[80.7,15580],[80.7,15663],[80.7,15746],[80.7,15829],[80.7,15912],[80.7,16003],[80.7,16079],[80.7,16163],[80.7,16246],[80.7,16329],[80.7,16413],[80.7,16496],[80.7,16579],[80.7,16662],[80.7,16746],[80.7,16829],[80.7,16912],[80.7,16996],[80.7,17080],[80.7,17162],[80.7,17245],[80.7,17329],[80.7,17412],[80.7,17495],[80.7,17579],[80.7,17669],[80.7,17745],[80.7,17834],[80.7,17919],[80.7,17995],[80.7,18086],[80.7,18169],[80.7,18245],[80.7,18329],[80.7,18412],[80.7,18495],[80.7,18579],[80.7,18663],[80.7,18746],[80.7,18829],[80.7,18912],[80.7,18996],[89.4,19087],[90,19170],[90.1,19245],[90.1,19336],[90.3,19419],[90.3,19502],[90.3,19579],[90.3,19662],[90.3,19745],[89.9,19829],[87.9,19919],[87.6,20002],[87.6,20079],[87.4,20162],[87.1,20252],[86.3,20336],[86,20412],[86,20495],[86,20578],[86,20661],[86,20752],[86,20828],[86,20915],[86,20995],[86,21079],[86,21169],[86.4,21246],[86.8,21335],[86.9,21412],[87,21495],[87,21578],[87,21662],[87,21745],[87,21828],[87,21912],[87,21995],[87,22078],[87,22161],[87.1,22246],[87.8,22335],[89.1,22420],[90.6,22503],[91.6,22585],[93.9,22670],[95.7,22748],[96,22829],[96.8,22919],[97.1,22996],[97.4,23084],[97.4,23161],[97.9,23252],[98.9,23335],[99.3,23420],[99.5,23495],[99.5,23578],[100,23663],[100,23745],[100,23828],[100,23911],[100,24001],[100,24078],[100,24166],[100,24245],[100,24335],[100,24416],[100,24494],[100,24578],[100,24669],[100,24747],[100,24828],[100,24911],[100,24995],[100,25078],[100,25161],[100,25245],[100,25328],[100,25419],[100,25501],[100,25578],[100,25661],[100,25745],[100,25828],[100,25911],[100,25995],[100,26077],[100,26168],[100,26251],[100,26328],[100,26411],[100,26494],[100,26584],[100,26666],[100,26744],[100,26828],[100,26911],[100,27001],[100,27078],[100,27161],[100,27244],[100,27334],[100,27411],[100,27494],[100,27577],[100,27661],[100,27744],[100,27834],[100,27911],[100,27994],[100,28077],[100,28167],[100,28252],[100,28334],[100,28411],[100,28494],[100,28582],[100,28661],[100,28744],[100,28827],[100,28910],[100,28994],[100,29077],[100,29165],[100,29244],[100,29327],[100,29417]]",1,0,684.8905,687.9056,51.66666508,2.5015,"[{""rating"":51.66666507720947,""responseTime"":2.5014999999999645}]",space,2.4681,,687.9058,Not at all,0,687.9088,,,[],,,,0,2,2,2,1,audio/Narrative7Situation2.wav,audio/Narrative8Situation2.wav,audio/Narrative5Situation2.wav,audio/Narrative6Situation2.wav,3,3,3,3,,,,,,,,,,,,,,,,,,,,,,,,,,,,,,,,,,,
,,,,,,661f16434d4a84871e91d6db,2024-05-13_08h45.37.214,group3.1-3.2-social-tom,2023.2.2,Win32,59.52380952,65c5074098b851296ff0b7ed,664235694d8bef45f9dc8ea6,,,,,,,,,,,,,,,,,,,,,,,,,,,,,687.909,2,audio/Narrative5Situation3.wav,690.9223,,690.9225,704.842,"[[52.4,2588],[52.8,2672],[52.9,2748],[51.6,2839],[41.1,2922],[39.7,3005],[39.5,3082],[39.5,3172],[40.3,3255],[66.8,3340],[71.9,3422],[73.4,3506],[75.5,3589],[79.6,3664],[88,3755],[89.5,3831],[89.9,3922],[91.1,4006],[94,4081],[96.8,4172],[97.8,4249],[98.9,4332],[99.3,4415],[99.3,4498],[99.4,4581],[99.4,4664],[99.5,4755],[99.5,4831],[99.5,4914],[99.5,5003],[99.5,5081],[99.5,5164],[99.5,5248],[99.5,5331],[99.5,5414],[99.5,5504],[99.5,5581],[99.5,5664],[99.5,5748],[99.5,5838],[99.5,5914],[99.5,6005],[99.5,6081],[99.5,6164],[99.5,6248],[99.5,6331],[99.5,6414],[99.5,6497],[99.5,6581],[99.5,6664],[99.5,6747],[99.5,6831],[99.5,6922],[99.5,6997],[99.5,7081],[99.5,7171],[99.5,7247],[99.5,7331],[99.5,7422],[99.5,7498],[99.5,7588],[99.5,7664],[99.5,7747],[99.5,7831],[99.5,7915],[99.5,7997],[99.5,8081],[99.5,8164],[99.5,8254],[99.5,8330],[99.5,8414],[99.5,8497],[99.5,8580],[99.5,8664],[99.5,8747],[99.5,8831],[99.5,8914],[99.5,9000],[99.5,9081],[99.5,9164],[99.5,9247],[99.5,9331],[99.5,9414],[99.5,9497],[99.5,9587],[99.5,9664],[99.5,9748],[99.5,9831],[99.5,9914],[99.5,9997],[99.5,10084],[99.5,10164],[99.5,10247],[99.5,10333],[99.5,10414],[99.5,10497],[99.5,10586],[99.5,10664],[99.5,10747],[99.5,10830],[99.5,10914],[99.5,10997],[99.5,11081],[99.5,11164],[99.5,11247],[99.5,11331],[99.5,11413],[99.5,11497],[99.5,11580],[99.5,11664],[99.5,11747],[99.5,11830],[99.5,11913],[99.5,12000],[99.5,12079],[99.5,12163],[99.5,12249],[99.5,12337],[99.5,12413],[99.5,12496],[99.5,12579],[99.5,12663],[99.5,12747],[99.5,12831],[99.5,12913],[99.5,12996],[99.5,13080],[99.5,13163],[99.5,13247],[99.5,13333],[99.5,13413],[99.5,13496],[99.5,13579],[99.5,13663],[99.5,13753],[99.5,13830],[99.5,13919]]",1,0,704.8421,705.8534,99.47916667,0.6131,"[{""rating"":99.47916666666667,""responseTime"":0.6131000000239055}]",space,0.4724,,705.8537,Partially,50,705.8565,,,[],,,,0,3,3,3,1,audio/Narrative7Situation3.wav,audio/Narrative8Situation3.wav,audio/Narrative5Situation3.wav,audio/Narrative6Situation3.wav,8,4,3,5,,,,,,,,,,,,,,,,,,,,,,,,,,,,,,,,,,,
,,,,,,661f16434d4a84871e91d6db,2024-05-13_08h45.37.214,group3.1-3.2-social-tom,2023.2.2,Win32,59.52380952,65c5074098b851296ff0b7ed,664235694d8bef45f9dc8ea6,,,,,,,,,,,,,,,,,,,,,,,,,,,,,705.8567,2,audio/Narrative5Situation4.wav,706.8697,,706.8698,727.267,"[[97.8,2172],[91.9,2256],[89.9,2332],[86,2422],[85,2505],[84.9,2582],[84.9,2665],[84.9,2748],[84.9,2832],[84.9,2915],[84.9,2998],[84.9,3082],[84.9,3165],[84.9,3248],[84.9,3332],[84.9,3415],[84.9,3498],[84.9,3582],[84.9,3665],[84.9,3748],[84.9,3832],[84.9,3915],[84.9,3998],[84.9,4082],[84.9,4164],[84.9,4248],[84.9,4331],[84.9,4422],[75.4,4498],[59.2,4589],[24.8,4748],[18.6,4831],[18.6,4915],[18.6,4998],[18.6,5082],[18.6,5170],[7.6,5255],[1.1,5332],[65.2,15087],[73.6,15170],[78.4,15253],[81.5,15337],[84.9,15419],[92.5,15504],[93.8,15580],[93.8,15663],[93.8,15746],[93.8,15830],[93.8,15920],[93.8,15997],[93.8,16080],[93.8,16171],[94.2,16247],[98.6,16337],[99.5,16420],[99.9,16497],[100,16579],[100,16663],[100,16746],[100,16829],[100,16913],[100,16996],[100,17086],[100,17163],[100,17253],[100,17329],[100,17412],[100,17495],[100,17579],[100,17662],[100,17745],[100,17829],[100,17919],[100,17996],[100,18079],[100,18163],[100,18246],[100,18329],[100,18413],[100,18496],[100,18579],[100,18663],[100,18746],[100,18829],[100,18913],[100,18996],[100,19079],[100,19166],[100,19246],[100,19329],[100,19413],[100,19496],[100,19579],[100,19662],[100,19753],[100,19829],[100,19912],[100,19996],[100,20079],[100,20163],[100,20246],[100,20329]]",1,0,727.2676,730.389,51.45833492,2.699,"[{""rating"":51.45833492279053,""responseTime"":2.6989999999999554}]",space,2.5663,,730.3891,Partially,50,730.3905,,,[],,,,0,4,4,4,1,audio/Narrative7Situation4.wav,audio/Narrative8Situation4.wav,audio/Narrative5Situation4.wav,audio/Narrative6Situation4.wav,3,3,1,2,,,,,,,,,,,,,,,,,,,,,,,,,,,,,,,,,,,
,,,,,,661f16434d4a84871e91d6db,2024-05-13_08h45.37.214,group3.1-3.2-social-tom,2023.2.2,Win32,59.52380952,65c5074098b851296ff0b7ed,664235694d8bef45f9dc8ea6,,,,,,,,,,,,,,,,,,,,,,,,,,,,,730.3908,2,audio/Narrative5Situation5.wav,735.3977,,735.3978,750.8354,"[[48.8,2005],[47,2090],[39.4,2166],[27,2255],[12.1,2340],[8.1,2416],[8.1,2499],[8.1,2590],[8.1,2666],[8.1,2756],[8.1,2832],[8.1,2916],[8.1,2999],[8.1,3083],[8.1,3166],[8.1,3249],[8.1,3333],[8.1,3416],[8.1,3499],[8.1,3583],[8.1,3672],[8.1,3749],[8.1,3833],[8.1,3916],[8.1,3999],[8.1,4082],[8.1,4173],[8.1,4249],[8.1,4332],[8.1,4416],[8.1,4498],[8.1,4582],[8.1,4673],[8.1,4756],[8.1,4832],[8.1,4915],[8.1,4999],[8.1,5082],[8.1,5173],[8.1,5249],[7.1,5333]]",1,0,750.8355,754.4684,1.145835718,2.7605,"[{""rating"":1.1458357175191225,""responseTime"":2.760499999999979}]",space,3.0828,,754.4685,Not at all,0,760.0611,0.416668256,4.9335,"[{""rating"":0.4166682561238588,""responseTime"":4.933499999999981}]",space,5.0501,,0,5,5,5,1,audio/Narrative7Situation5.wav,audio/Narrative8Situation5.wav,audio/Narrative5Situation5.wav,audio/Narrative6Situation5.wav,5,2,5,2,,,,,,,,,,,,,,,,,,,,,,,,,,,,,,,,,,,
,,,,,,661f16434d4a84871e91d6db,2024-05-13_08h45.37.214,group3.1-3.2-social-tom,2023.2.2,Win32,59.52380952,65c5074098b851296ff0b7ed,664235694d8bef45f9dc8ea6,,,,,,,,,,,,,,,,,,,,,,,,,,,,,760.0621,2,audio/Narrative5Situation6.wav,763.077,,763.0771,768.7762,"[[1,1833],[1,1923],[1,2000],[1,2082],[1,2166],[1.4,2251],[1.6,2338],[2.6,2422],[3.4,2500],[4,2589],[4.5,2673],[5.5,2756],[5.9,2832],[6.8,2923],[7.3,2999],[7.5,3082],[7.5,3172],[7.5,3249],[7.5,3332],[7.5,3421],[7.5,3499],[7.5,3582],[7.5,3665],[7.5,3749],[7.5,3832],[7.5,3915],[7.5,3999],[7.5,4081],[7.5,4165],[7.5,4251],[7.5,4332],[7.5,4416],[7.5,4498],[7.5,4582],[7.5,4665],[8.3,4756],[10.2,4832],[11.9,4925],[12.5,4998],[12.8,5082],[12.8,5172],[12.9,5248],[12.9,5332],[12.9,5415],[12.9,5498],[12.9,5585],[12.9,5665]]",1,0,768.7768,771.0926,6.770833333,1.7391,"[{""rating"":6.770833333333331,""responseTime"":1.7391000000237682}]",space,1.7708,,771.0928,Definitely yes,100,771.096,,,[],,,,0,6,6,6,1,audio/Narrative7Situation6.wav,audio/Narrative8Situation6.wav,audio/Narrative5Situation6.wav,audio/Narrative6Situation6.wav,3,2,3,2,,,,,,,,,,,,,,,,,,,,,,,,,,,,,,,,,,,
,,,,,,661f16434d4a84871e91d6db,2024-05-13_08h45.37.214,group3.1-3.2-social-tom,2023.2.2,Win32,59.52380952,65c5074098b851296ff0b7ed,664235694d8bef45f9dc8ea6,,,,,,,,,,,,,,,,,,,,,,,,,,,,,771.0961,2,audio/Narrative5Situation7.wav,775.1086,,775.1088,796.1551,"[[10.2,4165],[11.1,4256],[11.4,4332],[11.1,4423],[7,4505],[3.9,4589],[3.2,4673],[2.2,4756],[0.6,4833]]",1,0,796.1555,798.8542,0.520833333,1.5712,"[{""rating"":0.5208333333333315,""responseTime"":1.5712000000477246}]",space,2.1532,,798.8544,Not at all,0,798.8581,,,[],,,,0,7,7,7,1,audio/Narrative7Situation7.wav,audio/Narrative8Situation7.wav,audio/Narrative5Situation7.wav,audio/Narrative6Situation7.wav,5,3,4,5,,,,,,,,,,,,,,,,,,,,,,,,,,,,,,,,,,,
,,,,,,661f16434d4a84871e91d6db,2024-05-13_08h45.37.214,group3.1-3.2-social-tom,2023.2.2,Win32,59.52380952,65c5074098b851296ff0b7ed,664235694d8bef45f9dc8ea6,,,,,,,,,,,,,,,,,,,,,,,,,,,,,798.8582,2,audio/Narrative5Situation8.wav,801.8712,,801.8714,810.7033,"[[0.4,1422],[0.4,1506],[0.4,1582],[0.4,1666],[0.4,1755],[0.4,1832],[0.4,1915],[0.4,1998],[0.4,2082],[0.4,2165],[0.4,2249],[0.4,2332],[0.4,2415],[0.4,2498],[0.4,2582],[0.4,2665],[0.4,2749],[0.4,2839],[0.4,2915],[0.4,2998],[0.4,3082],[0.4,3166],[0.4,3249],[0.4,3332],[0.4,3415],[0.4,3498],[0.4,3582],[0.4,3665],[0.4,3748],[0.4,3831],[0.4,3915],[0.4,3998],[0.4,4089],[0.4,4165],[0.4,4248],[0.4,4332],[0.4,4415],[0.4,4499],[0.4,4589],[0.4,4664],[0.4,4748],[0.4,4831],[0.4,4915],[0.4,5004],[0.4,5081],[0.4,5168],[0.4,5248],[0.4,5331],[0.4,5415],[0.4,5498],[0.4,5582],[0.4,5665],[0.4,5748],[0.4,5835],[0.4,5915],[0.4,5998],[0.4,6081],[0.4,6165],[0.4,6248],[0.4,6331],[0.4,6414],[0.4,6498],[0.4,6581],[0.4,6664],[0.4,6748],[0.4,6831],[0.4,6914],[0.4,6998],[0.4,7088],[0.4,7168],[0.4,7248],[0.4,7332],[0.4,7414],[0.4,7498],[0.4,7588],[0.4,7664],[0.4,7748],[0.4,7831],[0.4,7914],[0.4,8005],[0.4,8081],[0.4,8164],[0.4,8247],[0.4,8331],[0.4,8414],[0.4,8497],[0.4,8581],[0.4,8664],[0.4,8754],[0.4,8831]]",1,0,810.7038,812.253,0.416668256,0.8391,"[{""rating"":0.4166682561238588,""responseTime"":0.8390999999046471}]",space,1.0007,,812.2532,Definitely yes,100,812.256,,,[],,,,0,8,8,8,1,audio/Narrative7Situation8.wav,audio/Narrative8Situation8.wav,audio/Narrative5Situation8.wav,audio/Narrative6Situation8.wav,2,3,3,5,,,,,,,,,,,,,,,,,,,,,,,,,,,,,,,,,,,
,,,,,,661f16434d4a84871e91d6db,2024-05-13_08h45.37.214,group3.1-3.2-social-tom,2023.2.2,Win32,59.52380952,65c5074098b851296ff0b7ed,664235694d8bef45f9dc8ea6,,,,,,,,,,,,,,,,,,,,,,,,,,,,,812.2562,2,audio/Narrative5Situation9.wav,815.2683,,815.2685,854.8131,"[[1.4,9505],[2.6,9588],[3.3,9672],[3.6,9748],[3.4,9839],[0.6,9921],[0.1,10005],[0.1,10082],[0.1,10165],[0.2,10255],[0.2,10331],[0.2,10415],[0.2,10498],[0.2,10581],[0.4,10672],[0.5,10748],[0.5,10831],[0.5,10915],[0.5,10999],[0.5,11082],[0.5,11172],[0.5,11248],[0.5,11331],[0.5,11415],[0.5,11498],[0.5,11588],[0.5,11672],[0.5,11748],[0.5,11831],[0.5,11915],[0.5,11997],[0.5,12081],[0.5,12165],[0.5,12248],[0.5,12331],[0.5,12421],[0.5,12498],[0.5,12587],[0.5,12665],[0.5,12748],[0.5,12831],[0.5,12914],[0.5,12998],[0.5,13081],[0.5,13164],[0.5,13251],[25.3,13339],[47.8,13422],[56.7,13504],[78.9,13755],[84.4,13831],[88,13922],[90.1,13997],[90.9,14081],[93,14171],[95.5,14255],[96.3,14338],[96.4,14414],[96.6,14497],[96.6,14584],[96.6,14664],[96.6,14747],[96.6,14831],[96.6,14914],[96.6,14997],[96.6,15081],[96.6,15164],[96.6,15247],[96.6,15331],[96.6,15414],[96.6,15504],[96.6,15581],[96.6,15664],[96.6,15747],[96.6,15830],[96.6,15918],[96.6,15997],[96.6,16087],[96.6,16163],[96.6,16247],[96.6,16331],[96.6,16414],[96.6,16498],[96.6,16581],[96.6,16664],[96.6,16747],[96.6,16833],[96.6,16920],[96.6,16997],[96.6,17080],[96.6,17164],[96.6,17247],[96.6,17337],[96.6,17414],[96.6,17497],[96.6,17580],[96.6,17667],[96.6,17747],[96.6,17833],[96.6,17913],[96.6,17997],[96.6,18080],[96.6,18163],[96.6,18246],[96.6,18330],[96.6,18414],[96.6,18502],[96.6,18580],[96.6,18663],[96.6,18746],[96.6,18830],[96.6,18913],[96.6,18996],[96.6,19083],[96.6,19167],[96.6,19246],[96.6,19330],[96.6,19413],[96.6,19496],[96.6,19580],[96.6,19663],[96.6,19746],[96.6,19829],[96.6,19913],[96.6,19997],[96.6,20080],[96.6,20163],[96.6,20247],[96.6,20330],[96.6,20413],[96.6,20497],[96.6,20580],[96.6,20663],[96.6,20746],[96.6,20829],[96.6,20913],[96.6,20996],[96.6,21079],[96.6,21170],[96.6,21246],[96.6,21329],[96.6,21413],[96.6,21503],[96.6,21579],[96.6,21663],[96.6,21746],[96.6,21829],[96.6,21913],[96.6,21997],[96.6,22079],[96.6,22163],[96.6,22253],[96.6,22329],[96.6,22413],[96.6,22497],[96.6,22579],[96.6,22669],[96.6,22746],[96.6,22833],[96.6,22919],[97.2,22997],[100,23079],[100,23170],[100,23246],[100,23329],[100,23413],[100,23496],[100,23579],[100,23663],[100,23746],[100,23829],[100,23912],[100,23996],[100,24079],[100,24163],[100,24246],[100,24329],[100,24413],[100,24496],[100,24579],[100,24663],[100,24746],[100,24829],[100,24913],[100,24996],[100,25079],[100,25166],[100,25245],[100,25329],[100,25412],[100,25495],[100,25586],[100,25663],[100,25745],[100,25828],[100,25912],[100,25996],[100,26079],[100,26162],[100,26251],[100,26329],[100,26412],[100,26495],[100,26578],[100,26665],[100,26750],[100,26829],[100,26912],[100,26995],[100,27079],[100,27163],[100,27245],[100,27329],[100,27412],[100,27502],[100,27579],[100,27668],[100,27745],[100,27829],[100,27912],[100,28002],[100,28079],[100,28162],[100,28245],[100,28335],[100,28412],[100,28495],[100,28579],[100,28662],[100,28745],[100,28829],[100,28912],[100,28995],[100,29078],[100,29162],[100,29252],[100,29328],[100,29412],[100,29502],[100,29578],[100,29668],[100,29745],[100,29828],[100,29919],[100,29995],[100,30078],[100,30162],[100,30245],[100,30328],[100,30412],[100,30495],[100,30578],[100,30662],[100,30751],[100,30828],[100,30912],[100,31000],[100,31078],[100,31161],[100,31245],[100,31329],[100,31411],[100,31495],[100,31578],[100,31661],[100,31751],[100,31828],[100,31911],[100,31995],[100,32082],[100,32161],[100,32244],[100,32328],[100,32411],[100,32494],[100,32578],[100,32661],[100,32744],[100,32828],[100,32911],[100,32998],[100,33078],[100,33161],[100,33244],[100,33327],[100,33411],[100,33498],[100,33577],[100,33661],[100,33744],[100,33828],[100,33911],[100,33994],[100,34078],[100,34161],[100,34252],[100,34328],[100,34411],[100,34494],[100,34578],[100,34661],[100,34744],[100,34828],[100,34911],[100,34995],[100,35081],[100,35161],[100,35244],[100,35327],[100,35411],[100,35494],[100,35577],[100,35661],[100,35744],[100,35827],[100,35911],[100,35994],[100,36077],[100,36160],[100,36244],[100,36327],[100,36411],[100,36494],[100,36581],[100,36660],[100,36744],[100,36827],[100,36911],[100,36994],[100,37077],[100,37160],[100,37244],[100,37327],[100,37418],[100,37501],[100,37584],[100,37660],[100,37744],[100,37827],[100,37910],[100,37994],[100,38077],[100,38160],[100,38244],[100,38327],[100,38411],[100,38494],[100,38577],[100,38660],[100,38744],[100,38827],[100,38910],[100,38994],[100,39077],[100,39160],[100,39243],[100,39327],[100,39410],[100,39493]]",1,0,854.8137,856.9842,98.33334287,1.7629,"[{""rating"":98.33334287007649,""responseTime"":1.762900000095442}]",space,1.618,,856.9842,Not at all,0,856.9863,,,[],,,,0,9,9,9,1,audio/Narrative7Situation9.wav,audio/Narrative8Situation9.wav,audio/Narrative5Situation9.wav,audio/Narrative6Situation9.wav,2,3,3,4,,,,,,,,,,,,,,,,,,,,,,,,,,,,,,,,,,,
,,,,,,661f16434d4a84871e91d6db,2024-05-13_08h45.37.214,group3.1-3.2-social-tom,2023.2.2,Win32,59.52380952,65c5074098b851296ff0b7ed,664235694d8bef45f9dc8ea6,,,,,,,,,,,,,,,,,,,,,,,,,,,,,856.9865,2,audio/Narrative6Situation1.wav,858.9955,,858.9957,885.6072,"[[97.5,1672],[89.2,1750],[79.1,1840],[58.8,2082],[58.8,2165],[58.8,2248],[58.8,2331],[58.8,2416],[58.8,2498],[58.8,2581],[55.7,2672],[51,2756],[46.7,2840],[43.5,2922],[41.2,3005],[37.9,3088],[29.8,3172],[23.6,3255],[22.8,3331],[22.8,3415],[22.8,3499],[22.8,3581],[22.8,3665],[9,3754],[1.8,3839],[2.9,6332],[66,6504],[70.1,6588],[70.2,6664],[70.7,6755],[71.1,6839],[73.4,6922],[77.5,7005],[77.9,7087],[78,7164],[78,7254],[78,7331],[78,7414],[78,7498],[78,7581],[78,7671],[78,7754],[78,7831],[78,7914],[78,7998],[78,8081],[78,8170],[78,8255],[78,8331],[78,8414],[78,8504],[78,8581],[78,8665],[78,8747],[78,8831],[78,8914],[78,8997],[78,9088],[78,9164],[78,9254],[78,9331],[78,9414],[78,9498],[78,9587],[78,9664],[78,9747],[78,9830],[78,9913],[78,10005],[78,10081],[78,10164],[78,10247],[78,10331],[78,10414],[78,10497],[78,10581],[78,10664],[78,10747],[78,10831],[78,10917],[78,10997],[78,11080],[78,11168],[78,11253],[78,11331],[78,11414],[78,11497],[78,11581],[78,11664],[78,11747],[28.5,12088],[20.7,12171],[14.9,12254],[12.4,12331],[10.8,12414],[6,12504],[2,12580],[16.1,23169],[60.8,23749],[66.6,23836],[71.1,23918],[76.7,23995],[80.2,24086],[80.4,24161],[80.4,24245],[80.4,24328],[80.4,24411],[86,24496],[91.9,24585],[94.7,24661],[96.7,24745],[97.9,24828],[99,24918],[100,25002],[100,25085],[100,25168],[100,25252],[100,25328],[100,25411],[100,25494],[100,25578],[100,25661],[100,25745],[100,25828],[100,25914],[100,25995],[100,26085],[100,26164],[100,26248],[100,26336],[100,26412],[100,26500],[100,26578]]",1,0,885.6074,889.6294,45.20833492,2.9354,"[{""rating"":54.27083174387614,""responseTime"":2.1727000000475982},{""rating"":45.20833492279053,""responseTime"":2.935400000095342}]",space,3.4676,,889.6294,Definitely yes,100,889.631,,,[],,,,0,10,10,10,1,audio/Narrative8Situation1.wav,audio/Narrative7Situation1.wav,audio/Narrative6Situation1.wav,audio/Narrative5Situation1.wav,5,2,2,5,,,,,,,,,,,,,,,,,,,,,,,,,,,,,,,,,,,
,,,,,,661f16434d4a84871e91d6db,2024-05-13_08h45.37.214,group3.1-3.2-social-tom,2023.2.2,Win32,59.52380952,65c5074098b851296ff0b7ed,664235694d8bef45f9dc8ea6,,,,,,,,,,,,,,,,,,,,,,,,,,,,,889.6311,2,audio/Narrative6Situation2.wav,892.6404,,892.6406,921.1524,"[[41.5,1081],[32.7,1338],[30,1422],[29.6,1498],[29.5,1582],[29,1672],[24,1756],[22.2,1839],[22,1915],[22,1998],[22,2089],[22,2165],[22,2248],[22,2335],[22,2415],[22,2498],[22,2582],[22,2665],[22,2748],[22,2831],[22,2915],[22,2998],[90.5,3506],[92.6,3587],[92.9,3664],[92.9,3748],[93,3839],[93.6,3914],[94,3998],[94,4081],[94,4165],[94,4248],[94,4331],[99.3,4422],[100,4505],[100,4581],[100,4664],[100,4748],[100,4831],[100,4915],[100,4998],[100,5084],[100,5164],[100,5248],[100,5331],[100,5414],[100,5498],[100,5588],[100,5664],[100,5748],[100,5838],[100,5914],[100,5998],[100,6081],[100,6164],[100,6248],[100,6331],[100,6421],[100,6497],[100,6581],[100,6665],[100,6747],[100,6831],[100,6914],[100,6997],[100,7081],[100,7164],[100,7248],[100,7331],[100,7414],[100,7497],[100,7581],[100,7664],[100,7747],[100,7831],[100,7914],[100,7997],[100,8088],[100,8164],[100,8247],[100,8337],[100,8414],[100,8504],[100,8581],[100,8664],[100,8747],[100,8831],[100,8914],[100,9004],[100,9081],[100,9164],[100,9247],[100,9331],[100,9414],[100,9497],[100,9580],[100,9664],[100,9747],[100,9831],[100,9913],[100,9997],[100,10081],[100,10163],[100,10247],[100,10330],[100,10414],[100,10497],[100,10580],[100,10664],[100,10747],[100,10830],[100,10914],[100,10997],[100,11080],[100,11163],[100,11247],[100,11330],[100,11413],[100,11496],[100,11580],[100,11670],[100,11747],[100,11837],[100,11913],[100,11997],[100,12080],[100,12163],[100,12247],[100,12330],[100,12413],[100,12496],[100,12580],[100,12663],[100,12746],[100,12830],[100,12913],[100,12996],[100,13080],[100,13163],[100,13246],[100,13336],[100,13413],[100,13497],[100,13585],[100,13663],[100,13746],[100,13836],[100,13913],[100,13996],[100,14085],[100,14163],[100,14246],[100,14330],[100,14413],[100,14496],[100,14579],[100,14663],[100,14746],[100,14830],[100,14920],[100,14997],[100,15080],[100,15163],[100,15246],[100,15336],[100,15413],[100,15496],[100,15580],[100,15670],[100,15747],[100,15830],[100,15921],[100,15997],[100,16080],[100,16163],[100,16246],[100,16329],[100,16413],[100,16496],[100,16579],[100,16666],[100,16746],[100,16830],[100,16913],[100,16996],[100,17079],[100,17167],[100,17245],[100,17329],[100,17413],[100,17499],[100,17587],[100,17663],[100,17746],[100,17830],[100,17919],[100,17996],[100,18079],[100,18169],[100,18246],[100,18329],[100,18412],[100,18496],[100,18579],[100,18669],[100,18746],[100,18829],[100,18913],[100,18995],[100,19079],[100,19169],[100,19245],[100,19329],[100,19413],[100,19495],[100,19579],[100,19669],[100,19745],[100,19829],[100,19912],[100,20002],[100,20079],[100,20162],[100,20246],[100,20329],[100,20420],[100,20495],[100,20578],[100,20662],[100,20745],[100,20829],[100,20912],[100,20995],[100,21079],[100,21169],[100,21246],[100,21328],[100,21412],[100,21496],[100,21586],[100,21662],[100,21745],[100,21829],[100,21917],[100,21996],[100,22078],[100,22162],[100,22246],[100,22329],[100,22412],[100,22495],[100,22579],[100,22662],[100,22745],[100,22829],[100,22911],[100,22995],[100,23078],[100,23162],[100,23251],[100,23328],[100,23411],[100,23495],[100,23579],[100,23661],[100,23745],[100,23828],[100,23912],[100,23995],[100,24078],[100,24162],[100,24245],[100,24328],[100,24412],[100,24495],[100,24577],[100,24669],[100,24745],[100,24828],[100,24911],[100,24995],[100,25078],[100,25162],[100,25250],[100,25328],[100,25411],[100,25495],[100,25578],[100,25669],[100,25745],[100,25828],[100,25911],[100,25994],[100,26081],[100,26161],[100,26245],[100,26328],[100,26411],[100,26494],[100,26578],[100,26661],[100,26744],[100,26827],[100,26914],[100,26994],[100,27078],[100,27166],[100,27245],[100,27327],[100,27411],[100,27494],[100,27578],[100,27661],[100,27744],[100,27827],[100,27911],[100,27994],[100,28077],[100,28161],[100,28244],[100,28327],[100,28411],[100,28501]]",1,0,921.1529,923.6744,91.97916985,1.8529,"[{""rating"":91.97916984558105,""responseTime"":1.8529000000953602}]",space,1.9729,,923.6744,Partially,50,923.6761,,,[],,,,0,11,11,11,1,audio/Narrative8Situation2.wav,audio/Narrative7Situation2.wav,audio/Narrative6Situation2.wav,audio/Narrative5Situation2.wav,3,3,3,3,,,,,,,,,,,,,,,,,,,,,,,,,,,,,,,,,,,
,,,,,,661f16434d4a84871e91d6db,2024-05-13_08h45.37.214,group3.1-3.2-social-tom,2023.2.2,Win32,59.52380952,65c5074098b851296ff0b7ed,664235694d8bef45f9dc8ea6,,,,,,,,,,,,,,,,,,,,,,,,,,,,,923.6762,2,audio/Narrative6Situation3.wav,928.6846,,928.6848,941.299,"[[91.1,1089],[88.5,1173],[87,1249],[86.3,1332],[85.8,1422],[85.5,1506],[85.5,1585],[85.5,1665],[85.5,1752],[85.5,1832],[85.5,1921],[85.5,2002],[85.5,2082],[85.5,2165],[85.5,2248],[83.8,2339],[81.1,2416],[78.5,2506],[75.3,2589],[71.8,2672],[68,2756],[60.5,2839],[54.4,2923],[52.3,3005],[51.3,3081],[51.3,3165],[51.3,3248],[51.3,3332],[51.3,3415],[51.3,3501],[51.3,3582],[51.3,3665],[51.3,3748],[51.3,3832],[51.3,3915],[41.4,4005],[35.6,4089],[27.4,4172],[19.3,4256],[19.3,4331],[19.3,4414],[19.3,4505],[19.3,4588],[19.3,4664],[16,4755],[10.6,4838],[8.1,4915],[5,5005],[1.9,5089],[79.4,7248],[79.4,7331],[79.4,7414],[79.4,7504],[94.6,7589],[95.6,7664],[97.3,7749],[100,7838],[100,7914],[100,7998],[100,8081],[100,8164],[100,8247],[100,8338],[100,8414],[100,8498],[100,8587],[100,8664],[100,8747],[100,8831],[100,8914],[100,8998],[100,9081],[100,9171],[100,9247],[100,9331],[100,9414],[100,9497],[100,9581],[100,9664],[100,9747],[100,9831],[100,9914],[100,10004],[100,10081],[100,10164],[100,10247],[100,10330],[100,10414],[100,10497],[100,10581],[100,10664],[100,10747],[100,10831],[100,10914],[100,10997],[100,11080],[100,11163],[100,11254],[100,11331],[100,11420],[100,11497],[100,11581],[100,11663],[100,11747],[100,11830],[100,11913],[100,12004],[100,12080],[100,12164],[100,12247],[100,12331],[100,12413],[100,12497],[100,12580]]",1,0,941.2996,943.8855,49.06249841,2.0723,"[{""rating"":40.31250476837158,""responseTime"":1.3846000000238519},{""rating"":49.0624984105428,""responseTime"":2.0722999999522926}]",space,2.0367,,943.8856,Not at all,0,943.8888,,,[],,,,0,12,12,12,1,audio/Narrative8Situation3.wav,audio/Narrative7Situation3.wav,audio/Narrative6Situation3.wav,audio/Narrative5Situation3.wav,4,8,5,3,,,,,,,,,,,,,,,,,,,,,,,,,,,,,,,,,,,
,,,,,,661f16434d4a84871e91d6db,2024-05-13_08h45.37.214,group3.1-3.2-social-tom,2023.2.2,Win32,59.52380952,65c5074098b851296ff0b7ed,664235694d8bef45f9dc8ea6,,,,,,,,,,,,,,,,,,,,,,,,,,,,,943.889,2,audio/Narrative6Situation4.wav,945.8983,,945.8985,958.513,"[[49,1673],[48.5,1748],[48.2,1833],[48,1922],[48,1999],[47.8,2083],[47.8,2168],[47.8,2249],[47.8,2332],[47.8,2416],[47.8,2498],[47.8,2582],[47.8,2665],[47.8,2748],[47.8,2832],[47.8,2922],[47.8,2999],[47.8,3081],[47.8,3172],[47.8,3251],[47.8,3331],[47.8,3415],[47.8,3498],[47.8,3582],[47.8,3665],[47.8,3748],[47.8,3832],[63,3923],[69.2,4005],[75.3,4089],[80.9,4173],[85.5,4255],[88.7,4339],[90.4,4415],[90.9,4505],[91,4588],[91,4668],[91,4748],[91,4832],[91,4921],[91,4998],[91,5081],[91,5165],[91,5248],[91,5331],[91,5414],[91,5498],[91,5582],[91,5671],[91,5748],[91,5832],[91,5918],[91,5998],[91,6081],[91,6172],[91,6251],[91,6338],[91,6415],[91,6505],[91,6581],[91,6672],[91,6755],[91,6838],[91,6914],[91,6998],[91,7081],[91,7164],[91,7255],[91,7338],[91,7421],[91,7498],[91,7581],[91,7665],[91,7748],[91,7838],[91,7921],[91,7998],[91,8081],[91,8164],[91,8248],[91,8337],[91,8418],[91,8504],[91,8589],[91,8664],[91,8748],[91,8830],[91,8921],[91,8999],[91,9081],[91,9172],[91,9247],[91,9332],[91,9414],[91,9498],[91,9581],[91,9664],[91,9747],[91.7,9844],[92.7,9918],[93.4,10004],[94,10088],[94.5,10169],[95,10249],[95.3,10332],[95.7,10421],[96,10498],[96.1,10587],[96.1,10664],[96.1,10747],[96.1,10834],[96.1,10921],[96.1,10997],[96.1,11086],[96.1,11170],[96.1,11247],[96.1,11331],[96.1,11414],[96.1,11497],[96.1,11580],[96.1,11664],[96.1,11754],[96.1,11830],[96.1,11915],[96.1,11998],[96.1,12085],[96.1,12169],[96.1,12247],[96.1,12331],[96.1,12413],[96.1,12497],[96.1,12580]]",1,0,958.5134,959.713,83.43750636,0.8249,"[{""rating"":83.43750635782878,""responseTime"":0.8248999999760827}]",space,0.6624,,959.7132,Partially,50,959.716,,,[],,,,0,13,13,13,1,audio/Narrative8Situation4.wav,audio/Narrative7Situation4.wav,audio/Narrative6Situation4.wav,audio/Narrative5Situation4.wav,3,3,2,1,,,,,,,,,,,,,,,,,,,,,,,,,,,,,,,,,,,
,,,,,,661f16434d4a84871e91d6db,2024-05-13_08h45.37.214,group3.1-3.2-social-tom,2023.2.2,Win32,59.52380952,65c5074098b851296ff0b7ed,664235694d8bef45f9dc8ea6,,,,,,,,,,,,,,,,,,,,,,,,,,,,,959.7161,2,audio/Narrative6Situation5.wav,961.7288,,961.7289,969.7013,"[[82.7,3666],[82.4,3756],[82.4,3839],[82.4,3916],[82.4,3998],[82.4,4082],[82.4,4165],[85,4250],[95.4,4339],[100,4423],[100,4505],[100,4581],[100,4665],[100,4752],[100,4832],[100,4921],[100,4999],[100,5082],[100,5165],[100,5248],[100,5332],[100,5415],[100,5498],[100,5582],[100,5665],[100,5748],[100,5832],[100,5919],[100,5998],[100,6082],[100,6172],[100,6248],[100,6331],[100,6415],[100,6498],[100,6587],[100,6665],[100,6748],[100,6837],[100,6915],[100,6998],[100,7082],[100,7165],[100,7248],[100,7332],[100,7415],[100,7505],[100,7581],[100,7665],[100,7748],[100,7831],[100,7914]]",1,0,969.7013,973.5673,98.33334287,2.2546,"[{""rating"":98.33334287007649,""responseTime"":2.254599999904599}]",space,3.3133,,973.5673,Not at all,0,973.5697,,,[],,,,0,14,14,14,1,audio/Narrative8Situation5.wav,audio/Narrative7Situation5.wav,audio/Narrative6Situation5.wav,audio/Narrative5Situation5.wav,2,5,2,5,,,,,,,,,,,,,,,,,,,,,,,,,,,,,,,,,,,
,,,,,,661f16434d4a84871e91d6db,2024-05-13_08h45.37.214,group3.1-3.2-social-tom,2023.2.2,Win32,59.52380952,65c5074098b851296ff0b7ed,664235694d8bef45f9dc8ea6,,,,,,,,,,,,,,,,,,,,,,,,,,,,,973.5699,2,audio/Narrative6Situation6.wav,975.5774,,975.5775,986.6747,"[[96.7,1589],[95.9,1667],[95.9,1748],[95.9,1832],[94.7,1921],[84.1,2006],[83.2,2082],[83.2,2165],[83.2,2248],[83.2,2332],[83.2,2415],[83.2,2498],[82.9,2588],[80.9,2665],[78.5,2748],[77.7,2839],[77.5,2915],[77.5,2998],[77.5,3081],[77.5,3165],[77.5,3255],[90.6,3339],[100,3422],[100,3506],[100,3582],[100,3665],[100,3748],[100,3838],[100,3915],[100,3999],[100,4085],[100,4170],[100,4248],[100,4332],[100,4415],[100,4498],[100,4581],[100,4665],[100,4748],[100,4831],[100,4914],[100,4998],[100,5081],[100,5165],[100,5248],[100,5331],[100,5414],[100,5498],[100,5581],[100,5664],[100,5747],[100,5831],[100,5921],[100,5997],[100,6081],[100,6165],[100,6248],[100,6331],[100,6421],[100,6498],[100,6581],[100,6664],[100,6755],[100,6831],[100,6914],[100,6998],[100,7081],[100,7164],[100,7247],[100,7331],[100,7414],[100,7498],[100,7581],[100,7664],[100,7748],[100,7831],[100,7913],[100,7997],[100,8080],[100,8164],[100,8247],[100,8331],[100,8414],[100,8500],[100,8581],[100,8664],[100,8747],[100,8830],[100,8921],[100,8997],[100,9087],[100,9164],[100,9247],[100,9330],[100,9419],[100,9497],[100,9580],[100,9668],[100,9747],[100,9830],[100,9914],[100,9997],[100,10087],[100,10164],[100,10247],[100,10330],[100,10414],[100,10497],[100,10580],[100,10664],[100,10747],[100,10830],[100,10913],[100,11004],[100,11080]]",1,0,986.6753,988.6247,99.16666349,1.5501,"[{""rating"":99.16666348775227,""responseTime"":1.5500999999046599}]",space,1.4018,,988.625,Not at all,0,988.6279,,,[],,,,0,15,15,15,1,audio/Narrative8Situation6.wav,audio/Narrative7Situation6.wav,audio/Narrative6Situation6.wav,audio/Narrative5Situation6.wav,2,3,2,3,,,,,,,,,,,,,,,,,,,,,,,,,,,,,,,,,,,
,,,,,,661f16434d4a84871e91d6db,2024-05-13_08h45.37.214,group3.1-3.2-social-tom,2023.2.2,Win32,59.52380952,65c5074098b851296ff0b7ed,664235694d8bef45f9dc8ea6,,,,,,,,,,,,,,,,,,,,,,,,,,,,,988.6281,2,audio/Narrative6Situation7.wav,993.6407,,993.6409,1018.4875,"[[98.5,916],[97.6,1007],[97,1082],[96.5,1173],[96.5,1249],[96.5,1332],[96.5,1416],[96.5,1499],[97.2,1589],[97.6,1667],[97.8,1749],[97.9,1835],[98,1917],[98,2006],[98,2082],[98,2172],[98,2249],[98,2339],[98,2416],[98,2506],[98,2586],[98,2665],[98,2749],[97.4,2839],[94.4,2922],[91,3006],[86.9,3089],[78.9,3172],[60.4,3255],[50.8,3339],[50.8,3415],[50.8,3498],[50.8,3582],[50.8,3665],[35.4,3756],[15.8,3839],[11.6,3923],[11.1,3999],[11.1,4087],[10.7,4167],[5.6,4256],[4.9,4333],[3.5,4423],[1.7,4507],[0.6,4589],[0.1,4672],[12.1,9338],[85,10172],[87.6,10254],[92.9,10338],[99.3,10422],[100,10504],[100,10588],[100,10671],[100,10747],[100,10830],[100,10914],[100,10997],[100,11081],[100,11164],[100,11247],[100,11331],[100,11414],[100,11497],[100,11587],[100,11664],[100,11754],[100,11831],[100,11914],[100,11997],[100,12080],[100,12164],[100,12247],[100,12331],[100,12414],[100,12497],[100,12580],[100,12669],[100,12747],[100,12837],[100,12914],[100,13004],[100,13084],[100,13163],[100,13254],[100,13330],[100,13413],[100,13502],[100,13581],[100,13664],[100,13747],[100,13830],[100,13913],[100,13997],[100,14080],[100,14164],[100,14247],[100,14330],[100,14413],[100,14496],[100,14580],[100,14663],[100,14746],[100,14831],[100,14919],[100,14996],[100,15080],[100,15169],[100,15253],[100,15330],[100,15414],[100,15496],[100,15587],[100,15663],[100,15752],[100,15830],[100,15913],[100,15997],[100,16079],[100,16163],[100,16246],[100,16330],[100,16420],[100,16504],[100,16580],[100,16670],[100,16746],[100,16830],[100,16913],[100,16997],[100,17080],[100,17170],[100,17246],[100,17330],[100,17413],[100,17496],[100,17580],[100,17663],[100,17746],[100,17830],[100,17917],[100,17996],[100,18080],[100,18163],[100,18246],[100,18330],[100,18414],[100,18496],[100,18579],[100,18663],[100,18746],[100,18830],[100,18920],[100,18996],[100,19079],[100,19163],[100,19246],[100,19330],[100,19420],[100,19496],[100,19579],[100,19669],[100,19746],[100,19834],[100,19920],[100,19995],[100,20079],[100,20167],[100,20246],[100,20329],[100,20413],[100,20496],[100,20579],[100,20663],[100,20746],[100,20829],[100,20912],[100,20996],[100,21079],[100,21162],[100,21246],[100,21329],[100,21419],[100,21496],[100,21579],[100,21662],[100,21746],[100,21829],[100,21919],[100,21996],[100,22079],[100,22162],[100,22245],[100,22328],[100,22418],[100,22496],[100,22579],[100,22662],[100,22746],[100,22836],[100,22912],[100,22995],[100,23079],[100,23162],[100,23246],[100,23329],[100,23412],[100,23495],[100,23579],[100,23669],[100,23745],[100,23831],[100,23912],[100,24002],[100,24084],[100,24162],[100,24246],[100,24328],[100,24419],[100,24495],[100,24585],[100,24665],[100,24745],[100,24828]]",1,0,1018.4883,1021.2433,81.56250318,2.1208,"[{""rating"":81.56250317891438,""responseTime"":2.1207999999523963}]",space,2.2002,,1021.2434,Not at all,0,1021.2447,,,[],,,,0,16,16,16,1,audio/Narrative8Situation7.wav,audio/Narrative7Situation7.wav,audio/Narrative6Situation7.wav,audio/Narrative5Situation7.wav,3,5,5,4,,,,,,,,,,,,,,,,,,,,,,,,,,,,,,,,,,,
,,,,,,661f16434d4a84871e91d6db,2024-05-13_08h45.37.214,group3.1-3.2-social-tom,2023.2.2,Win32,59.52380952,65c5074098b851296ff0b7ed,664235694d8bef45f9dc8ea6,,,,,,,,,,,,,,,,,,,,,,,,,,,,,1021.2449,2,audio/Narrative6Situation8.wav,1026.2523,,1026.2524,1033.1181,"[[81.1,749],[80.3,839],[79.8,916],[79.8,999],[79.8,1082],[79.8,1166],[79.8,1249],[80.1,1332],[80.5,1417],[80.5,1499],[80.5,1588],[80.3,1672],[79.9,1750],[77.7,1832],[67.2,1922],[58.4,2006],[50.1,2082],[37.3,2165],[24.4,2256],[23.6,2332],[23.6,2415],[23.6,2498],[23.6,2582],[23.6,2665],[23.6,2755],[14.3,2839],[3.6,2916],[2.3,3006],[2.3,3088],[2.3,3165],[2.3,3248],[2.3,3331],[2.3,3415],[2.3,3498]]",1,0,1033.1184,1042.4069,0.833332539,8.5117,"[{""rating"":0.8333325386047363,""responseTime"":8.511700000047767}]",space,8.744,,1042.4069,Partially,50,1042.4086,,,[],,,,0,17,17,17,1,audio/Narrative8Situation8.wav,audio/Narrative7Situation8.wav,audio/Narrative6Situation8.wav,audio/Narrative5Situation8.wav,3,2,5,3,,,,,,,,,,,,,,,,,,,,,,,,,,,,,,,,,,,
,,,,,,661f16434d4a84871e91d6db,2024-05-13_08h45.37.214,group3.1-3.2-social-tom,2023.2.2,Win32,59.52380952,65c5074098b851296ff0b7ed,664235694d8bef45f9dc8ea6,,,,,,,,,,,,,,,,,,,,,,,,,,,,,1042.4088,2,audio/Narrative6Situation9.wav,1046.416,,1046.4162,1056.3981,"[[1.4,1839],[1.4,1915],[0.6,2006]]",1,0,1056.3985,1067.2116,0,10.4638,"[{""rating"":2.7083357175191223,""responseTime"":9.496000000000095},{""rating"":0,""responseTime"":10.463799999952471}]",space,10.2725,,1067.2117,Not at all,0,1067.2154,,,[],,,,0,18,18,18,1,audio/Narrative8Situation9.wav,audio/Narrative7Situation9.wav,audio/Narrative6Situation9.wav,audio/Narrative5Situation9.wav,3,2,4,3,,,,,,,,,,,,,,,,,,,,,,,,,,,,,,,,,,,
,,,,,,661f16434d4a84871e91d6db,2024-05-13_08h45.37.214,group3.1-3.2-social-tom,2023.2.2,Win32,59.52380952,65c5074098b851296ff0b7ed,664235694d8bef45f9dc8ea6,,,,,,,,,,,,,,,,,,,,,,,,,,,,,,,,,,,,,,,,,,,,,,,,,,,,,,,,,,,,,,,,,,,,,,,,1067.2155,1106.807,space,39.0643,,1106.8085,1126.4717,space,19.3339,,,,,,,,,,,,,,,,,,,,,,,,
,,,,,,661f16434d4a84871e91d6db,2024-05-13_08h45.37.214,group3.1-3.2-social-tom,2023.2.2,Win32,59.52380952,65c5074098b851296ff0b7ed,664235694d8bef45f9dc8ea6,,,,,,,,,,,,,,,,,,,,,,,,,,,,,1129.0613,1,audio/Narrative8Situation9.wav,1131.0688,,,,,,,1162.9672,1166.5801,48.6458381,2.0365,"[{""rating"":48.64583810170491,""responseTime"":2.0364999999999327}]",space,3.0658,,1162.9659,Not at all,0,1162.9671,,,[],,,,,,,,,,,,,2,2,2,2,,,,,,,,,,,,,1126.4788,1129.0526,1131.0697,3,1162.9656,"[[999,1],[999,81],[999,172],[999,249],[999,332],[999,415],[999,499],[999,581],[999,665],[999,748],[999,832],[999,916],[999,1005],[999,1089],[999,1172],[999,1249],[999,1332],[999,1422],[999,1505],[999,1588],[999,1672],[999,1755],[999,1838],[999,1922],[999,2005],[999,2088],[999,2173],[999,2255],[999,2332],[999,2421],[999,2505],[999,2589],[999,2672],[999,2749],[999,2837],[999,2922],[999,3005],[999,3089],[999,3172],[999,3255],[999,3338],[999,3422],[999,3499],[999,3589],[999,3672],[999,3748],[999,3838],[999,3921],[999,3998],[999,4088],[999,4172],[999,4255],[999,4331],[999,4415],[999,4498],[999,4586],[999,4664],[999,4747],[999,4831],[999,4915],[999,4998],[999,5081],[999,5164],[999,5248],[999,5331],[999,5414],[999,5497],[999,5581],[999,5667],[999,5748],[999,5834],[999,5914],[999,5997],[999,6081],[999,6164],[999,6251],[999,6337],[999,6414],[999,6497],[999,6581],[999,6664],[999,6748],[999,6831],[999,6914],[999,6997],[999,7084],[999,7164],[999,7247],[999,7331],[999,7414],[999,7497],[999,7581],[999,7664],[999,7747],[999,7830],[999,7914],[999,7997],[999,8081],[999,8164],[999,8248],[999,8330],[999,8414],[999,8501],[999,8587],[999,8671],[999,8754],[31,8844],[36.8,8921],[39.8,8997],[39.8,9080],[39.8,9163],[39.8,9247],[51.4,9337],[62.4,9421],[65.3,9499],[65.4,9580],[65.6,9669],[65.6,9748],[65.6,9837],[65.6,9914],[65.6,10005],[65.6,10081],[65.6,10167],[65.6,10247],[65.6,10331],[65.6,10414],[65.6,10497],[65.6,10587],[65.6,10669],[65.6,10747],[65.6,10829],[65.6,10913],[65.6,10996],[65.6,11087],[65.6,11163],[65.6,11247],[65.6,11330],[65.6,11413],[65.6,11497],[65.6,11587],[65.6,11663],[65.6,11747],[65.6,11830],[65.6,11920],[65.6,11997],[65.6,12080],[65.6,12163],[65.6,12253],[65.6,12331],[65.6,12414],[65.6,12497],[65.6,12580],[65.6,12664],[65.6,12747],[65.6,12830],[65.6,12913],[65.6,12997],[65.6,13080],[65.6,13164],[65.6,13253],[65.6,13331],[61.8,13419],[24,13504],[8.8,13587],[6.4,13664],[6.4,13747],[6.4,13830],[6.4,13914],[6.4,13997],[6.4,14080],[6.4,14170],[6.4,14247],[6.4,14330],[6.4,14420],[6.4,14496],[6.4,14580],[6.4,14663],[6.4,14747],[6.4,14829],[6.4,14920],[6.4,14996],[6.4,15080],[6.4,15163],[6.4,15246],[6.4,15329],[6.4,15413],[6.4,15496],[6.4,15580],[6.4,15670],[6.4,15746],[6.4,15829],[6.4,15920],[6.4,15996],[6.4,16080],[6.4,16170],[6.4,16245],[6.4,16329],[6.4,16420],[6.4,16502],[6.4,16579],[6.4,16663],[6.4,16752],[6.4,16833],[6.4,16913],[6.4,17003],[6.4,17079],[6.4,17162],[6.4,17252],[6.4,17336],[6.4,17413],[6.4,17497],[6.4,17579],[6.4,17669],[6.4,17746],[6.4,17829],[6.4,17912],[6.4,17996],[6.4,18080],[6.4,18163],[6.4,18246],[6.4,18329],[6.4,18419],[6.4,18496],[6.4,18579],[6.4,18663],[6.4,18745],[6.4,18829],[6.4,18912],[6.4,18996],[6.4,19079],[6.4,19162],[6.4,19245],[6.4,19329],[6.4,19412],[6.4,19496],[6.4,19586],[6.4,19662],[6.4,19746],[6.4,19828],[6.4,19912],[6.4,19996],[6.4,20087],[6.4,20162],[6.4,20245],[6.4,20329],[6.4,20412],[6.4,20499],[6.4,20578],[6.4,20668],[6.4,20745],[6.4,20829],[6.4,20912],[6.4,20996],[6.4,21078],[6.4,21162],[6.4,21245],[6.4,21328],[6.4,21412],[6.4,21495],[6.4,21578],[6.4,21662],[6.4,21745],[6.4,21828],[6.4,21912],[6.4,21996],[6.4,22086],[6.4,22162],[6.4,22248],[6.4,22335],[6.4,22411],[6.4,22495],[6.4,22578],[6.4,22665],[6.4,22745],[6.4,22828],[6.4,22911],[6.4,23000],[6.4,23078],[6.4,23162],[6.4,23245],[6.4,23328],[6.4,23420],[6.4,23495],[6.4,23578],[6.4,23662],[6.4,23745],[6.4,23828],[6.4,23912],[6.4,23995],[6.4,24083],[6.4,24162],[6.4,24245],[6.4,24328],[6.4,24411],[6.4,24495],[6.4,24578],[6.4,24662],[6.4,24745],[6.4,24828],[6.4,24911],[6.4,25002],[6.4,25084],[6.4,25162],[6.4,25244],[11.1,25330],[15.6,25418],[17.7,25502],[21.7,25577],[28.1,25668],[34.6,25753],[36.7,25835],[37.5,25911],[37.9,25996],[38,26085],[38,26162],[38,26244],[38,26327],[38,26411],[38,26495],[38,26578],[38,26662],[38,26752],[38,26827],[38,26918],[38,26994],[38,27077],[38,27161],[38,27249],[38,27328],[38,27411],[38,27494],[38,27578],[38,27661],[38,27744],[38,27827],[38,27911],[38,27994],[38,28077],[38,28161],[38,28244],[38,28327],[38,28414],[38,28495],[39.2,28578],[42.7,28668],[43.5,28751],[43.8,28827],[44.2,28917],[45.1,29001],[47.5,29077],[49.9,29168],[54.6,29251],[57.3,29334],[59.2,29418],[59.9,29501],[60.9,29584],[61.8,29661],[63.2,29751],[64.6,29833],[65.1,29917],[65.1,30001],[65.1,30085],[65.1,30160],[65.1,30244],[65.1,30334],[65.1,30410],[65.1,30494],[65.1,30577],[65.1,30660],[65.1,30743],[65.1,30827],[65.1,30910],[65.1,31000],[65.1,31077],[65.1,31160],[65.1,31244],[65.1,31327],[65.1,31411],[65.1,31494],[65.1,31577],[65.1,31660],[65.1,31747],[65.1,31827]]",0,0,0,0,1,"Larry had recently lost his family, job and home, and was now living on his own in the park. He had most of his belongings, including some clothes, a blanket, and his mother’s special necklace. His family had been very important to him and he felt as though he did not have much going for him. One of his first days in the park he came across a family that did not have much food and looked very cold. He decided to give them some of his food and his blanket.","Larry had recently lost his family, job and home, and was now living on his own in the park. He had most of his belongings, including some clothes, a blanket, and his mother’s special necklace. His family had been very important to him and he felt as though he did not have much going for him. One of his first days in the park he came across a family that did not have much food and looked very cold. He decided to give them some of his food and his blanket.","Larry had recently lost his family, job and home, and was now living on his own in the park. He had most of his belongings, including some clothes, a blanket, and his mother’s special necklace. His family had been very important to him and he felt as though he did not have much going for him. One of his first days in the park he came across a family that did not have much food and looked very cold. He decided to give them some of his food and his blanket.","Larry had recently lost his family, job and home, and was now living on his own in the park. He had most of his belongings, including some clothes, a blanket, and his mother’s special necklace. His family had been very important to him and he felt as though he did not have much going for him. One of his first days in the park he came across a family that did not have much food and looked very cold. He decided to give them some of his food and his blanket.",,,,,,,,
,,,,,,661f16434d4a84871e91d6db,2024-05-13_08h45.37.214,group3.1-3.2-social-tom,2023.2.2,Win32,59.52380952,65c5074098b851296ff0b7ed,664235694d8bef45f9dc8ea6,,,,,,,,,,,,,,,,,,,,,,,,,,,,,1166.5824,1,audio/Narrative8Situation9.wav,1169.7465,space,,,,,,1203.3111,1205.8909,50,1.9568,"[{""rating"":50,""responseTime"":1.9567999999521817}]",space,2.0362,,1203.3084,Not at all,0,1203.3111,,,[],,,,,,,,,,,,,6,2,3,9,3.1327,,,,,,,,,,,,,,1169.7468,3,1203.3079,"[[999,1],[999,82],[999,165],[999,248],[999,338],[999,415],[999,498],[999,581],[999,665],[999,749],[999,839],[999,923],[999,1005],[999,1081],[999,1172],[27.3,1255],[28.1,1332],[30.3,1415],[35.3,1506],[35.5,1582],[35.6,1672],[36.1,1756],[37,1833],[37.4,1922],[37.4,1998],[37.4,2082],[37.4,2165],[37.4,2249],[4.1,4589],[5.4,4672],[5.4,4748],[5.4,4831],[5.3,4921],[5.3,4998],[5.3,5081],[4.8,5165],[0.7,5255],[0.2,5331],[0.1,5414],[0.1,5504],[0.2,5588],[0.2,5672],[0.5,5748],[0.5,5831],[0.5,5914],[0.5,5998],[0.5,6081],[0.5,6172],[0.5,6254],[0.5,6331],[0.5,6415],[0.5,6504],[0.5,6581],[0.5,6664],[0.5,6754],[0.5,6831],[0.5,6914],[0.5,6998],[0.5,7081],[0.5,7164],[0.5,7247],[0.5,7330],[0.5,7414],[0.5,7497],[0.5,7580],[0.5,7664],[0.5,7748],[0.5,7830],[0.5,7921],[0.5,7997],[0.5,8081],[0.5,8170],[0.5,8248],[0.5,8330],[0.5,8414],[0.5,8497],[0.5,8580],[0.5,8664],[0.5,8747],[0.5,8831],[0.5,8914],[0.5,9004],[0.5,9080],[0.5,9171],[0.5,9247],[0.5,9333],[0.5,9414],[0.5,9498],[0.5,9580],[0.5,9674],[0.5,9754],[0.5,9830],[0.5,9920],[0.5,10000],[0.5,10080],[0.5,10164],[0.5,10246],[0.5,10330],[0.5,10414],[0.5,10497],[0.5,10580],[0.5,10664],[0.5,10747],[0.5,10830],[0.5,10914],[0.5,10997],[0.5,11080],[0.5,11164],[0.5,11247],[0.5,11330],[0.5,11414],[0.5,11497],[0.5,11583],[0.5,11664],[0.5,11754],[0.5,11830],[0.5,11914],[0.5,11997],[0.5,12080],[0.5,12164],[0.5,12247],[0.5,12330],[0.5,12413],[0.5,12502],[0.5,12580],[0.5,12663],[0.5,12747],[0.5,12830],[0.5,12913],[0.5,12996],[0.5,13080],[0.5,13164],[0.5,13247],[0.5,13330],[0.5,13413],[0.5,13497],[0.5,13580],[0.5,13663],[0.5,13754],[0.5,13830],[0.5,13913],[0.5,13996],[0.5,14080],[0.5,14163],[0.5,14247],[0.5,14334],[0.5,14413],[0.5,14497],[0.5,14583],[0.5,14663],[0.5,14747],[0.5,14830],[0.5,14913],[0.5,14996],[0.5,15079],[0.5,15162],[0.5,15252],[0.5,15329],[0.5,15413],[0.5,15497],[0.5,15580],[0.5,15663],[0.5,15746],[0.5,15830],[0.5,15913],[0.5,16004],[0.5,16086],[0.5,16163],[0.5,16250],[0.5,16330],[0.5,16413],[0.5,16496],[0.5,16580],[0.5,16663],[0.5,16746],[0.5,16829],[0.5,16913],[0.5,16997],[0.5,17084],[0.5,17162],[0.5,17252],[0.5,17329],[0.5,17412],[0.5,17496],[0.5,17587],[0.5,17663],[0.5,17745],[0.5,17836],[0.5,17916],[0.5,18003],[0.5,18079],[0.5,18163],[0.5,18253],[0.5,18329],[0.5,18412],[0.5,18496],[0.5,18586],[0.5,18662],[0.5,18746],[0.5,18829],[0.5,18913],[0.5,18999],[0.5,19079],[0.5,19162],[0.5,19246],[0.5,19332],[0.5,19412],[0.5,19496],[0.5,19579],[0.5,19670],[0.5,19745],[0.5,19832],[0.5,19912],[0.5,19995],[0.5,20082],[0.5,20162],[0.5,20253],[0.5,20329],[0.5,20418],[0.5,20503],[0.5,20578],[0.5,20668],[0.5,20746],[0.5,20828],[0.5,20912],[0.5,20996],[2.3,21086],[3.4,21170],[5.1,21252],[7.8,21337],[9.3,21420],[9.7,21503],[9.7,21579],[9.7,21662],[9.7,21745],[9.7,21829],[9.7,21911],[9.7,21995],[9.7,22078],[9.7,22168],[12.8,22250],[9,23168],[8.6,23245],[8.6,23335],[8.6,23418],[8.6,23502],[8.6,23581],[8.6,23661],[8.6,23752],[8.6,23828],[11.6,23915],[14.2,24002],[14.8,24079],[14.8,24168],[14.8,24245],[14.8,24328],[14.8,24411],[14.8,24494],[14.8,24585],[14.8,24661],[14.8,24745],[14.8,24828],[14.8,24911],[14.8,24995],[14.8,25078],[14.8,25161],[14.8,25245],[14.8,25328],[14.8,25411],[14.8,25495],[14.8,25578],[14.8,25668],[14.8,25744],[14.8,25831],[14.8,25911],[14.8,25994],[16.5,26077],[19.9,26168],[26.3,26252],[37,26335],[40.5,26418],[41.1,26501],[41.4,26584],[39.9,26668],[17.9,26752],[12.3,26835],[12.1,26911],[11.7,26995],[11.6,27077],[11.6,27161],[11.6,27246],[11.6,27334],[11.6,27412],[11.6,27494],[11.6,27578],[11.5,27661],[12,27751],[14.7,28251],[14.2,28335],[13.3,28419],[12.6,28501],[12.3,28583],[12.3,28660],[12.3,28744],[12.1,28833],[11.6,28918],[10.5,29001],[10.1,29077],[10.1,29161],[10.1,29244],[10,29334],[10,29416],[10,29494],[10,29577],[10,29661],[10,29750],[10,29828],[10,29911],[10,29994],[10,30084],[10,30161],[10,30244],[10,30327],[12.9,30411],[16.9,30501],[19.9,30584],[29.9,30667],[41.2,30749],[49.1,30834],[54.1,30917],[58.4,31001],[65.4,31085],[70.6,31168],[74.2,31252],[76,31334],[76.4,31410],[76.4,31494],[76.4,31577],[76.4,31660],[76.4,31744],[76.4,31830],[76.4,31910],[76.4,31993],[76.4,32077],[76.4,32160],[76.4,32250],[76.4,32327],[76.4,32411],[76.4,32494],[76.4,32577],[76.4,32660],[76.4,32744],[76.4,32827],[76.4,32917],[76.4,32993],[76.4,33077],[76.4,33160],[76.4,33244],[76.4,33327],[76.4,33410],[76.4,33493]]",0,1,1,1,1,"It was just another Sunday afternoon for Lucy, she was on her way to the farmer's market to pick up some produce. When she arrived at the old train depot that housed the market, she noticed two men fighting on the steps. Before she could call for help, one of the men crumpled to his knees. The other man dropped an object that appeared to be a knife and ran off. When Lucy approached the crime scene she realized that the man who had been murdered was the Mayor and that he had a gunshot wound.","One day at work, Margaret walked up to her partner, Al, to ask him to talk to the chief of staff at the local hospital where she worked as a nurse.","Luke always thought of himself as an honest man. That's why during his evening jog around the swamp, he pondered his recent affair with the receptionist at work. Luke looked up at the sky and asked God why he was so weak and unfaithful. He thought of the impact this would have on his family and told God of his conflicted feelings toward telling his wife Marta.","Linda and Amy had been best friends since kindergarten, they even found homes on the same street in the forest on the edge of town. Their biggest fight had been over who gets the bigger slice of cake, until Amy married Dan. Linda loathed Dan, she thought he was manipulative and had a violent temper. She only put up with him because Amy loved him. ",,,,,,,,
