exp_question,consent.started,consent.stopped,consentResponse.keys,consentResponse.rt,consentResponse.duration,participantID,date,expName,psychopyVersion,OS,frameRate,STUDY_ID,SESSION_ID,opening1.started,opening1.stopped,keyEndingOpening1.keys,keyEndingOpening1.rt,keyEndingOpening1.duration,volumeAdjust.started,volumeAdjust.stopped,endingAdjust.keys,endingAdjust.rt,endingAdjust.duration,opening2.started,opening2.stopped,keyEndingOpening.keys,keyEndingOpening.rt,keyEndingOpening.duration,mouse.x,mouse.y,mouse.leftButton,mouse.midButton,mouse.rightButton,mouse.time,instructionLoop.thisRepN,instructionLoop.thisTrialN,instructionLoop.thisN,instructionLoop.thisIndex,instructionLoop.ran,readyForAudio.started,readyForAudio.stopped,fixation.started,run,audio_played,fixation.stopped,endPractice.keys,audioPre.started,audioPre.stopped,continuousResponses_audio,continuousSlider.response,continuousSlider.rt,intRating.started,intRating.stopped,intQuestionSlider.response,intQuestionSlider.rt,intQuestionSlider.history,confirmResponse.keys,confirmResponse.rt,confirmResponse.duration,catchQuestion.started,catch_label,catch_value,catchQuestion.stopped,catchQuestionSlider.response,catchQuestionSlider.rt,catchQuestionSlider.history,confirmResponse_2.keys,audioRunLoop.thisRepN,audioRunLoop.thisTrialN,audioRunLoop.thisN,audioRunLoop.thisIndex,audioRunLoop.ran,conditions1_1,conditions2_1,conditions1_2,conditions2_2,dur1_1,dur2_1,dur1_2,dur2_2,endPractice.rt,endPractice.duration,confirmResponse_2.rt,confirmResponse_2.duration,runIntervalBreak.started,runIntervalBreak.stopped,endingBreakKey.keys,endingBreakKey.rt,endingBreakKey.duration,connection.started,connection.stopped,connectionEnding.keys,connectionEnding.rt,connectionEnding.duration,readyForText.started,readyForText.stopped,textPre.started,run_dup,textPre.stopped,continuousResponses_text,textRunLoop.thisRepN,textRunLoop.thisTrialN,textRunLoop.thisN,textRunLoop.thisIndex,textRunLoop.ran,text1_1,text1_2,text2_1,text2_2,runBreakText.started,runBreakText.stopped,endingBreakKey_2.keys,endingBreakKey_2.rt,endingBreakKey_2.duration,ending.started,ending.stopped,endingEnding.keys,endingEnding.rt,endingEnding.duration
tom,0.0003,21.5312,y,21.2138,,662e578177f502513e454b33,2024-05-13_10h41.05.483,group3.1-3.2-social-tom,2023.2.2,Win32,144.9275362,65c5074098b851296ff0b7ed,6642345cb03ad3eda7105e78,,,,,,,,,,,,,,,,,,,,,,,,,,,,,,,,,,,,,,,,,,,,,,,,,,,,,,,,,,,,,,,,,,,,,,,,,,,,,,,,,,,,,,,,,,,,,,,,,,,,,,,,,,
,,,,,,662e578177f502513e454b33,2024-05-13_10h41.05.483,group3.1-3.2-social-tom,2023.2.2,Win32,144.9275362,65c5074098b851296ff0b7ed,6642345cb03ad3eda7105e78,21.5312,26.8356,space,5.2852,,,,,,,,,,,,,,,,,,,,,,,,,,,,,,,,,,,,,,,,,,,,,,,,,,,,,,,,,,,,,,,,,,,,,,,,,,,,,,,,,,,,,,,,,,,,,,,,,,,,,,
,,,,,,662e578177f502513e454b33,2024-05-13_10h41.05.483,group3.1-3.2-social-tom,2023.2.2,Win32,144.9275362,65c5074098b851296ff0b7ed,6642345cb03ad3eda7105e78,,,,,,26.8357,34.2233,space,7.0769,,,,,,,,,,,,,,,,,,,,,,,,,,,,,,,,,,,,,,,,,,,,,,,,,,,,,,,,,,,,,,,,,,,,,,,,,,,,,,,,,,,,,,,,,,,,,,,,,
,,,,,,662e578177f502513e454b33,2024-05-13_10h41.05.483,group3.1-3.2-social-tom,2023.2.2,Win32,144.9275362,65c5074098b851296ff0b7ed,6642345cb03ad3eda7105e78,,,,,,,,,,,34.2309,45.2557,space,11.0112,,[],[],[],[],[],[],0,0,0,0,1,,,,,,,,,,,,,,,,,,,,,,,,,,,,,,,,,,,,,,,,,,,,,,,,,,,,,,,,,,,,,,,,,,,,,,,,,,,,,,,,
,,,,,,662e578177f502513e454b33,2024-05-13_10h41.05.483,group3.1-3.2-social-tom,2023.2.2,Win32,144.9275362,65c5074098b851296ff0b7ed,6642345cb03ad3eda7105e78,,,,,,,,,,,45.2619,70.1947,space,24.8574,,[],[],[],[],[],[],1,0,1,0,1,,,,,,,,,,,,,,,,,,,,,,,,,,,,,,,,,,,,,,,,,,,,,,,,,,,,,,,,,,,,,,,,,,,,,,,,,,,,,,,,
,,,,,,662e578177f502513e454b33,2024-05-13_10h41.05.483,group3.1-3.2-social-tom,2023.2.2,Win32,144.9275362,65c5074098b851296ff0b7ed,6642345cb03ad3eda7105e78,,,,,,,,,,,70.2002,84.4209,space,14.1933,,[],[],[],[],[],[],2,0,2,0,1,,,,,,,,,,,,,,,,,,,,,,,,,,,,,,,,,,,,,,,,,,,,,,,,,,,,,,,,,,,,,,,,,,,,,,,,,,,,,,,,
,,,,,,662e578177f502513e454b33,2024-05-13_10h41.05.483,group3.1-3.2-social-tom,2023.2.2,Win32,144.9275362,65c5074098b851296ff0b7ed,6642345cb03ad3eda7105e78,,,,,,,,,,,84.4265,95.7517,space,11.3147,,[],[],[],[],[],[],3,0,3,0,1,,,,,,,,,,,,,,,,,,,,,,,,,,,,,,,,,,,,,,,,,,,,,,,,,,,,,,,,,,,,,,,,,,,,,,,,,,,,,,,,
,,,,,,662e578177f502513e454b33,2024-05-13_10h41.05.483,group3.1-3.2-social-tom,2023.2.2,Win32,144.9275362,65c5074098b851296ff0b7ed,6642345cb03ad3eda7105e78,,,,,,,,,,,95.7573,107.909,space,12.1407,,[],[],[],[],[],[],4,0,4,0,1,,,,,,,,,,,,,,,,,,,,,,,,,,,,,,,,,,,,,,,,,,,,,,,,,,,,,,,,,,,,,,,,,,,,,,,,,,,,,,,,
,,,,,,662e578177f502513e454b33,2024-05-13_10h41.05.483,group3.1-3.2-social-tom,2023.2.2,Win32,144.9275362,65c5074098b851296ff0b7ed,6642345cb03ad3eda7105e78,,,,,,,,,,,,,,,,,,,,,,,,,,,107.9155,110.4917,110.5072,1,audio/Narrative13Situation2.wav,112.5123,,112.5125,142.2495,"[[999,0],[999,103],[999,187],[999,270],[999,353],[999,436],[999,520],[999,603],[999,686],[999,770],[999,853],[999,937],[999,1020],[999,1103],[999,1186],[999,1270],[999,1353],[999,1436],[999,1520],[999,1603],[999,1686],[999,1770],[999,1853],[999,1936],[999,2019],[999,2103],[999,2186],[999,2270],[999,2353],[999,2436],[999,2519],[999,2603],[999,2686],[999,2769],[999,2853],[999,2936],[999,3019],[999,3103],[48.5,3186],[47,3269],[45.2,3353],[44,3436],[43,3520],[42.1,3603],[41,3686],[40.4,3769],[40.4,3852],[40.4,3936],[40.4,4019],[40.4,4102],[40.4,4186],[40.4,4269],[40.4,4352],[40.4,4436],[40.4,4519],[40.4,4602],[40.4,4686],[49.1,4769],[56.3,4852],[62,4936],[69.8,5019],[75.3,5102],[75.4,5186],[75.4,5269],[75.4,5352],[75.4,5436],[75.4,5519],[75.4,5602],[75.4,5685],[75.4,5769],[75.4,5852],[75.4,5935],[75.4,6019],[75.4,6102],[75.4,6185],[75.4,6269],[75.4,6352],[75.4,6435],[75.4,6519],[75.4,6602],[75.4,6685],[75.4,6769],[75.4,6852],[75.4,6935],[75.4,7018],[75.4,7102],[75.4,7185],[75.4,7268],[75.4,7352],[75.4,7435],[75.4,7519],[75.4,7602],[75.4,7685],[75.4,7768],[75.4,7852],[75.4,7935],[75.4,8018],[75.4,8102],[75.4,8185],[75.4,8268],[75.4,8352],[75.4,8435],[75.4,8518],[75.4,8602],[75.4,8685],[75.4,8768],[75.4,8851],[75.4,8935],[75.4,9018],[75.4,9101],[75.4,9185],[75.4,9268],[75.4,9351],[75.4,9435],[75.4,9518],[75.4,9601],[75.4,9685],[75.4,9768],[75.4,9851],[75.4,9935],[75.4,10018],[75.4,10101],[75.4,10185],[75.4,10268],[75.4,10351],[75.4,10434],[77.4,10518],[80.6,10601],[82.9,10685],[83.9,10768],[77.4,13768],[78.3,13851],[78.3,13934],[78.3,14017],[78.3,14100],[78.3,14184],[78.3,14267],[78.3,14351],[78.3,14434],[78.3,14517],[78.3,14600],[78.3,14684],[78.3,14767],[78,14851],[78,14933],[77.4,15019],[76.8,15100],[76.5,15184],[75.8,15267],[75.4,15350],[75.4,15433],[75.2,15517],[75.2,15600],[75.2,15683],[75.1,15767],[75.1,15850],[74.9,15933],[74.5,16017],[74.5,16100],[74.5,16183],[74.5,16266],[74.5,16350],[74.5,16433],[74.5,16517],[74.5,16600],[74.5,16683],[74.5,16767],[74.5,16850],[74.3,16933],[74,17017],[73,17100],[71.8,17183],[70.4,17266],[69.5,17350],[68.6,17433],[68.6,17516],[68.5,17600],[68.4,17683],[68.4,17766],[68.4,17850],[68.4,17933],[68.4,18016],[68.4,18100],[68.4,18183],[68.4,18266],[68.4,18349],[68.4,18433],[68.4,18516],[68.4,18599],[68.4,18683],[68.4,18766],[68.4,18849],[68.4,18933],[68.4,19016],[68.4,19099],[68.4,19183],[68.4,19266],[68.4,19349],[68.4,19432],[68.4,19516],[68.4,19599],[68.4,19682],[68.4,19766],[68.4,19849],[68.4,19933],[68.4,20016],[68.4,20099],[68.4,20182],[68.4,20266],[68.4,20349],[68.4,20432],[68.4,20516],[68.4,20599],[68.4,20682],[68.4,20766],[68.4,20849],[68.4,20932],[68.4,21016],[68.4,21099],[68.4,21182],[68.4,21265],[68.4,21349],[68.4,21432],[68.4,21516],[68.4,21599],[68.4,21682],[68.4,21766],[68.4,21849],[68.4,21932],[68.5,22016],[70.1,22099],[74.7,22182],[79.6,22265],[83.5,22349],[85.3,22432],[85.9,22515],[86.1,22598],[86.1,22682],[86.1,22765],[86.1,22849],[86.1,22932],[86.1,23015],[86.1,23099],[86.1,23182],[86.1,23265],[86.1,23348],[86.1,23432],[86.1,23515],[86.1,23598],[86.1,23682],[86.1,23765],[86.1,23848],[86.1,23932],[86.1,24015],[86.1,24098],[86.1,24182],[86.1,24265],[86.1,24348],[86.1,24432],[86.1,24515],[86.1,24598],[86.1,24681],[86.1,24765],[86.1,24848],[86.1,24932],[86.1,25015],[86.1,25098],[86.1,25181],[86.1,25265],[86.1,25348],[86.1,25431],[86.1,25515],[86.1,25598],[86.1,25681],[86.1,25765],[86.1,25848],[86.1,25931],[85.5,26015],[84.1,26098],[84,26181],[84,26264],[84,26348],[84,26431],[84,26514],[84,26598],[84,26681],[84,26764],[84,26848],[84,26931],[84,27014],[84,27098],[84,27181],[84,27264],[84,27348],[84,27431],[84,27514],[84,27598],[84,27681],[88.7,27764],[94.3,27848],[95.5,27931],[95.7,28014],[96.4,28098],[96.4,28181],[96.4,28264],[96.4,28347],[96.4,28431],[96.4,28514],[96.4,28597],[96.6,28681],[96.9,28764],[96.9,28847],[96.9,28931],[96.9,29014],[96.9,29097],[97.1,29181],[97.4,29264],[97.5,29347],[97.5,29431],[97.5,29514],[97.5,29597],[98,29681]]",1,0,142.2496,148.9009,82.29166667,5.0495,"[{""rating"":82.29166666666667,""responseTime"":5.049499999999995}]",space,6.1355,,148.9011,Not at all,0,148.9036,,,[],,0,0,0,0,1,audio/Narrative13Situation2.wav,audio/Narrative13Situation2.wav,audio/Narrative13Situation2.wav,audio/Narrative13Situation2.wav,2,2,2,2,,,,,,,,,,,,,,,,,,,,,,,,,,,,,,,,,,,,,,,
,,,,,,662e578177f502513e454b33,2024-05-13_10h41.05.483,group3.1-3.2-social-tom,2023.2.2,Win32,144.9275362,65c5074098b851296ff0b7ed,6642345cb03ad3eda7105e78,,,,,,,,,,,,,,,,,,,,,,,,,,,,,148.9037,1,audio/Narrative8Situation1.wav,151.032,space,151.032,166.9455,"[[999,0],[999,83],[999,166],[999,250],[999,333],[999,416],[999,499],[999,583],[999,666],[999,750],[999,833],[999,916],[999,999],[999,1082],[999,1166],[999,1249],[999,1332],[999,1416],[999,1499],[999,1582],[999,1666],[999,1749],[999,1832],[999,1916],[999,1999],[999,2082],[999,2166],[999,2249],[999,2332],[999,2416],[999,2499],[999,2582],[999,2666],[999,2749],[72.7,2832],[72.1,2915],[72,2999],[72,3082],[72,3165],[72,3249],[72,3332],[64.1,3416],[59.1,3499],[58.6,3582],[58.6,3665],[58.6,3749],[58.6,3832],[58.6,3915],[58.6,3999],[58.6,4082],[58.6,4165],[58.6,4248],[57.2,4332],[55.7,4416],[53.7,4498],[52.7,4582],[51.7,4665],[50.9,4748],[50.8,4832],[50.8,4915],[50.8,4999],[50.8,5082],[50.8,5165],[50.8,5248],[50.8,5332],[50.8,5415],[50.8,5498],[50.8,5581],[51.1,5665],[52,5748],[52.8,5832],[67.5,6081],[67.5,6165],[67.5,6248],[67.5,6332],[67.5,6415],[67.5,6498],[67.5,6581],[67.5,6665],[67.5,6748],[67.5,6831],[67.5,6915],[67.5,6998],[67.5,7081],[67.5,7164],[67.5,7248],[68,7331],[68.8,7415],[69.3,7498],[69.8,7581],[70.7,7664],[71.4,7748],[71.7,7831],[72.1,7914],[72.5,7998],[72.6,8081],[72.8,8165],[72.9,8248],[73.2,8331],[73.9,8415],[74.3,8498],[74.5,8581],[74.5,8664],[74.5,8748],[74.5,8831],[74.5,8914],[74.5,8998],[74.5,9081],[74.5,9164],[74.5,9247],[74.5,9331],[74.5,9414],[74.5,9497],[74.5,9581],[74.5,9664],[74.5,9747],[74.5,9831],[74.5,9914],[74.5,9997],[74.5,10081],[74.5,10164],[74.5,10247],[74.5,10331],[74.5,10414],[74.5,10497],[74.5,10580],[74.5,10664],[74.5,10747],[74.5,10830],[74.5,10914],[74.5,10997],[74.5,11080],[74.5,11163],[74.5,11247],[74.5,11330],[74.5,11414],[74.5,11497],[74.5,11580],[74.5,11664],[74.5,11747],[74.5,11830],[74.5,11914],[74.5,11997],[74.5,12080],[74.5,12163],[74.5,12247],[74.5,12330],[74.5,12414],[74.5,12497],[74.5,12580],[74.5,12663],[74.5,12747],[74.5,12830],[74.5,12913],[74.5,12997],[74.5,13080],[74.5,13163],[74.5,13247],[74.5,13330],[74.5,13413],[74.5,13497],[74.5,13580],[74.5,13663],[74.5,13747],[74.5,13830],[74.5,13913],[74.5,13996],[74.5,14080],[74.5,14163],[74.5,14246],[74.5,14330],[74.5,14413],[74.5,14496],[74.5,14580],[74.5,14663],[74.5,14746],[74.5,14830],[74.5,14913],[74.5,14996],[74.5,15080],[74.5,15163],[74.5,15246],[74.5,15330],[74.5,15413],[74.5,15496],[74.5,15579],[74.5,15663],[74.5,15746],[74.5,15829],[74.5,15913]]",1,0,166.9457,171.5139,70.3125,2.4232,"[{""rating"":70.3125,""responseTime"":2.423199999928471}]",space,4.0519,,171.5139,Half the time,50,171.5157,,,[],,0,1,1,1,1,audio/Narrative7Situation1.wav,audio/Narrative8Situation1.wav,audio/Narrative5Situation1.wav,audio/Narrative6Situation1.wav,2,5,5,2,2.1147,,,,,,,,,,,,,,,,,,,,,,,,,,,,,,,,,,,,,,
,,,,,,662e578177f502513e454b33,2024-05-13_10h41.05.483,group3.1-3.2-social-tom,2023.2.2,Win32,144.9275362,65c5074098b851296ff0b7ed,6642345cb03ad3eda7105e78,,,,,,,,,,,,,,,,,,,,,,,,,,,,,171.5159,1,audio/Narrative8Situation2.wav,174.5201,,174.5201,184.6224,"[[999,5],[999,83],[999,166],[999,250],[999,333],[999,416],[999,499],[999,583],[999,666],[999,750],[999,833],[999,916],[999,999],[999,1083],[999,1166],[999,1249],[999,1333],[999,1416],[999,1499],[999,1583],[999,1666],[999,1749],[999,1832],[999,1916],[999,1999],[999,2083],[999,2166],[999,2249],[999,2332],[999,2416],[999,2499],[999,2582],[999,2666],[999,2749],[999,2832],[999,2916],[999,2999],[999,3082],[999,3166],[999,3249],[67.8,3332],[67.2,3416],[67,3499],[67,3582],[67,3665],[67,3749],[67,3832],[67,3915],[67,3999],[68.8,4082],[70,4166],[71.3,4249],[72.4,4332],[74.5,4415],[78.3,4499],[82.2,4582],[85.1,4665],[87,4748],[89,4832],[89.5,4915],[89.5,4999],[89.5,5082],[89.5,5165],[89.5,5248],[89.5,5332],[89.5,5415],[89.5,5499],[89.5,5582],[89.5,5665],[89.5,5748],[89.5,5832],[89.5,5915],[89.5,5998],[89.5,6082],[89.5,6165],[89.5,6248],[89.5,6332],[89.5,6415],[89.5,6498],[89.5,6582],[89.5,6665],[89.5,6748],[89.5,6831],[89.5,6915],[89.5,6998],[89.5,7081],[89.5,7165],[89.5,7248],[89.5,7331],[89.5,7415],[89.5,7498],[89.5,7581],[89.5,7665],[89.5,7748],[89.5,7831],[89.5,7915],[89.5,7998],[89.5,8081],[89.5,8164],[89.5,8248],[89.5,8331],[89.5,8415],[89.5,8498],[89.5,8581],[89.5,8664],[89.5,8748],[89.5,8831],[89.5,8914],[89.5,8998],[89.5,9081],[89.5,9164],[89.5,9248],[89.5,9331],[89.5,9414],[89.5,9497],[89.5,9581],[89.5,9664],[89.5,9748],[89.5,9831],[89.5,9914],[89.5,9997],[89.5,10081]]",1,0,184.6225,187.0105,86.87500954,1.1931,"[{""rating"":86.87500953674316,""responseTime"":1.1931000000238612}]",space,1.8708,,187.0106,Not at all,0,187.0124,,,[],,0,2,2,2,1,audio/Narrative7Situation2.wav,audio/Narrative8Situation2.wav,audio/Narrative5Situation2.wav,audio/Narrative6Situation2.wav,3,3,3,3,,,,,,,,,,,,,,,,,,,,,,,,,,,,,,,,,,,,,,,
,,,,,,662e578177f502513e454b33,2024-05-13_10h41.05.483,group3.1-3.2-social-tom,2023.2.2,Win32,144.9275362,65c5074098b851296ff0b7ed,6642345cb03ad3eda7105e78,,,,,,,,,,,,,,,,,,,,,,,,,,,,,187.0125,1,audio/Narrative8Situation3.wav,191.0168,,191.0168,213.3871,"[[75.2,8428],[73.5,8762],[72.8,8845],[72.7,8928],[72.7,9011],[72.7,9095],[72.7,9178],[72.7,9261],[72.7,9345],[69.9,9428],[66.8,9511],[65.2,9594],[64.5,9678],[64.5,9761],[64.5,9844],[64.5,9928],[64.5,10011],[64.5,10094],[64.5,10178],[64.5,10261],[64.5,10345],[64.5,10428],[64.5,10511],[67.1,10594],[69.7,10678],[72.6,10761],[73.9,10844],[74,10928],[74,11011],[74,11094],[74,11177],[74,11261],[74,11344],[74,11428],[74,11511],[74,11594],[74,11677],[74,11761],[74,11844],[74,11927],[74,12011],[74,12094],[74,12177],[74,12261],[74,12344],[74,12427],[74,12511],[74,12594],[74,12677],[74,12760],[74,12844],[74,12927],[74,13011],[74.5,13094],[75.2,13177],[75.8,13260],[76,13344],[76.4,13427],[76.6,13510],[77.1,13594],[77.6,13677],[78,13760],[78.1,13844],[78.1,13927],[78.1,14010],[78.1,14094],[78.1,14177],[78.1,14260],[78.1,14343],[78.1,14427],[78.1,14510],[78.1,14593],[78.1,14677],[78.1,14760],[78.1,14843],[78.1,14927],[78.1,15010],[78.1,15093],[78.1,15177],[78.1,15260],[78.1,15343],[78.1,15427],[78.1,15510],[78.1,15593],[78.1,15677],[78.1,15760],[78.1,15843],[78.1,15926],[78.1,16010],[78.1,16093],[78.1,16176],[78.1,16260],[78.1,16343],[78.1,16427],[78.1,16510],[78.1,16593],[78.1,16676],[78.1,16760],[78.1,16843],[78.1,16926],[78.1,17010],[78.1,17093],[78.1,17176],[78.1,17260],[78.1,17343],[78.1,17426],[78.1,17510],[78.1,17593],[78.1,17676],[78.1,17759],[78.1,17843],[78.1,17926],[78.1,18009],[78.1,18093],[78.1,18176],[78.1,18259],[78.1,18343],[78.1,18426],[78.1,18509],[78.1,18593],[78.1,18676],[78.1,18759],[78.1,18843],[78.1,18926],[78.1,19009],[78.1,19093],[78.1,19176],[78.1,19259],[78.1,19342],[78.1,19426],[78.1,19509],[78.1,19592],[78.1,19676],[78.1,19759],[78.1,19842],[78.1,19926],[78.1,20009],[78.1,20092],[78.1,20176],[78.1,20259],[78.1,20342],[78.1,20426],[78.1,20509],[78.1,20592],[78.1,20676],[78.1,20759],[78.1,20842],[78.1,20926],[78.1,21009],[78.1,21092],[78.1,21175],[78.1,21259],[78.1,21342],[78.1,21425],[78.1,21509],[78.1,21592],[78.1,21675],[78.1,21759],[78.1,21842],[78.1,21925],[78.1,22009],[78.1,22092],[78.1,22175],[78.1,22259],[78.1,22342]]",1,0,213.3872,216.6325,77.18749841,1.9478,"[{""rating"":77.1874984105428,""responseTime"":1.9477999999523377}]",space,2.727,,216.6326,All the time,100,216.6343,,,[],,0,3,3,3,1,audio/Narrative7Situation3.wav,audio/Narrative8Situation3.wav,audio/Narrative5Situation3.wav,audio/Narrative6Situation3.wav,8,4,3,5,,,,,,,,,,,,,,,,,,,,,,,,,,,,,,,,,,,,,,,
,,,,,,662e578177f502513e454b33,2024-05-13_10h41.05.483,group3.1-3.2-social-tom,2023.2.2,Win32,144.9275362,65c5074098b851296ff0b7ed,6642345cb03ad3eda7105e78,,,,,,,,,,,,,,,,,,,,,,,,,,,,,216.6345,1,audio/Narrative8Situation4.wav,219.6356,,219.6356,233.7994,"[[999,0],[999,83],[999,166],[999,249],[999,333],[999,416],[999,499],[999,583],[999,667],[999,749],[999,833],[999,916],[999,999],[999,1083],[999,1166],[999,1249],[999,1335],[999,1416],[999,1499],[999,1583],[999,1669],[999,1749],[999,1833],[999,1916],[999,1999],[999,2082],[999,2169],[999,2249],[999,2333],[999,2416],[999,2502],[999,2582],[999,2666],[999,2749],[999,2832],[999,2916],[999,2999],[999,3085],[999,3168],[999,3249],[999,3332],[999,3418],[999,3499],[999,3582],[999,3665],[999,3749],[999,3832],[999,3915],[999,3999],[999,4082],[999,4165],[999,4249],[999,4332],[999,4415],[999,4499],[999,4585],[999,4665],[999,4752],[999,4832],[999,4915],[999,4998],[999,5082],[999,5168],[999,5251],[999,5332],[999,5415],[999,5498],[999,5582],[999,5668],[999,5751],[999,5832],[999,5918],[999,5998],[999,6082],[999,6165],[999,6248],[999,6334],[999,6418],[999,6498],[999,6581],[999,6668],[999,6751],[999,6832],[999,6915],[999,6998],[999,7084],[999,7165],[999,7251],[999,7331],[999,7415],[999,7498],[999,7581],[999,7667],[999,7748],[999,7834],[999,7915],[999,7998],[999,8084],[999,8167],[999,8248],[999,8334],[999,8417],[999,8498],[999,8581],[999,8664],[999,8751],[999,8834],[999,8914],[999,8998],[999,9084],[999,9164],[999,9247],[999,9331],[999,9414],[999,9497],[999,9581],[999,9664],[999,9747],[999,9831],[999,9914],[999,9998],[999,10081],[999,10164],[999,10247],[999,10333],[999,10414],[999,10497],[999,10583],[999,10664],[999,10747],[999,10831],[999,10914],[999,10997],[999,11081],[999,11164],[999,11247],[999,11331],[999,11417],[999,11497],[999,11580],[999,11664],[999,11747],[999,11830],[999,11914],[999,11997],[999,12080],[999,12164],[999,12247],[999,12333],[999,12414],[999,12497],[999,12580],[999,12664],[999,12747],[999,12830],[999,12916],[999,12997],[999,13080],[999,13163],[999,13247],[999,13330],[999,13414],[999,13500],[999,13580],[999,13666],[999,13747],[999,13830],[999,13913],[999,13997],[999,14080],[999,14163]]",1,0,233.7995,236.7808,73.95833333,2.5869,"[{""rating"":73.95833333333334,""responseTime"":2.58689999997614}]",space,2.4514,,236.7808,Not at all,0,236.7824,,,[],,0,4,4,4,1,audio/Narrative7Situation4.wav,audio/Narrative8Situation4.wav,audio/Narrative5Situation4.wav,audio/Narrative6Situation4.wav,3,3,1,2,,,,,,,,,,,,,,,,,,,,,,,,,,,,,,,,,,,,,,,
,,,,,,662e578177f502513e454b33,2024-05-13_10h41.05.483,group3.1-3.2-social-tom,2023.2.2,Win32,144.9275362,65c5074098b851296ff0b7ed,6642345cb03ad3eda7105e78,,,,,,,,,,,,,,,,,,,,,,,,,,,,,236.7825,1,audio/Narrative8Situation5.wav,238.7846,,238.7846,247.0211,"[[999,0],[999,83],[999,166],[999,249],[999,333],[999,419],[999,499],[999,583],[999,666],[999,752],[65.3,836],[65,919],[65,1002],[65,1085],[65,1166],[65,1249],[65,1335],[65,1416],[65,1502],[65,1582],[65,1665],[65,1749],[65,1835],[65,1916],[65,1999],[65,2082],[65,2166],[65,2249],[65,2332],[65,2415],[65,2499],[65,2582],[65,2666],[65,2749],[65,2832],[65,2915],[65,3002],[65,3082],[65.6,3172],[66.8,3256],[68.1,3339],[69,3422],[69,3506],[69,3589],[69,3672],[69.1,3756],[69.2,3839],[69.2,3922],[69.2,4006],[69.2,4089],[69.2,4172],[69.2,4255],[69.2,4339],[69.2,4422],[69.3,4505],[70.3,4588],[71.8,4672],[73.6,4755],[75,4838],[76.4,4922],[76.8,5005],[76.9,5089],[77.1,5172],[78,5255],[79.4,5338],[80.2,5422],[80.7,5505],[80.7,5588],[80.7,5672],[80.7,5755],[80.7,5838],[80.7,5922],[80.7,6005],[80.7,6088],[80.7,6172],[80.7,6255],[80.7,6338],[80.7,6422],[80.7,6515],[80.7,6595],[80.7,6681],[80.8,6762],[80.8,6845],[80.8,6929],[80.8,7012],[80.6,7095],[80.6,7178],[80.6,7262],[80.6,7345],[80.6,7428],[80.6,7512],[80.6,7598],[80.6,7678],[80.6,7761],[80.6,7847],[80.6,7928],[80.6,8012],[80.6,8098],[80.6,8178]]",1,0,247.0213,248.6227,80.00000318,0.8774,"[{""rating"":80.00000317891438,""responseTime"":0.8773999999761486}]",space,1.0831,,248.6228,Half the time,50,248.6244,,,[],,0,5,5,5,1,audio/Narrative7Situation5.wav,audio/Narrative8Situation5.wav,audio/Narrative5Situation5.wav,audio/Narrative6Situation5.wav,5,2,5,2,,,,,,,,,,,,,,,,,,,,,,,,,,,,,,,,,,,,,,,
,,,,,,662e578177f502513e454b33,2024-05-13_10h41.05.483,group3.1-3.2-social-tom,2023.2.2,Win32,144.9275362,65c5074098b851296ff0b7ed,6642345cb03ad3eda7105e78,,,,,,,,,,,,,,,,,,,,,,,,,,,,,248.6246,1,audio/Narrative8Situation6.wav,250.6293,,250.6293,257.0862,"[[79.9,3339],[79.1,3423],[78.9,3506],[78.9,3589],[78.9,3672],[78.9,3756],[78.9,3839],[78.9,3922],[78.9,4006],[78.9,4089],[78.9,4172],[78.9,4256],[78.9,4339],[78.9,4422],[78.9,4505],[78.9,4589],[78.9,4672],[78.9,4755],[78.9,4839],[78.9,4922],[78.9,5005],[78.9,5089],[78.9,5172],[78.9,5255],[78.9,5339],[78.9,5422],[78.9,5505],[78.9,5589],[78.9,5672],[78.9,5755],[78.9,5838],[78.9,5922],[78.9,6005],[78.9,6088],[78.9,6172],[78.9,6255],[78.9,6338],[78.9,6422]]",1,0,257.0863,258.4194,78.85417144,1.0988,"[{""rating"":78.85417143503825,""responseTime"":1.0987999999523481}]",space,0.8135,,258.4194,Half the time,50,265.5635,49.79166985,3.9732,"[{""rating"":49.791669845581055,""responseTime"":3.973199999928454}]",space,0,6,6,6,1,audio/Narrative7Situation6.wav,audio/Narrative8Situation6.wav,audio/Narrative5Situation6.wav,audio/Narrative6Situation6.wav,3,2,3,2,,,6.6263,,,,,,,,,,,,,,,,,,,,,,,,,,,,,,,,,,,,
,,,,,,662e578177f502513e454b33,2024-05-13_10h41.05.483,group3.1-3.2-social-tom,2023.2.2,Win32,144.9275362,65c5074098b851296ff0b7ed,6642345cb03ad3eda7105e78,,,,,,,,,,,,,,,,,,,,,,,,,,,,,265.5638,1,audio/Narrative8Situation7.wav,268.5699,,268.57,280.6438,"[[999,5],[999,83],[999,169],[999,252],[999,333],[999,416],[999,499],[999,585],[999,669],[999,749],[999,835],[999,918],[999,1002],[999,1085],[52.4,1169],[51.8,1252],[51.6,1335],[51.6,1418],[51.6,1499],[51.6,1582],[51.6,1666],[51.6,1752],[51.6,1835],[51.6,1916],[52.8,1999],[53.4,2085],[53.5,2166],[53.5,2249],[53.5,2335],[53.5,2418],[53.5,2499],[53.5,2582],[53.5,2665],[53.5,2749],[53.5,2832],[53.5,2918],[53.5,2999],[53.5,3082],[53.5,3165],[53.5,3249],[53.5,3334],[53.5,3415],[53.5,3499],[53.5,3582],[53.5,3665],[53.5,3749],[53.5,3839],[53.5,3922],[53.5,4006],[53.5,4089],[53.5,4172],[53.5,4258],[53.5,4339],[53.5,4422],[53.5,4506],[53.5,4589],[53.5,4672],[53.5,4755],[53.5,4839],[53.5,4922],[53.5,5008],[53.5,5092],[53.5,5172],[53.5,5258],[53.5,5341],[53.5,5422],[53.5,5505],[53.5,5591],[53.5,5672],[53.5,5755],[53.5,5838],[53.5,5925],[53.5,6005],[53.5,6088],[53.5,6172],[53.5,6255],[53.5,6341],[53.5,6422],[53.5,6507],[53.5,6588],[53.5,6672],[53.5,6755],[53.5,6838],[54.3,6929],[56.1,7012],[58.3,7095],[61.8,7179],[62.9,7262],[62.9,7345],[62.9,7428],[62.9,7512],[62.9,7595],[62.9,7678],[62.9,7762],[62.9,7845],[62.9,7928],[62.9,8012],[62.9,8095],[62.9,8178],[62.9,8262],[62.9,8345],[62.9,8428],[62.9,8511],[62.9,8595],[62.9,8678],[62.9,8762],[62.9,8845],[62.9,8928],[62.9,9011],[62.9,9095],[62.9,9178],[62.9,9261],[62.9,9345],[62.9,9428],[62.9,9511],[62.9,9594],[62.9,9678],[62.9,9761],[62.9,9844],[62.9,9928],[62.9,10011],[62.9,10094],[62.9,10178],[62.9,10261],[62.9,10344],[62.9,10428],[62.9,10511],[62.9,10594],[62.9,10678],[62.9,10761],[62.9,10844],[62.9,10928],[62.9,11011],[62.9,11094],[62.9,11178],[62.9,11261],[62.9,11344],[62.9,11428],[62.9,11511],[62.9,11594],[62.9,11677],[62.9,11761],[62.9,11844],[62.9,11927],[62.9,12011]]",1,0,280.644,281.956,62.81250318,1.1095,"[{""rating"":62.81250317891439,""responseTime"":1.1095000000000255}]",space,0.7952,,281.956,All the time,100,281.9577,,,[],,0,7,7,7,1,audio/Narrative7Situation7.wav,audio/Narrative8Situation7.wav,audio/Narrative5Situation7.wav,audio/Narrative6Situation7.wav,5,3,4,5,,,,,,,,,,,,,,,,,,,,,,,,,,,,,,,,,,,,,,,
,,,,,,662e578177f502513e454b33,2024-05-13_10h41.05.483,group3.1-3.2-social-tom,2023.2.2,Win32,144.9275362,65c5074098b851296ff0b7ed,6642345cb03ad3eda7105e78,,,,,,,,,,,,,,,,,,,,,,,,,,,,,281.9578,1,audio/Narrative8Situation8.wav,284.9623,,284.9623,297.7999,"[[65.3,833],[66.5,916],[67.4,999],[67.9,1083],[67.9,1166],[68.1,1249],[68.2,1333],[68.2,1416],[68.2,1499],[68.2,1582],[68.2,1666],[68.2,1749],[68.2,1832],[68.8,1916],[69.9,1999],[73.2,2082],[75.1,2166],[77.9,2249],[78.4,2332],[78.4,2416],[78.4,2499],[78.4,2582],[78.4,2666],[78.4,2749],[78.4,2832],[78.4,2916],[78.4,2999],[78.4,3082],[78.4,3165],[78.4,3249],[78.4,3332],[78.4,3415],[78.4,3499],[78.4,3582],[78.4,3665],[78.4,3749],[78.4,3832],[78.4,3915],[78.4,3999],[78.4,4082],[78.4,4165],[78.4,4249],[78.4,4332],[78.4,4415],[78.4,4499],[78.4,4582],[78.4,4665],[78.4,4749],[78.4,4832],[78.4,4915],[78.4,4998],[78.4,5082],[78.4,5165],[78.4,5248],[78.4,5332],[78.4,5415],[78.4,5498],[78.4,5582],[78.4,5665],[78.4,5748],[78.4,5831],[78.4,5915],[78.4,5998],[78.4,6081],[78.4,6165],[78.4,6248],[78.4,6331],[78.4,6415],[78.4,6498],[78.4,6581],[78.4,6665],[78.4,6748],[78.4,6831],[78.4,6915],[78.4,6998],[78.4,7081],[78.4,7165],[78.4,7248],[78.4,7332],[78.4,7415],[78.4,7498],[78.4,7581],[78.4,7664],[78.4,7748],[78.4,7831],[78.4,7914],[78.4,7998],[78.4,8081],[78.4,8164],[78.4,8248],[78.4,8331],[78.4,8414],[78.4,8498],[78.4,8581],[78.4,8664],[78.4,8748],[78.4,8831],[78.4,8915],[78.4,8998],[78.4,9081],[78.4,9164],[78.4,9248],[78.4,9331],[78.4,9414],[78.4,9497],[78.4,9581],[78.4,9664],[78.4,9747],[78.4,9831],[78.4,9914],[78.4,9997],[78.4,10081],[78.4,10164],[78.4,10247],[78.4,10331],[78.4,10414],[78.4,10497],[78.4,10581],[78.4,10664],[78.4,10747],[78.4,10830],[78.4,10914],[78.4,10997],[78.4,11080],[78.4,11164],[78.4,11247],[78.4,11330],[78.4,11414],[78.4,11497],[78.4,11580],[78.4,11664],[78.4,11747],[78.4,11830],[78.4,11914],[78.4,11997],[78.4,12080],[78.4,12163],[78.4,12247],[78.4,12330],[78.4,12414],[78.4,12497],[78.4,12580],[78.4,12664],[78.4,12747],[78.4,12830]]",1,0,297.8,301.2576,78.43750318,1.2399,"[{""rating"":78.43750317891438,""responseTime"":1.23989999997616}]",space,2.9429,,301.2576,Not at all,0,301.2594,,,[],,0,8,8,8,1,audio/Narrative7Situation8.wav,audio/Narrative8Situation8.wav,audio/Narrative5Situation8.wav,audio/Narrative6Situation8.wav,2,3,3,5,,,,,,,,,,,,,,,,,,,,,,,,,,,,,,,,,,,,,,,
,,,,,,662e578177f502513e454b33,2024-05-13_10h41.05.483,group3.1-3.2-social-tom,2023.2.2,Win32,144.9275362,65c5074098b851296ff0b7ed,6642345cb03ad3eda7105e78,,,,,,,,,,,,,,,,,,,,,,,,,,,,,301.2594,1,audio/Narrative8Situation9.wav,304.2639,,304.2639,315.5742,"[[77.4,1918],[77,1999],[77,2085],[77,2166],[77,2249],[77,2335],[77,2418],[77,2499],[77,2584],[77,2666],[77,2756],[77,2842],[77,2923],[77,3008],[77,3092],[77,3172],[77,3256],[77,3342],[77,3422],[77,3506],[77,3589],[77,3673],[77,3756],[77,3842],[77,3922],[77,4006],[77,4089],[77,4172],[77,4256],[77,4339],[77,4422],[77,4506],[77,4589],[77,4672],[77,4755],[77,4839],[77,4925],[77,5008],[77,5089],[77,5172],[77,5255],[77,5341],[77,5422],[77.1,5508],[77.3,5588],[77.7,5672],[77.9,5755],[78.2,5839],[78.4,5922],[78.6,6005],[78.6,6088],[78.6,6172],[78.6,6255],[78.6,6338],[78.6,6424],[78.6,6505],[78.6,6588],[78.6,6672],[78.6,6758],[78.6,6838],[78.6,6922],[78.6,7008],[78.6,7091],[78.6,7172],[78.6,7255],[78.6,7341],[78.6,7422],[78.6,7508],[78.6,7590],[78.6,7672],[78.6,7755],[78.6,7838],[78.6,7921],[78.6,8007],[78.6,8088],[78.6,8171],[78.6,8255],[78.6,8338],[78.6,8421],[78.6,8505],[78.6,8588],[78.6,8674],[78.6,8755],[78.6,8841],[78.6,8921],[78.6,9004],[78.6,9091],[78.6,9171],[78.6,9255],[78.6,9338],[78.6,9421],[78.6,9504],[78.6,9591],[78.6,9671],[78.6,9754],[78.6,9840],[78.6,9921],[78.6,10006],[78.6,10088],[78.6,10171],[78.3,10261],[78.3,10345],[77.8,10428],[77.4,10511],[77,10594],[77,10678],[76.8,10761],[76.8,10845],[76,10928],[75.9,11011],[75.9,11094],[75.9,11178],[75.9,11261]]",1,0,315.5743,316.7683,75,0.9039,"[{""rating"":75,""responseTime"":0.9038999999761472}]",space,0.6733,,316.7684,Half the time,50,316.7701,,,[],,0,9,9,9,1,audio/Narrative7Situation9.wav,audio/Narrative8Situation9.wav,audio/Narrative5Situation9.wav,audio/Narrative6Situation9.wav,2,3,3,4,,,,,,,,,,,,,,,,,,,,,,,,,,,,,,,,,,,,,,,
,,,,,,662e578177f502513e454b33,2024-05-13_10h41.05.483,group3.1-3.2-social-tom,2023.2.2,Win32,144.9275362,65c5074098b851296ff0b7ed,6642345cb03ad3eda7105e78,,,,,,,,,,,,,,,,,,,,,,,,,,,,,316.7702,1,audio/Narrative7Situation1.wav,318.7748,,318.7748,374.6452,"[[73.2,1416],[71.7,1499],[70.6,1582],[70.4,1666],[70.4,1749],[70.4,1832],[70.4,1916],[70.4,1999],[70.4,2082],[70.4,2166],[70.4,2249],[70.4,2332],[70.4,2416],[70.4,2499],[70.4,2582],[70.4,2666],[70.4,2749],[70.4,2832],[70.4,2916],[70.4,2999],[70.4,3082],[70.4,3165],[70.4,3249],[70.4,3332],[70.4,3415],[70.4,3499],[70.4,3582],[70.4,3665],[70.4,3749],[70.4,3832],[70.4,3915],[70.4,3999],[70.4,4082],[70.4,4165],[70.4,4248],[70.4,4332],[70.4,4415],[70.6,4499],[70.8,4582],[71.3,4665],[71.7,4749],[72.1,4832],[72.6,4915],[72.9,4998],[73.4,5082],[73.9,5165],[74.6,5248],[75.1,5332],[75.4,5415],[75.4,5498],[75.4,5582],[75.4,5665],[75.4,5748],[75.4,5831],[75.4,5915],[75.4,5998],[75.4,6082],[75.4,6165],[75.4,6248],[75.9,6331],[76.3,6415],[76.6,6498],[77.1,6581],[77.6,6665],[78.1,6748],[78.6,6831],[78.9,6915],[79.2,6998],[79.3,7081],[79.4,7164],[79.4,7248],[79.4,7331],[79.4,7414],[79.4,7498],[79.4,7581],[79.4,7664],[79.4,7748],[79.4,7831],[79.4,7914],[79.4,7998],[79.4,8081],[79.4,8164],[79.1,8248],[78.2,8331],[68.2,9081],[67.3,9164],[66.9,9247],[66.4,9331],[65.7,9414],[65.2,9497],[64.7,9581],[64.2,9664],[63.4,9747],[63.1,9831],[62.9,9914],[62.9,9997],[62.9,10081],[62.9,10164],[62.9,10247],[62.9,10331],[62.9,10414],[62.9,10497],[62.9,10580],[62.9,10664],[62.9,10747],[62.9,10831],[62.9,10914],[62.9,10997],[62.9,11080],[62.9,11164],[62.9,11247],[62.9,11330],[62.9,11414],[62.9,11497],[62.9,11580],[62.9,11664],[62.9,11747],[62.9,11830],[62.9,11914],[62.9,11997],[62.9,12080],[62.9,12163],[62.9,12247],[62.9,12330],[62.9,12414],[62.9,12497],[62.9,12580],[62.9,12663],[62.9,12747],[62.9,12830],[62.9,12913],[62.9,12997],[62.9,13080],[62.9,13163],[62.9,13247],[62.9,13330],[62.9,13413],[62.9,13497],[62.9,13580],[62.9,13663],[62.9,13746],[62.9,13830],[62.9,13913],[62.9,13996],[62.9,14080],[62.9,14163],[62.9,14246],[62.9,14330],[62.9,14413],[62.9,14496],[62.9,14580],[62.9,14663],[62.9,14746],[62.9,14830],[62.9,14913],[62.9,14996],[62.9,15080],[62.9,15163],[62.9,15246],[62.9,15329],[62.9,15413],[62.9,15496],[62.9,15579],[62.9,15663],[62.9,15746],[62.9,15829],[62.9,15913],[62.9,15996],[62.9,16079],[62.9,16163],[62.9,16246],[62.9,16329],[62.9,16413],[62.9,16496],[62.9,16579],[62.9,16663],[62.9,16746],[62.9,16829],[62.9,16913],[62.9,16996],[62.9,17079],[62.6,17162],[62.6,17246],[62.6,17329],[62.6,17412],[62.6,17496],[62.6,17579],[62.6,17663],[62.6,17746],[62.6,17829],[62.6,17912],[62.6,17996],[62.6,18079],[62.6,18162],[62.6,18246],[62.6,18329],[62.6,18412],[62.6,18496],[62.6,18579],[62.6,18662],[62.6,18745],[62.6,18829],[62.6,18912],[62.6,18995],[62.6,19079],[62.6,19162],[62.6,19245],[62.6,19329],[62.6,19412],[62.6,19495],[62.6,19579],[62.6,19662],[62.6,19745],[62.6,19829],[62.6,19912],[62.6,19995],[62.6,20079],[62.6,20162],[62.6,20245],[62.6,20329],[62.6,20412],[62.6,20495],[62.6,20579],[62.6,20662],[62.6,20745],[62.6,20829],[62.6,20912],[62.6,20995],[62.6,21078],[62.6,21162],[62.6,21245],[62.6,21328],[62.6,21412],[62.6,21495],[62.6,21578],[62.6,21662],[62.6,21745],[62.6,21828],[62.6,21912],[62.6,21995],[62.6,22078],[62.6,22161],[62.6,22245],[62.6,22328],[62.6,22411],[62.6,22495],[62.6,22578],[62.6,22661],[62.6,22745],[62.6,22828],[62.6,22911],[62.6,22995],[62.6,23078],[62.6,23161],[62.6,23245],[62.6,23328],[62.6,23411],[62.6,23495],[62.6,23578],[62.6,23661],[62.6,23744],[62.6,23828],[62.6,23911],[62.6,23994],[62.6,24078],[62.6,24161],[62.6,24245],[62.6,24328],[62.6,24411],[62.6,24494],[62.6,24578],[62.6,24661],[62.6,24744],[62.6,24827],[62.6,24911],[62.6,24994],[62.6,25077],[62.6,25161],[62.6,25244],[62.6,25327],[62.6,25411],[62.6,25494],[62.6,25577],[62.6,25661],[62.6,25744],[62.6,25827],[62.6,25911],[62.6,25994],[62.6,26077],[62.6,26161],[62.6,26244],[62.6,26327],[62.6,26411],[62.6,26494],[62.6,26577],[62.6,26661],[62.6,26744],[62.6,26827],[62.6,26911],[62.6,26994],[62.6,27077],[62.6,27161],[62.6,27244],[62.6,27327],[62.6,27410],[62.2,27494],[61.9,27577],[61.6,27660],[61.4,27744],[61,27827],[61,27910],[61,27993],[61,28077],[61,28160],[61,28244],[61,28327],[61,28410],[61,28493],[61,28577],[61,28660],[61,28743],[61,28827],[61,28910],[61,28993],[61,29077],[61,29160],[61,29243],[61,29327],[61,29410],[61,29493],[61,29577],[61,29660],[61,29743],[61,29827],[61,29910],[61,29993],[61,30077],[61,30160],[61,30243],[61,30326],[61,30410],[61,30493],[61,30577],[61,30660],[61,30743],[61,30826],[61,30910],[61,30993],[61,31076],[61,31160],[61,31243],[61,31326],[61,31410],[61,31493],[61,31576],[61,31660],[61,31743],[61,31826],[61,31909],[61,31993],[61,32076],[61,32159],[61,32243],[61,32326],[61,32409],[61,32493],[61,32576],[61,32659],[61,32743],[61,32826],[61,32909],[61,32993],[61,33076],[61,33159],[61,33243],[61,33326],[61,33409],[61,33492],[61,33576],[61,33659],[61,33742],[61,33826],[61,33909],[61,33992],[61,34076],[61,34159],[61,34242],[61,34326],[61,34409],[61,34492],[61,34576],[61,34659],[61,34742],[61,34826],[61,34909],[61,34992],[61,35075],[61,35159],[61,35242],[61,35325],[61,35409],[61,35492],[61,35575],[61,35659],[61,35742],[61,35825],[61,35909],[61,35992],[61,36075],[61,36158],[61,36242],[61,36325],[61,36408],[61,36492],[61,36575],[61,36658],[61,36742],[61,36825],[61,36908],[61,36992],[61,37075],[61,37158],[61,37242],[61,37325],[61,37408],[61,37492],[61,37575],[61,37658],[61,37742],[61,37825],[61,37908],[61,37992],[61,38075],[61,38158],[61,38241],[61,38325],[61,38408],[61,38491],[61,38575],[61,38658],[61,38741],[61,38825],[61,38908],[61,38991],[61,39075],[61,39158],[61,39241],[61,39325],[61,39408],[61,39491],[61,39574],[61,39658],[61,39741],[61,39824],[61,39908],[61,39991],[61,40074],[61,40158],[61,40241],[61,40324],[61,40407],[61,40491],[61,40574],[61,40658],[61,40741],[61,40824],[61,40907],[61,40991],[61,41074],[61,41158],[61,41241],[61,41324],[61,41407],[61,41491],[61,41574],[61,41657],[61,41741],[61,41824],[61,41907],[61,41991],[61,42074],[61,42157],[61,42241],[61,42324],[61,42407],[61,42491],[61,42574],[61,42657],[61,42740],[61,42824],[61,42907],[61,42990],[61,43074],[61,43157],[61,43240],[61,43324],[61,43407],[61,43490],[61,43574],[61,43657],[61,43740],[61,43824],[61,43907],[61,43990],[61,44074],[61,44157],[61,44240],[61,44324],[61,44407],[61,44490],[61,44573],[61,44657],[61,44740],[61,44823],[61,44907],[61,44990],[61,45073],[61,45157],[61,45240],[61,45323],[61,45406],[61,45490],[61,45573],[61,45657],[61,45740],[61,45823],[61,45906],[61,45990],[61,46073],[61,46157],[61,46240],[61.5,46323],[62.3,46406],[62.9,46490],[64.1,46573],[65.1,46657],[66.1,46740],[67.2,46823],[69.3,46906],[72.2,46990],[75.9,47073],[78.3,47156],[78.4,47240],[78.4,47323],[78.4,47406],[78.4,47490],[78.4,47573],[78.4,47656],[78.4,47740],[79.5,47823],[80.4,47906],[81.5,47990],[82.6,48073],[83.3,48156],[83.5,48239],[83.8,48323],[83.8,48406],[83.8,48489],[83.8,48572],[83.8,48656],[83.8,48739],[83.8,48823],[83.8,48906],[83.8,48989],[83.8,49072],[83.8,49156],[83.8,49239],[83.8,49322],[83.8,49406],[83.8,49489],[83.8,49572],[83.8,49656],[83.8,49739],[83.8,49822],[83.8,49906],[83.8,49989],[83.8,50072],[83.8,50156],[83.8,50239],[83.8,50322],[83.8,50406],[83.8,50489],[83.8,50572],[83.8,50656],[83.8,50739],[83.8,50822],[83.8,50905],[83.8,50989],[83.8,51072],[83.8,51155],[83.8,51239],[83.8,51322],[83.8,51406],[83.8,51489],[83.8,51572],[83.8,51655],[83.8,51739],[83.8,51822],[83.8,51905],[83.8,51989],[83.8,52072],[83.8,52155],[83.8,52239],[83.8,52322],[83.8,52405],[83.8,52488],[83.8,52572],[83.8,52655],[83.8,52739],[83.8,52822],[83.8,52905],[83.8,52988],[83.8,53072],[83.8,53155],[83.8,53238],[83.8,53322],[83.8,53405],[83.8,53488],[83.8,53572],[83.8,53655],[83.8,53738],[83.8,53822],[83.8,53905],[83.8,53988],[83.8,54072],[83.8,54155],[83.8,54238],[83.8,54322],[83.8,54405],[83.8,54488],[83.8,54571],[83.8,54655],[83.8,54738],[83.8,54821],[83.8,54905],[83.8,54988],[83.8,55071],[83.8,55154],[83.8,55238],[83.8,55321],[83.8,55405],[83.8,55488],[83.8,55571],[83.8,55654],[83.8,55738],[83.8,55821]]",1,0,374.6453,376.1448,83.85416667,1.2888,"[{""rating"":83.85416666666667,""responseTime"":1.288799999952289}]",space,0.9791,,376.1448,All the time,100,376.1464,,,[],,0,10,10,10,1,audio/Narrative8Situation1.wav,audio/Narrative7Situation1.wav,audio/Narrative6Situation1.wav,audio/Narrative5Situation1.wav,5,2,2,5,,,,,,,,,,,,,,,,,,,,,,,,,,,,,,,,,,,,,,,
,,,,,,662e578177f502513e454b33,2024-05-13_10h41.05.483,group3.1-3.2-social-tom,2023.2.2,Win32,144.9275362,65c5074098b851296ff0b7ed,6642345cb03ad3eda7105e78,,,,,,,,,,,,,,,,,,,,,,,,,,,,,376.1466,1,audio/Narrative7Situation2.wav,379.151,,379.151,386.615,"[[83.5,1499],[82.5,1583],[82,1666],[82,1749],[82,1832],[82,1916],[82,1999],[82,2083],[82,2166],[82,2249],[82,2332],[82,2416],[82,2499],[82,2582],[82,2666],[82,2749],[82,2832],[82,2916],[82,2999],[82,3082],[82,3165],[82,3249],[82,3332],[82,3416],[82,3499],[82,3582],[82,3665],[82,3749],[82,3832],[82,3915],[82,3999],[82,4082],[82,4165],[82,4249],[82,4332],[82,4415],[82,4499],[82,4582],[82,4665],[82,4748],[82,4832],[82,4915],[82,4999],[82,5082],[82,5165],[82,5248],[82,5332],[82,5415],[82,5498],[82,5582],[82,5665],[82,5748],[82,5832],[82,5915],[82,5998],[82,6082],[82,6165],[82,6248],[82,6331],[82,6415],[82,6498],[82,6581],[82,6665],[82,6748],[82,6832],[82,6915],[82,6998],[82,7081],[82,7165],[82,7248],[82,7331],[82,7415]]",1,0,386.6151,390.1349,61.97916667,3.3647,"[{""rating"":61.979166666666664,""responseTime"":3.364700000047719}]",space,3.0042,,390.1349,Half the time,50,390.1365,,,[],,0,11,11,11,1,audio/Narrative8Situation2.wav,audio/Narrative7Situation2.wav,audio/Narrative6Situation2.wav,audio/Narrative5Situation2.wav,3,3,3,3,,,,,,,,,,,,,,,,,,,,,,,,,,,,,,,,,,,,,,,
,,,,,,662e578177f502513e454b33,2024-05-13_10h41.05.483,group3.1-3.2-social-tom,2023.2.2,Win32,144.9275362,65c5074098b851296ff0b7ed,6642345cb03ad3eda7105e78,,,,,,,,,,,,,,,,,,,,,,,,,,,,,390.1366,1,audio/Narrative7Situation3.wav,398.1401,,398.1401,407.3768,"[[62.2,1833],[62.4,1916],[62.7,1999],[62.7,2083],[62.7,2166],[62.7,2249],[62.7,2332],[62.7,2416],[62.7,2499],[62.7,2583],[62.7,2666],[62.7,2749],[62.7,2832],[62.7,2916],[62.7,2999],[62.7,3082],[62.7,3165],[62.7,3249],[62.7,3332],[62.7,3416],[62.7,3499],[62.7,3582],[62.7,3665],[62.7,3749],[62.7,3839],[62.7,3922],[62.7,4006],[62.7,4089],[64.2,4173],[66.6,4257],[67.5,4339],[68.6,4424],[69.6,4506],[70.5,4590],[71.8,4673],[72.3,4756],[72.3,4839],[72.3,4922],[72.3,5005],[72.3,5089],[72.3,5172],[72.3,5255],[72.3,5339],[72.3,5422],[72.3,5506],[72.3,5588],[72.3,5672],[72.3,5755],[72.3,5838],[72.3,5923],[72.3,6005],[72.3,6088],[72.3,6172],[72.3,6256],[72.3,6339],[72.3,6422],[72.3,6506],[72.3,6588],[72.3,6672],[72.3,6755],[72.3,6838],[72.3,6925],[72.3,7005],[72.3,7088],[72.3,7172],[72.3,7255],[72.3,7338],[72.3,7422],[72.3,7505],[72.3,7591],[72.3,7672],[72.3,7755],[72.3,7838],[72.3,7923],[72.3,8005],[72.3,8088],[72.3,8171],[72.3,8255],[72.3,8340],[72.3,8421],[72.3,8507],[72.3,8588],[72.3,8671],[72.3,8757],[72.3,8838],[72.3,8921],[72.3,9005],[72.3,9088],[72.3,9174]]",1,0,407.3768,409.0687,72.0833381,1.3445,"[{""rating"":72.08333810170492,""responseTime"":1.3444999999999823}]",space,1.178,,409.0688,Half the time,50,409.0698,,,[],,0,12,12,12,1,audio/Narrative8Situation3.wav,audio/Narrative7Situation3.wav,audio/Narrative6Situation3.wav,audio/Narrative5Situation3.wav,4,8,5,3,,,,,,,,,,,,,,,,,,,,,,,,,,,,,,,,,,,,,,,
,,,,,,662e578177f502513e454b33,2024-05-13_10h41.05.483,group3.1-3.2-social-tom,2023.2.2,Win32,144.9275362,65c5074098b851296ff0b7ed,6642345cb03ad3eda7105e78,,,,,,,,,,,,,,,,,,,,,,,,,,,,,409.07,1,audio/Narrative7Situation4.wav,412.0749,,412.0749,423.7875,"[[71.3,1169],[71.3,1252],[71,1332],[71,1418],[71,1499],[71,1582],[71,1668],[71,1749],[71,1832],[71,1915],[71,1999],[71,2082],[71,2166],[71,2249],[71,2332],[71,2418],[71,2499],[71,2582],[71,2667],[71,2749],[71,2835],[71,2915],[71,2999],[71,3082],[71,3165],[71,3249],[71,3332],[71,3415],[71,3501],[71,3582],[71,3665],[71,3749],[71,3832],[71,3915],[71,3999],[71,4082],[71,4165],[71,4249],[71,4334],[71,4418],[71,4498],[71,4582],[71.4,4665],[71.7,4748],[71.7,4832],[71.7,4915],[71.7,5001],[71.7,5082],[71.7,5168],[71.7,5251],[71.7,5334],[71.7,5415],[71.7,5501],[71.7,5581],[71.7,5668],[71.7,5748],[71.7,5832],[71.7,5915],[71.7,5998],[71.7,6081],[71.7,6165],[71.7,6248],[71.7,6331],[71.7,6415],[71.7,6498],[71.7,6581],[71.7,6667],[71.7,6748],[71.7,6831],[71.7,6914],[71.7,6998],[71.7,7081],[71.7,7165],[71.7,7251],[71.7,7331],[71.7,7415],[71.7,7498],[71.7,7581],[71.7,7664],[71.7,7748],[71.7,7831],[71.7,7917],[71.7,7998],[71.7,8084],[71.7,8167],[71.7,8248],[71.7,8331],[71.7,8417],[71.7,8498],[71.7,8581],[71.7,8664],[71.7,8748],[71.7,8831],[71.7,8914],[71.7,9000],[71.7,9081],[71.7,9164],[71.7,9248],[71.7,9331],[71.7,9414],[71.7,9497],[71.7,9583],[71.7,9664],[71.7,9747],[71.7,9833],[71.7,9914],[71.7,9997],[71.7,10081],[71.7,10164],[71.7,10250],[71.7,10331],[71.7,10414],[71.7,10497],[71.7,10580],[71.7,10664],[71.7,10747],[71.7,10830],[71.7,10914],[71.7,10997],[71.7,11080],[71.7,11164],[71.7,11247],[71.7,11330],[71.7,11414],[71.7,11497],[71.7,11580],[71.7,11663]]",1,0,423.7876,425.0679,71.66666985,0.8885,"[{""rating"":71.66666984558105,""responseTime"":0.8885000000000218}]",space,0.759,,425.0679,Half the time,50,425.0688,,,[],,0,13,13,13,1,audio/Narrative8Situation4.wav,audio/Narrative7Situation4.wav,audio/Narrative6Situation4.wav,audio/Narrative5Situation4.wav,3,3,2,1,,,,,,,,,,,,,,,,,,,,,,,,,,,,,,,,,,,,,,,
,,,,,,662e578177f502513e454b33,2024-05-13_10h41.05.483,group3.1-3.2-social-tom,2023.2.2,Win32,144.9275362,65c5074098b851296ff0b7ed,6642345cb03ad3eda7105e78,,,,,,,,,,,,,,,,,,,,,,,,,,,,,425.0689,1,audio/Narrative7Situation5.wav,430.071,,430.071,438.5416,"[[70.9,835],[70.8,919],[70.7,1002],[70.7,1083],[70.7,1166],[70.7,1249],[70.7,1333],[70.7,1416],[70.7,1499],[70.7,1583],[70.7,1666],[70.7,1749],[70.7,1832],[70.7,1918],[70.7,1999],[70.7,2085],[70.7,2166],[70.7,2249],[70.7,2332],[70.7,2418],[70.7,2499],[70.7,2585],[70.7,2665],[70.7,2749],[70.7,2832],[70.7,2916],[70.7,2999],[70.7,3082],[70.7,3165],[70.7,3249],[70.7,3335],[70.7,3415],[70.7,3499],[70.7,3582],[70.7,3668],[70.7,3749],[70.7,3832],[70.7,3915],[70.7,3999],[70.7,4082],[70.7,4165],[70.7,4249],[70.7,4332],[70.7,4418],[70.7,4500],[70.7,4584],[70.7,4665],[70.7,4749],[70.7,4832],[70.7,4918],[70.7,4998],[70.7,5082],[70.7,5165],[70.7,5248],[70.7,5332],[70.7,5417],[70.7,5500],[70.7,5582],[70.7,5665],[70.7,5751],[70.7,5831],[70.7,5915],[70.7,6001],[70.7,6081],[70.7,6167],[70.7,6248],[70.7,6331],[70.7,6415],[70.7,6498],[70.7,6581],[70.7,6667],[70.7,6748],[70.7,6831],[66.5,6922],[64.5,7005],[63.6,7088],[62.6,7172],[62.3,7255],[62.3,7338],[62.3,7421],[62.3,7505],[62.3,7588],[62.3,7672],[62.3,7755],[62.3,7838],[62.3,7922],[62.3,8005],[62.3,8088],[62.3,8171],[62.3,8255],[62.3,8338],[62.3,8421]]",1,0,438.5416,439.8747,62.29166985,0.6585,"[{""rating"":62.291669845581055,""responseTime"":0.6585000000000036}]",space,0.812,,439.8748,Half the time,50,439.8762,,,[],,0,14,14,14,1,audio/Narrative8Situation5.wav,audio/Narrative7Situation5.wav,audio/Narrative6Situation5.wav,audio/Narrative5Situation5.wav,2,5,2,5,,,,,,,,,,,,,,,,,,,,,,,,,,,,,,,,,,,,,,,
,,,,,,662e578177f502513e454b33,2024-05-13_10h41.05.483,group3.1-3.2-social-tom,2023.2.2,Win32,144.9275362,65c5074098b851296ff0b7ed,6642345cb03ad3eda7105e78,,,,,,,,,,,,,,,,,,,,,,,,,,,,,439.8764,1,audio/Narrative7Situation6.wav,442.8809,,442.8809,452.8442,"[[61.8,749],[61.4,833],[61.3,916],[61.3,999],[61.3,1083],[61.3,1166],[61.3,1249],[61,1332],[61,1415],[61,1499],[61,1582],[61,1666],[61,1749],[61,1832],[61,1916],[61,1999],[61,2082],[61,2166],[61,2249],[61,2332],[61,2416],[61,2499],[61,2582],[61,2665],[61,2749],[61,2832],[61,2915],[61,2999],[61,3082],[61,3165],[61,3249],[61,3332],[61,3415],[61,3499],[61,3582],[61,3665],[61,3749],[61.5,3832],[62.4,3915],[63.2,3999],[63.5,4082],[63.8,4165],[63.8,4248],[63.8,4332],[63.8,4415],[63.8,4498],[63.8,4582],[63.8,4665],[63.8,4748],[63.8,4832],[63.8,4915],[63.8,4998],[63.8,5082],[63.8,5165],[63.8,5248],[63.8,5332],[63.8,5415],[63.8,5498],[63.6,5581],[63.6,5665],[63.4,5748],[62.9,5831],[62.4,5915],[62.4,5998],[62.1,6082],[61.8,6165],[61.1,6248],[60.8,6331],[60.5,6415],[59.7,6498],[59.1,6581],[58.5,6665],[58,6748],[57.4,6831],[56.9,6915],[56.4,6998],[55.8,7081],[54.8,7165],[54.3,7248],[53.9,7331],[53.7,7414],[53.3,7498],[53.1,7581],[53,7664],[53,7748],[53,7831],[53,7914],[53,7998],[53,8081],[53,8164],[53,8248],[53,8331],[53,8414],[53,8498],[53,8581],[53,8664],[53,8748],[53,8831],[53,8914],[53,8997],[53,9081],[53,9164],[53,9247],[53,9331],[53,9414],[53,9497],[53,9581],[53,9664],[53,9747],[53,9831],[53,9914]]",1,0,452.8443,455.1005,53.54166826,1.6197,"[{""rating"":53.54166825612386,""responseTime"":1.619699999928514}]",space,1.741,,455.1006,Half the time,50,455.1021,,,[],,0,15,15,15,1,audio/Narrative8Situation6.wav,audio/Narrative7Situation6.wav,audio/Narrative6Situation6.wav,audio/Narrative5Situation6.wav,2,3,2,3,,,,,,,,,,,,,,,,,,,,,,,,,,,,,,,,,,,,,,,
,,,,,,662e578177f502513e454b33,2024-05-13_10h41.05.483,group3.1-3.2-social-tom,2023.2.2,Win32,144.9275362,65c5074098b851296ff0b7ed,6642345cb03ad3eda7105e78,,,,,,,,,,,,,,,,,,,,,,,,,,,,,455.1024,1,audio/Narrative7Situation7.wav,460.1065,,460.1067,477.2696,"[[999,5],[999,85],[999,169],[999,252],[999,332],[999,416],[999,499],[999,585],[999,666],[999,752],[999,835],[999,918],[999,1002],[999,1085],[53,1169],[54.8,1252],[57.3,1332],[58.3,1418],[59.2,1499],[59.2,1582],[59.2,1665],[59.2,1749],[59.2,1832],[59.2,1915],[59.2,2001],[59.2,2082],[61.8,2169],[65.5,2252],[66.1,2332],[66.4,2415],[66.4,2499],[66.4,2585],[66.4,2668],[66.4,2749],[66.4,2832],[66.4,2915],[66.4,3001],[66.4,3084],[66.4,3165],[66.4,3251],[66.4,3334],[66.4,3415],[66.4,3498],[66.4,3582],[66.4,3665],[66.4,3748],[66.4,3832],[66.4,3915],[66.4,3998],[66.4,4082],[66.4,4165],[66.4,4248],[66.4,4334],[66.4,4417],[66.7,4498],[67.5,4584],[67.9,4665],[68,4748],[68.4,4831],[68.5,4915],[68.8,4998],[69.2,5081],[69.5,5165],[69.8,5248],[69.8,5331],[69.8,5415],[70.1,5498],[70.3,5582],[70.3,5665],[70.3,5748],[70.3,5831],[70.3,5915],[70.3,5998],[70.3,6081],[70.3,6167],[70.3,6250],[70.3,6334],[70.3,6415],[70.3,6498],[70.3,6584],[70.3,6665],[70.3,6748],[70.3,6831],[70.3,6915],[70.3,6998],[70.3,7081],[70.3,7164],[70.3,7250],[70.3,7331],[70.3,7416],[70.3,7497],[70.3,7581],[70.3,7664],[70.3,7748],[70.3,7831],[70.3,7914],[70.3,7998],[70.3,8081],[70.3,8167],[70.3,8249],[70.3,8333],[70.3,8414],[70.3,8497],[70.3,8581],[70.3,8666],[70.3,8747],[70.3,8831],[70.3,8914],[70.3,8997],[70.3,9081],[70.3,9167],[70.3,9250],[70.3,9331],[70.3,9414],[70.3,9497],[70.3,9581],[70.3,9664],[70.3,9747],[70.3,9831],[70.3,9914],[70.3,10000],[70.3,10080],[70.3,10164],[70.3,10250],[70.3,10333],[70.3,10414],[70.3,10497],[70.3,10583],[70.3,10664],[70.3,10751],[70.3,10830],[70.3,10914],[70.3,11000],[70.3,11080],[70.3,11163],[70.3,11250],[70.3,11330],[70.3,11414],[70.3,11497],[70.3,11580],[70.3,11666],[70.3,11747],[70.3,11830],[70.3,11913],[70.3,11997],[70.3,12080],[70.3,12166],[70.3,12250],[70.3,12330],[70.3,12416],[70.3,12497],[70.3,12580],[70.3,12663],[70.3,12747],[70.3,12830],[70.3,12913],[70.3,12997],[70.3,13080],[70.3,13163],[70.3,13247],[70.3,13332],[70.3,13416],[70.3,13497],[70.3,13580],[70.3,13663],[70.3,13747],[70.3,13832],[70.3,13916],[70.3,13996],[70.3,14080],[70.3,14163],[70.3,14246],[70.3,14330],[70.3,14416],[70.3,14499],[70.3,14582],[70.3,14663],[70.3,14746],[70.3,14829],[70.3,14913],[70.3,14999],[70.3,15080],[70.3,15163],[70.3,15246],[70.3,15329],[70.3,15415],[70.3,15499],[70.3,15582],[70.3,15663],[70.3,15746],[70.3,15829],[70.3,15913],[70.3,15996],[70.3,16079],[70.3,16163],[70.3,16246],[70.3,16332],[70.3,16415],[70.3,16499],[70.3,16579],[70.3,16665],[70.3,16746],[70.3,16829],[70.3,16912],[70.3,16996],[70.3,17079],[70.3,17162]]",1,0,477.2697,478.2417,70.3125,0.537,"[{""rating"":70.3125,""responseTime"":0.5369999999999777}]",space,0.4502,,478.2417,Half the time,50,478.2427,,,[],,0,16,16,16,1,audio/Narrative8Situation7.wav,audio/Narrative7Situation7.wav,audio/Narrative6Situation7.wav,audio/Narrative5Situation7.wav,3,5,5,4,,,,,,,,,,,,,,,,,,,,,,,,,,,,,,,,,,,,,,,
,,,,,,662e578177f502513e454b33,2024-05-13_10h41.05.483,group3.1-3.2-social-tom,2023.2.2,Win32,144.9275362,65c5074098b851296ff0b7ed,6642345cb03ad3eda7105e78,,,,,,,,,,,,,,,,,,,,,,,,,,,,,478.2428,1,audio/Narrative7Situation8.wav,480.2481,,480.2482,490.256,"[[70.8,1083],[71.1,1166],[71.3,1249],[71.3,1333],[71.3,1419],[71.3,1502],[71.3,1582],[71.3,1666],[71.3,1749],[71.3,1832],[71.3,1916],[71.3,1999],[71.3,2082],[71.3,2165],[71.3,2249],[71.3,2332],[71.3,2416],[71.3,2499],[71.3,2582],[71.3,2666],[71.3,2751],[71.3,2832],[71.3,2915],[71.3,2999],[71.3,3082],[71.3,3168],[71.3,3249],[71.3,3332],[71.3,3415],[71.3,3499],[71.3,3585],[71.3,3665],[71.3,3748],[71.3,3832],[71.3,3915],[71.3,3998],[71.3,4082],[71.3,4165],[71.3,4248],[71.3,4332],[71.3,4415],[71.3,4501],[71.3,4582],[71.3,4665],[71.3,4748],[71.3,4832],[71.3,4915],[71.3,4998],[71.3,5082],[71.3,5165],[71.3,5248],[71.3,5332],[71.3,5415],[71.3,5498],[71.3,5581],[71.3,5667],[71.3,5751],[71.3,5832],[71.3,5915],[71.3,5998],[71.3,6081],[71.3,6165],[71.3,6248],[71.3,6331],[71.3,6415],[71.3,6498],[71.3,6581],[71.3,6665],[71.3,6751],[71.3,6831],[71.3,6915],[71.3,6998],[71.3,7081],[71.3,7165],[70.9,7251],[70,7334],[69.4,7417],[69,7501],[68.6,7581],[68.4,7665],[68.4,7751],[68.4,7831],[68.4,7917],[68.4,7998],[68.4,8084],[68.4,8164],[68.4,8248],[68.4,8331],[68.4,8414],[68.4,8498],[68.4,8581],[68.4,8664],[68.4,8747],[68.4,8834],[68.4,8915],[68.4,8997],[69.7,9084],[70.8,9167],[71.6,9247],[71.9,9331],[71.9,9414],[71.9,9497],[71.9,9581],[71.9,9667],[71.9,9747],[71,9834],[70.1,9917],[69.2,9997]]",1,0,490.256,491.8082,66.45833651,1.1261,"[{""rating"":66.45833651224771,""responseTime"":1.1261000000238255}]",space,1.036,,491.8083,All the time,100,491.8101,,,[],,0,17,17,17,1,audio/Narrative8Situation8.wav,audio/Narrative7Situation8.wav,audio/Narrative6Situation8.wav,audio/Narrative5Situation8.wav,3,2,5,3,,,,,,,,,,,,,,,,,,,,,,,,,,,,,,,,,,,,,,,
,,,,,,662e578177f502513e454b33,2024-05-13_10h41.05.483,group3.1-3.2-social-tom,2023.2.2,Win32,144.9275362,65c5074098b851296ff0b7ed,6642345cb03ad3eda7105e78,,,,,,,,,,,,,,,,,,,,,,,,,,,,,491.8102,1,audio/Narrative7Situation9.wav,493.8149,,493.8149,502.4314,"[[65.8,836],[65.2,919],[65.2,1001],[65.2,1085],[65.2,1166],[65.2,1249],[65.2,1332],[65.2,1416],[65.2,1499],[65.2,1582],[65.2,1668],[65.2,1749],[65.2,1832],[65.2,1916],[65.2,1999],[65.2,2082],[65.2,2166],[65.2,2249],[65.2,2335],[65.2,2415],[65.2,2499],[65.2,2585],[65.2,2665],[65.2,2749],[65.2,2832],[65.2,2918],[65.2,2999],[65.2,3082],[65.2,3165],[65.2,3249],[65.2,3332],[65.2,3415],[65.2,3499],[65.2,3582],[65.2,3665],[65.2,3751],[65.2,3835],[65.2,3915],[65.2,3998],[65.2,4082],[65.2,4168],[65.2,4248],[65.2,4332],[65.2,4415],[65.2,4499],[65.2,4582],[65.2,4665],[65.2,4751],[65.2,4834],[65.2,4915],[65.2,4998],[65.2,5082],[65.2,5165],[65.2,5248],[65.2,5332],[65.2,5415],[65.2,5498],[65.2,5581],[65.2,5665],[65.2,5748],[65.2,5834],[65.2,5915],[65.2,5998],[65.2,6081],[65.2,6165],[65.2,6248],[65.2,6334],[65.2,6414],[65.2,6498],[65.2,6581],[65.2,6665],[65.2,6748],[65.2,6831],[65.2,6917],[65.2,6998],[65.2,7081],[65.2,7164],[65.2,7248],[65.2,7331],[65.2,7414],[65.2,7498],[65.2,7581],[65.2,7664],[64.7,7755],[62.6,7838],[61.7,7921],[60.7,8005],[59.7,8088],[58.6,8171],[57.7,8255],[57.4,8338],[56.9,8421],[56.4,8504],[56.1,8588]]",1,0,502.4315,504.139,50.52083333,1.4797,"[{""rating"":50.520833333333336,""responseTime"":1.4797000000476146}]",space,1.1876,,504.139,Not at all,0,504.1406,,,[],,0,18,18,18,1,audio/Narrative8Situation9.wav,audio/Narrative7Situation9.wav,audio/Narrative6Situation9.wav,audio/Narrative5Situation9.wav,3,2,4,3,,,,,,,,,,,,,,,,,,,,,,,,,,,,,,,,,,,,,,,
,,,,,,662e578177f502513e454b33,2024-05-13_10h41.05.483,group3.1-3.2-social-tom,2023.2.2,Win32,144.9275362,65c5074098b851296ff0b7ed,6642345cb03ad3eda7105e78,,,,,,,,,,,,,,,,,,,,,,,,,,,540.811,543.3878,543.3946,2,audio/Narrative13Situation2.wav,543.3946,,543.3946,573.1318,"[[51.5,1242],[52.9,1326],[56.7,1492],[57.9,1576],[59,1659],[59.6,1742],[59.8,1826],[59.8,1909],[59.8,1992],[59.8,2076],[59.8,2159],[59.8,2242],[59.8,2326],[59.8,2409],[59.8,2492],[59.8,2575],[59.8,2659],[59.8,2742],[59.8,2825],[59.8,2909],[59.8,2992],[59.8,3075],[59.8,3159],[59.8,3242],[59.8,3325],[59.8,3408],[59.8,3492],[59.8,3575],[59.8,3659],[59.8,3742],[59.8,3825],[59.8,3908],[59.8,3992],[59.8,4075],[59.8,4158],[59.8,4242],[59.8,4325],[59.8,4408],[59.8,4492],[59.8,4575],[59.8,4658],[59.8,4742],[59.8,4825],[59.8,4908],[59.8,4992],[59.8,5075],[59.8,5158],[59.8,5242],[59.8,5325],[59.8,5408],[59.8,5491],[59.8,5575],[59.8,5658],[59.8,5742],[59.8,5825],[59.8,5908],[59.8,5991],[59.8,6075],[59.8,6158],[60.1,6241],[60.9,6325],[61.5,6408],[61.7,6491],[61.9,6575],[62,6658],[62.3,6741],[62.4,6825],[62.4,6908],[62.4,6991],[62.4,7075],[62.4,7158],[62.4,7241],[62.4,7324],[62.4,7408],[62.4,7491],[62.4,7574],[62.4,7658],[62.4,7741],[62.4,7824],[62.4,7908],[62.4,7991],[62.4,8074],[62.4,8158],[62.4,8241],[62.4,8324],[62.4,8408],[62.4,8491],[62.4,8574],[62.4,8658],[62.4,8741],[62.4,8824],[62.4,8908],[62.4,8991],[62.4,9074],[62.4,9157],[62.4,9241],[62.4,9324],[62.4,9407],[62.4,9491],[62.4,9574],[62.4,9657],[62.4,9741],[62.4,9824],[62.4,9907],[62.4,9991],[62.4,10074],[62.4,10157],[62.4,10240],[62.4,10324],[62.4,10407],[62.4,10490],[62.4,10574],[62.4,10657],[62.4,10740],[62.4,10824],[62.4,10907],[62.4,10990],[62.4,11074],[62.4,11157],[62.4,11240],[62.4,11324],[62.4,11407],[62.4,11490],[62.4,11574],[62.4,11657],[62.4,11740],[62.4,11823],[62.4,11907],[62.4,11990],[62.4,12074],[62.4,12157],[62.4,12240],[62.4,12323],[62.4,12407],[62.4,12490],[62.4,12573],[62.4,12657],[62.4,12740],[60,12823],[57.6,12907],[56.1,12990],[54.5,13073],[52.9,13156],[52.2,13240],[51.1,13323],[50.1,13407],[49.6,13490],[49.1,13573],[48.6,13657],[48.2,13740],[48.1,13823],[48.1,13906],[48.1,13990],[48.1,14073],[48.1,14156],[48.1,14240],[48.1,14323],[48.1,14406],[47.7,14490],[47,14573],[45.9,14656],[45.4,14740],[45.3,14823],[45.3,14906],[45.3,14990],[45.3,15073],[45.3,15156],[45.3,15239],[45.3,15323],[45.3,15406],[45.3,15489],[45.3,15573],[45.3,15656],[45.3,15739],[45.3,15823],[45.3,15906],[45.3,15989],[45.3,16073],[45.3,16156],[45.3,16239],[45.3,16323],[45.3,16406],[45.3,16489],[45.3,16572],[45.3,16656],[45.3,16739],[45.3,16823],[45.3,16906],[45.3,16989],[45.3,17072],[45.3,17156],[45.3,17239],[45.3,17322],[45.3,17406],[45.3,17489],[45.3,17572],[45.3,17656],[45.3,17739],[45.3,17822],[45.3,17906],[45.3,17989],[45.3,18072],[45.3,18156],[45.3,18239],[45.3,18322],[45.3,18405],[45.3,18489],[45.3,18572],[45.3,18655],[45.3,18739],[45.3,18822],[45.1,18905],[44.7,18989],[44.4,19072],[44,19155],[43.6,19239],[43.6,19322],[43.4,19405],[43.4,19489],[43.4,19572],[43.4,19655],[43.4,19739],[43.4,19822],[43.4,19905],[43.4,19989],[43.4,20072],[43.4,20155],[43.4,20238],[43.4,20322],[43.4,20405],[43.4,20488],[43.4,20572],[43.4,20655],[43.4,20738],[43.4,20822],[43.4,20905],[43.4,20988],[43.4,21072],[43.4,21155],[43.4,21238],[43.4,21321],[43.4,21405],[43.4,21488],[43.4,21571],[43.4,21655],[43.4,21738],[43.4,21821],[43.4,21905],[43.4,21988],[43.4,22071],[43.4,22155],[43.4,22238],[43.4,22321],[43.4,22405],[43.4,22488],[43.4,22571],[43.4,22655],[43.4,22738],[43.4,22821],[43.5,22905],[46.1,22988],[48,23071],[50.3,23155],[53.1,23238],[56,23321],[57.7,23404],[58.9,23488],[59.9,23571],[60.7,23655],[61.1,23738],[61.8,23821],[62.3,23904],[62.4,23988],[62.4,24071],[62.4,24154],[62.4,24238],[62.4,24321],[62.4,24404],[62.4,24487],[62.4,24571],[62.4,24654],[62.4,24737],[62.4,24821],[62.4,24904],[62.4,24987],[62.4,25071],[62.4,25154],[62.4,25237],[62.4,25321],[62.4,25404],[62.4,25487],[62.4,25571],[62.4,25654],[62.4,25737],[62.4,25820],[62.4,25904],[62.4,25987],[62.5,26071],[62.5,26154],[62.5,26237],[62.5,26320],[62.5,26404],[62.5,26487],[62.5,26570],[62.5,26654],[62.5,26737],[62.5,26820],[62.5,26904],[62.5,26987],[62.5,27070],[62.5,27154],[62.5,27237],[62.5,27320],[62.5,27404],[62.5,27487],[62.5,27570],[62.5,27653],[62.5,27737],[62.5,27820],[62.5,27903],[62.5,27987],[62.5,28070],[62.5,28153],[62.5,28237],[62.5,28320],[62.5,28403],[62.5,28487],[62.5,28570],[62.5,28653],[62.5,28737],[62.5,28820],[62.5,28903],[62.5,28987],[62.5,29070],[62.5,29153],[62.5,29236],[62.5,29320],[62.5,29403],[62.5,29486],[62.5,29570],[62.5,29653],[62.5,29736]]",1,0,573.1319,573.1381,,,[],,,,573.1381,Not at all,0,573.1388,,,[],,0,0,0,0,1,audio/Narrative13Situation2.wav,audio/Narrative13Situation2.wav,audio/Narrative13Situation2.wav,audio/Narrative13Situation2.wav,2,2,2,2,,,,,504.1411,540.8056,space,36.1533,,,,,,,,,,,,,,,,,,,,,,,,,,,,,,,
,,,,,,662e578177f502513e454b33,2024-05-13_10h41.05.483,group3.1-3.2-social-tom,2023.2.2,Win32,144.9275362,65c5074098b851296ff0b7ed,6642345cb03ad3eda7105e78,,,,,,,,,,,,,,,,,,,,,,,,,,,,,573.1389,2,audio/Narrative6Situation1.wav,575.1452,,575.1453,601.7161,"[[62.8,3165],[64.4,3249],[64.7,3332],[64.7,3415],[64.7,3499],[64.7,3582],[64.4,3665],[64.4,3749],[64.4,3832],[64.4,3915],[64.4,3999],[64.4,4082],[64.4,4165],[64.4,4248],[64.4,4332],[64.4,4415],[64.4,4498],[64.4,4582],[64.4,4665],[64.4,4748],[64.4,4831],[64.4,4915],[64.4,4998],[64.4,5081],[64.4,5165],[64.4,5248],[64.4,5331],[64.4,5415],[64.4,5498],[64.4,5581],[64.4,5665],[64.4,5748],[64.4,5831],[64.4,5915],[64.4,5998],[64.4,6081],[64.4,6165],[64.4,6248],[64.4,6331],[64.4,6414],[64.4,6498],[64.4,6581],[64.4,6664],[64.4,6748],[64.4,6831],[64.4,6914],[64.4,6998],[64.4,7081],[64.4,7164],[64.4,7248],[64.4,7331],[64.4,7414],[64.4,7498],[64.4,7581],[64.4,7664],[64.4,7748],[64.4,7831],[64.4,7914],[64.4,7998],[64.4,8081],[64.4,8164],[64.4,8248],[64.4,8331],[64.4,8414],[64.4,8497],[64.4,8581],[64.4,8664],[64.4,8748],[64.4,8831],[64.4,8914],[64.4,8998],[64.4,9081],[64.4,9164],[64.4,9248],[64.4,9331],[64.4,9414],[64.4,9497],[64.4,9581],[64.4,9664],[64.4,9747],[64.4,9831],[64.4,9914],[64.4,9997],[64.4,10080],[64.4,10164],[64.4,10247],[64.4,10330],[64.4,10414],[64.4,10497],[64.4,10581],[64.4,10663],[64.4,10747],[64.4,10830],[64.4,10914],[64.4,10997],[64.4,11080],[64.4,11163],[64.4,11247],[64.4,11330],[64.4,11414],[64.4,11497],[64.4,11580],[64.4,11664],[64.4,11747],[64.4,11830],[64.4,11913],[64.4,11997],[64.4,12080],[64.4,12163],[64.4,12247],[64.4,12330],[64.4,12413],[64.4,12497],[64.4,12580],[64.4,12663],[64.4,12747],[64.4,12830],[64.4,12913],[64.4,12996],[64.4,13080],[64.4,13163],[64.4,13247],[64.4,13330],[64.4,13413],[64.4,13496],[64.4,13580],[64.4,13663],[64.4,13746],[64.4,13830],[64.4,13913],[64.4,13996],[64.4,14080],[64.4,14163],[64.4,14246],[64.4,14330],[64.4,14413],[64.4,14496],[64.4,14580],[64.4,14663],[64.4,14746],[64.4,14830],[64.4,14913],[64.4,14996],[64.4,15079],[64.4,15163],[64.4,15246],[64.4,15329],[64.4,15413],[64.4,15496],[64.4,15579],[64.4,15663],[64.4,15746],[64.4,15830],[64.4,15913],[64.4,15996],[64.4,16079],[64.4,16163],[64.4,16246],[64.4,16329],[64.4,16413],[64.4,16496],[64.4,16579],[64.4,16662],[64.4,16746],[64.4,16829],[64.4,16913],[64.4,16996],[64.4,17079],[64.4,17163],[64.4,17246],[64.4,17329],[64.4,17412],[64.4,17496],[64.4,17579],[64.4,17662],[64.4,17746],[64.4,17829],[64.4,17912],[64.4,17995],[64.4,18079],[64.4,18162],[64.4,18245],[64.4,18329],[64.4,18412],[64.4,18495],[64.4,18579],[64.4,18662],[64.4,18745],[64.4,18829],[64.4,18912],[64.4,18995],[64.4,19079],[64.4,19162],[64.4,19245],[64.4,19329],[64.4,19412],[64.4,19495],[64.4,19578],[64.4,19662],[64.4,19745],[64.4,19828],[64.4,19912],[64.4,19995],[64.4,20078],[64.4,20162],[64.4,20245],[64.4,20328],[64.4,20412],[64.4,20495],[64.4,20578],[64.4,20662],[64.4,20745],[64.4,20828],[64.4,20912],[64.4,20995],[64.4,21078],[64.4,21162],[64.4,21245],[64.4,21328],[64.4,21411],[64.4,21495],[64.4,21578],[64.4,21662],[64.4,21745],[64.4,21828],[64.4,21911],[64.4,21995],[64.4,22078],[64.4,22161],[64.4,22245],[64.4,22328],[64.4,22411],[64.4,22495],[64.4,22578],[64.4,22661],[64.4,22745],[64.4,22828],[64.4,22911],[64.4,22995],[64.4,23078],[64.4,23161],[64.4,23245],[64.4,23328],[64.4,23411],[64.4,23494],[64.4,23578],[64.4,23661],[64.4,23744],[64.4,23828],[64.4,23911],[64.4,23994],[64.4,24078],[64.4,24161],[64.4,24244],[64.4,24327],[64.4,24411],[64.4,24494],[64.4,24577],[64.4,24661],[64.4,24744],[64.4,24827],[64.4,24911],[64.4,24994],[64.4,25077],[64.4,25161],[64.4,25244],[64.4,25327],[64.4,25411],[64.4,25494],[64.4,25577],[64.4,25661],[64.4,25744],[64.4,25827],[64.4,25910],[64.4,25994],[64.4,26077],[64.4,26160],[64.4,26244],[64.4,26327],[64.4,26410],[64.4,26494]]",1,0,601.7163,617.6571,57.50000477,15.6254,"[{""rating"":57.50000476837158,""responseTime"":15.625399999976139}]",space,15.4207,,617.6572,Half the time,50,617.6588,,,[],,0,1,1,1,1,audio/Narrative7Situation1.wav,audio/Narrative8Situation1.wav,audio/Narrative5Situation1.wav,audio/Narrative6Situation1.wav,2,5,5,2,,,,,,,,,,,,,,,,,,,,,,,,,,,,,,,,,,,,,,,
,,,,,,662e578177f502513e454b33,2024-05-13_10h41.05.483,group3.1-3.2-social-tom,2023.2.2,Win32,144.9275362,65c5074098b851296ff0b7ed,6642345cb03ad3eda7105e78,,,,,,,,,,,,,,,,,,,,,,,,,,,,,617.6589,2,audio/Narrative6Situation2.wav,620.6633,,620.6633,649.1505,[],1,0,649.1506,650.6506,58.33333333,1.2399,"[{""rating"":58.333333333333336,""responseTime"":1.23989999997616}]",space,0.9844,,650.6507,Half the time,50,650.6517,,,[],,0,2,2,2,1,audio/Narrative7Situation2.wav,audio/Narrative8Situation2.wav,audio/Narrative5Situation2.wav,audio/Narrative6Situation2.wav,3,3,3,3,,,,,,,,,,,,,,,,,,,,,,,,,,,,,,,,,,,,,,,
,,,,,,662e578177f502513e454b33,2024-05-13_10h41.05.483,group3.1-3.2-social-tom,2023.2.2,Win32,144.9275362,65c5074098b851296ff0b7ed,6642345cb03ad3eda7105e78,,,,,,,,,,,,,,,,,,,,,,,,,,,,,650.6519,2,audio/Narrative6Situation3.wav,655.6563,,655.6563,668.2578,"[[58.6,1416],[58.9,1499],[58.9,1582],[58.9,1666],[60.4,1749],[64.3,1832],[67.1,1916],[67.4,1999],[67.4,2082],[67.4,2166],[67.4,2249],[67.4,2332],[67.4,2415],[67.4,2499],[67.4,2582],[67.4,2665],[67.4,2749],[67.4,2832],[67.4,2915],[67.4,2999],[67.4,3082],[67.4,3166],[67.4,3249],[67.4,3332],[67.4,3415],[67.4,3498],[67.4,3582],[67.4,3665],[67.4,3748],[67.4,3832],[67.4,3915],[67.4,3999],[67.4,4082],[67.4,4165],[67.4,4249],[67.4,4332],[67.4,4415],[67.4,4498],[67.4,4581],[67.4,4665],[67.4,4748],[67.4,4832],[67.4,4915],[67.4,4998],[67.4,5082],[67.4,5165],[67.4,5248],[67.4,5331],[67.4,5415],[67.4,5498],[66.6,5581],[66.2,5665],[66,5748],[66,5832],[66,5915],[66,5998],[66,6081],[66,6165],[66,6248],[66,6331],[65.7,6415],[65,6498],[64.5,6581],[64.2,6665],[63.9,6749],[63.8,6831],[63.8,6915],[63.8,6998],[63.6,7081],[62.7,7164],[62.6,7248],[62.6,7331],[61.9,7414],[61.8,7498],[61.8,7581],[61.8,7664],[61.8,7748],[61.8,7831],[61.8,7915],[61.8,7998],[61.8,8081],[61.8,8164],[61.8,8248],[61.8,8331],[61.8,8414],[61.8,8497],[61.8,8581],[61.8,8664],[61.8,8747],[61.8,8831],[61.8,8914],[61.8,8997],[61.8,9081],[61.8,9164],[61.8,9247],[61.8,9331],[61.8,9414],[61.8,9497],[61.8,9581],[61.8,9664],[61.8,9747],[61.8,9831],[61.8,9914],[61.8,9997],[61.8,10081],[61.8,10164],[61.8,10247],[61.8,10331],[61.8,10414],[61.8,10497],[61.8,10580],[61.8,10664],[61.8,10747],[61.8,10830],[61.8,10914],[61.8,10997],[61.8,11080],[61.8,11164],[61.8,11247],[61.8,11330],[61.8,11414],[61.8,11497],[61.8,11580],[61.8,11663],[61.8,11747],[61.8,11830],[61.8,11913],[61.8,11997],[61.8,12080],[61.8,12163],[61.8,12247],[61.8,12330],[61.8,12413],[61.8,12497],[61.8,12580]]",1,0,668.2579,671.8748,61.45833333,2.7154,"[{""rating"":61.458333333333336,""responseTime"":2.715399999976171}]",space,3.0988,,671.8748,Half the time,50,671.8758,,,[],,0,3,3,3,1,audio/Narrative7Situation3.wav,audio/Narrative8Situation3.wav,audio/Narrative5Situation3.wav,audio/Narrative6Situation3.wav,8,4,3,5,,,,,,,,,,,,,,,,,,,,,,,,,,,,,,,,,,,,,,,
,,,,,,662e578177f502513e454b33,2024-05-13_10h41.05.483,group3.1-3.2-social-tom,2023.2.2,Win32,144.9275362,65c5074098b851296ff0b7ed,6642345cb03ad3eda7105e78,,,,,,,,,,,,,,,,,,,,,,,,,,,,,671.876,2,audio/Narrative6Situation4.wav,673.8815,,673.8815,686.4833,"[[61,499],[61,582],[61,666],[61,750],[61,833],[61,916],[61,999],[60.7,1083],[60.7,1166],[60.7,1249],[60.7,1333],[60.7,1416],[60.7,1499],[60.7,1583],[60.7,1666],[60.7,1749],[60.7,1832],[60.7,1916],[60.7,1999],[60.7,2082],[60.7,2166],[60.7,2249],[60.7,2332],[60.7,2416],[60.6,2499],[60.6,2582],[60.5,2666],[60.5,2749],[60.5,2832],[60.5,2915],[60.5,2999],[60.5,3082],[60.5,3165],[60.5,3249],[60.5,3332],[60.5,3415],[60.5,3499],[60.5,3582],[60.5,3665],[60.5,3749],[60.5,3832],[60.5,3915],[60.5,3999],[60.5,4082],[60.5,4165],[60.5,4249],[60.5,4332],[60.5,4415],[60.5,4498],[60.5,4582],[60.5,4665],[60.5,4749],[60.5,4832],[60.5,4915],[60.5,4998],[60.5,5082],[60.5,5165],[60.5,5248],[60.5,5332],[60.5,5415],[60.5,5498],[60.5,5582],[60.5,5665],[60.5,5748],[60.5,5832],[60.5,5915],[60.5,5998],[60.5,6082],[60.5,6165],[60.5,6248],[60.5,6331],[60.5,6415],[60.5,6498],[60.5,6581],[60.5,6665],[60.5,6748],[60.5,6831],[60.5,6915],[60.5,6998],[60.5,7081],[60.5,7165],[60.5,7248],[60.5,7332],[60.5,7415],[60.5,7498],[60.5,7581],[60.5,7664],[60.5,7748],[60.5,7831],[60.5,7915],[60.5,7998],[60.5,8081],[60.5,8164],[60.5,8248],[60.5,8331],[60.5,8414],[60.5,8498],[60.5,8581],[60.5,8664],[60.5,8748],[60.5,8831],[60.5,8914],[60.5,8997],[60.5,9081],[60.5,9164],[60.5,9247],[60.5,9331],[60.5,9414],[60.5,9498],[60.5,9581],[60.5,9664],[60.5,9747],[60.5,9831],[60.5,9914],[60.5,9997],[60.5,10081],[60.5,10164],[60.5,10247],[60.9,10331],[63,10414],[63.4,10497],[63.4,10581],[63.4,10664],[63.4,10747],[63.5,10830],[64.1,10914],[64.8,10997],[65.1,11080],[65.9,11164],[66.4,11247],[66.6,11331],[66.6,11414],[66.6,11497],[66.6,11581],[66.6,11664],[66.6,11747],[66.6,11831],[66.6,11914],[66.6,11997],[66.6,12081],[66.6,12164],[66.6,12247],[66.6,12330],[66.6,12414],[66.6,12497],[66.6,12580]]",1,0,686.4835,688.7326,66.56250159,1.7411,"[{""rating"":66.56250158945718,""responseTime"":1.7410999999046908}]",space,1.7312,,688.7326,Half the time,50,688.7335,,,[],,0,4,4,4,1,audio/Narrative7Situation4.wav,audio/Narrative8Situation4.wav,audio/Narrative5Situation4.wav,audio/Narrative6Situation4.wav,3,3,1,2,,,,,,,,,,,,,,,,,,,,,,,,,,,,,,,,,,,,,,,
,,,,,,662e578177f502513e454b33,2024-05-13_10h41.05.483,group3.1-3.2-social-tom,2023.2.2,Win32,144.9275362,65c5074098b851296ff0b7ed,6642345cb03ad3eda7105e78,,,,,,,,,,,,,,,,,,,,,,,,,,,,,688.7337,2,audio/Narrative6Situation5.wav,690.7391,,690.7391,698.6819,"[[66.7,2332],[66.8,2416],[66.8,2499],[66.8,2582],[66.8,2665],[66.8,2749],[66.8,2832],[66.8,2916],[66.8,2999],[66.8,3082],[66.8,3165],[66.8,3249],[66.8,3332],[67,3416],[67.2,3499],[67.4,3582],[67.4,3665],[67.4,3749],[67.4,3832],[67.4,3915],[67.4,3999],[67.4,4082],[67.4,4165],[67.4,4249],[67.4,4332],[67.4,4415],[67.4,4499],[67.4,4582],[67.4,4665],[67.4,4749],[67.4,4832],[67.4,4915],[67.4,4998],[67.4,5082],[67.4,5165],[67.4,5248],[67.4,5332],[67.4,5415],[67.4,5499],[67.4,5582],[67.4,5665],[67.4,5749],[67.4,5832],[67.4,5915],[67.4,5998],[67.4,6082],[67.4,6165],[67.4,6249],[67.4,6332],[67.4,6415],[67.4,6499],[67.4,6582],[67.4,6665],[67.4,6749],[67.4,6831],[67.4,6915],[67.1,6998],[67.1,7081],[67.1,7165],[67.1,7248],[65.2,7331],[63.2,7415],[60.8,7498],[59,7581],[57.5,7664],[57,7748],[56.9,7831],[56.9,7914]]",1,0,698.6821,699.8206,56.87499841,0.6864,"[{""rating"":56.87499841054281,""responseTime"":0.6863999999760608}]",space,0.6187,,699.8207,All the time,100,699.8222,,,[],,0,5,5,5,1,audio/Narrative7Situation5.wav,audio/Narrative8Situation5.wav,audio/Narrative5Situation5.wav,audio/Narrative6Situation5.wav,5,2,5,2,,,,,,,,,,,,,,,,,,,,,,,,,,,,,,,,,,,,,,,
,,,,,,662e578177f502513e454b33,2024-05-13_10h41.05.483,group3.1-3.2-social-tom,2023.2.2,Win32,144.9275362,65c5074098b851296ff0b7ed,6642345cb03ad3eda7105e78,,,,,,,,,,,,,,,,,,,,,,,,,,,,,699.8223,2,audio/Narrative6Situation6.wav,701.8269,,701.8269,712.8942,"[[56.6,83],[56.6,166],[56.6,250],[56.6,333],[56.6,416],[56.6,500],[57.1,583],[58.3,667],[59.4,750],[61.8,833],[63.4,916],[65.8,999],[66.6,1083],[66.7,1166],[66.7,1250],[66.7,1333],[66.7,1416],[66.7,1499],[66.7,1583],[66.7,1666],[66.7,1749],[66.7,1833],[66.7,1916],[66.7,1999],[66.7,2082],[66.7,2166],[66.7,2249],[66.7,2332],[67.1,2416],[67.1,2499],[67.1,2582],[67.1,2666],[67.1,2749],[67.7,2832],[67.7,2916],[67.7,2999],[67.7,3082],[67.7,3166],[67.7,3249],[67.7,3332],[67.7,3416],[67.9,3499],[68.1,3582],[68.1,3666],[68.1,3749],[68.1,3832],[68.1,3915],[68.1,3999],[68.1,4082],[68.1,4165],[68.1,4249],[68.1,4332],[68.1,4415],[68.1,4499],[68.1,4582],[68.1,4665],[68.1,4749],[68.1,4832],[68.1,4915],[68.1,4999],[68.1,5082],[68.1,5165],[68.1,5249],[68.1,5332],[68.1,5415],[68.1,5498],[68.1,5582],[68.1,5665],[68.1,5748],[68.1,5832],[68.1,5915],[68.1,5998],[68.1,6082],[68.1,6165],[68.1,6248],[68.1,6331],[68.1,6415],[68.1,6498],[68.1,6582],[68.1,6665],[68.1,6748],[68.1,6831],[68.1,6915],[68.1,6998],[68.1,7081],[68.1,7165],[68.1,7248],[68.1,7331],[68.1,7415],[68.1,7498],[68.1,7581],[68.1,7665],[68.1,7748],[68.1,7831],[68.1,7914],[68.1,7998],[68.1,8081],[68.1,8165],[68.1,8248],[68.1,8331],[68.1,8414],[68.1,8498],[68.1,8581],[68.1,8664],[68.1,8748],[68.1,8831],[68.1,8914],[68.1,8998],[68.1,9081],[68.1,9164],[68.1,9248],[68.1,9331],[68.1,9414],[68.1,9498],[68.1,9581],[68.1,9664],[68.1,9748],[68.1,9831],[68.1,9914],[68.1,9997],[68.1,10081],[68.1,10164],[68.1,10248],[68.1,10331],[68.1,10414],[68.1,10497],[68.1,10581],[68.1,10664],[68.1,10747],[68.1,10831],[68.1,10914],[68.1,10997]]",1,0,712.8944,716.1088,68.12500159,3.0219,"[{""rating"":68.12500158945718,""responseTime"":3.0218999999760854}]",space,2.6942,,716.1089,Not at all,0,716.1105,,,[],,0,6,6,6,1,audio/Narrative7Situation6.wav,audio/Narrative8Situation6.wav,audio/Narrative5Situation6.wav,audio/Narrative6Situation6.wav,3,2,3,2,,,,,,,,,,,,,,,,,,,,,,,,,,,,,,,,,,,,,,,
,,,,,,662e578177f502513e454b33,2024-05-13_10h41.05.483,group3.1-3.2-social-tom,2023.2.2,Win32,144.9275362,65c5074098b851296ff0b7ed,6642345cb03ad3eda7105e78,,,,,,,,,,,,,,,,,,,,,,,,,,,,,716.1106,2,audio/Narrative6Situation7.wav,721.1147,,721.1147,745.9568,"[[68.4,833],[68.6,916],[68.8,999],[69.3,1082],[69.3,1166],[69.3,1249],[69.3,1333],[69.3,1416],[69.3,1499],[69.3,1583],[69.3,1666],[69.3,1749],[69.3,1833],[69.3,1916],[69.3,1999],[69.3,2082],[69.3,2166],[69.3,2249],[69.3,2332],[69.3,2416],[69.3,2499],[69.3,2582],[69.3,2666],[69.3,2749],[69.3,2832],[69.3,2915],[69.3,2999],[69.3,3082],[69.3,3165],[69.3,3249],[69.3,3332],[69.2,3415],[69.1,3499],[68.9,3582],[68.4,3665],[68,3749],[67.3,3832],[67,3915],[66.8,3999],[66.8,4082],[66.2,4165],[65.9,4249],[65.6,4332],[65.2,4415],[65.2,4499],[64.8,4582],[64.7,4665],[64.5,4748],[64.3,4832],[64.3,4915],[64.3,4998],[64.3,5082],[64.3,5165],[64.3,5248],[64.3,5332],[64.3,5415],[64.3,5498],[64.3,5582],[64.3,5665],[64.3,5748],[64.3,5832],[64.3,5915],[64.3,5998],[64.3,6081],[64.3,6165],[64.3,6248],[64.3,6331],[64.3,6415],[64.3,6498],[64.3,6581],[64.3,6665],[64.3,6748],[64.3,6831],[64.3,6915],[64.3,6998],[64.3,7081],[64.3,7165],[64.3,7248],[64.3,7331],[64.3,7415],[64.3,7498],[64.3,7581],[64.3,7664],[64.3,7748],[64.3,7831],[64.3,7914],[64.3,7998],[64.3,8081],[64.3,8164],[64.3,8248],[64.3,8331],[64.3,8414],[64.3,8498],[64.3,8581],[64.3,8664],[64.3,8748],[64.5,8831],[65.1,8914],[65.4,8998],[66.4,9081],[67.2,9164],[68,9247],[68.8,9331],[69.3,9414],[69.6,9497],[69.6,9581],[69.6,9664],[70.1,9747],[70.1,9831],[70.1,9914],[70.1,9997],[70.1,10081],[70.1,10164],[70.1,10247],[70.1,10331],[70.1,10414],[70.1,10497],[70.1,10581],[70.1,10664],[70.1,10747],[70.1,10830],[70.1,10914],[70.1,10997],[70.1,11080],[70.1,11164],[70.1,11247],[70.1,11330],[70.1,11414],[70.1,11497],[70.1,11580],[70.1,11664],[70.1,11747],[70.1,11830],[70.1,11913],[70.1,11997],[70.1,12080],[70.1,12164],[70.1,12247],[70.1,12330],[70.1,12414],[70.1,12497],[70.1,12580],[70.1,12663],[70.1,12747],[70.1,12830],[70.1,12913],[70.1,12997],[70.1,13080],[70.1,13163],[70.1,13247],[70.1,13330],[70.1,13413],[70.1,13497],[70.1,13580],[70.1,13663],[70.1,13747],[70.1,13830],[70.1,13913],[70.1,13997],[70.1,14080],[70.1,14163],[70.1,14247],[70.1,14330],[70.1,14413],[70.1,14496],[70.1,14580],[70.1,14663],[70.1,14746],[70.1,14830],[70.1,14913],[70.1,14996],[70.1,15080],[70.1,15163],[70.1,15246],[70.1,15330],[70.1,15413],[70.1,15496],[70.1,15580],[70.1,15663],[70.1,15746],[70.1,15830],[70.1,15913],[70.1,15996],[70.1,16079],[70.1,16163],[70.1,16246],[70.1,16329],[70.1,16413],[70.1,16496],[70.1,16579],[70.1,16663],[70.1,16746],[70.1,16829],[70.1,16913],[70.1,16996],[70.1,17079],[70.1,17163],[70.1,17246],[70.1,17329],[70.1,17412],[70.1,17496],[70.1,17579],[70.1,17663],[70.1,17746],[70.1,17829],[70.1,17912],[70.1,17996],[70.1,18079],[70.1,18162],[70.1,18246],[70.1,18329],[70.1,18413],[70.1,18496],[70.1,18579],[70.1,18662],[70.1,18746],[70.1,18829],[70.1,18912],[70.1,18995],[70.1,19079],[70.1,19162],[70.1,19245],[70.1,19329],[70.1,19412],[70.1,19495],[70.1,19579],[70.1,19662],[70.1,19745],[70.1,19829],[70.1,19912],[70.1,19995],[70.1,20079],[70.1,20162],[70.1,20245],[70.1,20328],[70.1,20412],[70.1,20495],[70.1,20578],[70.1,20662],[70.1,20745],[70.1,20828],[70.1,20912],[70.1,20995],[70.1,21078],[70.1,21162],[70.1,21245],[70.1,21328],[70.1,21412],[70.1,21495],[70.1,21578],[70.1,21662],[70.1,21745],[70.1,21828],[70.1,21912],[70.1,21995],[70.1,22078],[70.1,22162],[70.1,22245],[70.1,22328],[70.1,22411],[70.1,22495],[70.1,22578],[70.1,22661],[70.1,22745],[70.1,22828],[70.1,22911],[70.1,22995],[70.1,23078],[70.1,23161],[70.1,23245],[70.1,23328],[70.1,23411],[70.1,23495],[70.1,23578],[70.1,23661],[70.1,23745],[70.1,23828],[70.1,23911],[70.1,23995],[70.1,24078],[70.1,24161],[70.1,24244],[70.1,24327],[70.1,24411],[70.1,24494],[70.1,24578],[70.1,24661],[70.1,24744],[70.1,24828]]",1,0,745.957,747.9214,70.10416985,0.5959,"[{""rating"":70.10416984558105,""responseTime"":0.5958999999761545}]",space,1.4457,,747.9214,Not at all,0,747.9223,,,[],,0,7,7,7,1,audio/Narrative7Situation7.wav,audio/Narrative8Situation7.wav,audio/Narrative5Situation7.wav,audio/Narrative6Situation7.wav,5,3,4,5,,,,,,,,,,,,,,,,,,,,,,,,,,,,,,,,,,,,,,,
,,,,,,662e578177f502513e454b33,2024-05-13_10h41.05.483,group3.1-3.2-social-tom,2023.2.2,Win32,144.9275362,65c5074098b851296ff0b7ed,6642345cb03ad3eda7105e78,,,,,,,,,,,,,,,,,,,,,,,,,,,,,747.9224,2,audio/Narrative6Situation8.wav,752.9275,,752.9276,759.7664,[],1,0,759.7664,766.6121,65.31250477,6.3838,"[{""rating"":65.31250476837158,""responseTime"":6.383800000071574}]",space,6.3255,,766.6121,Half the time,50,766.6136,,,[],,0,8,8,8,1,audio/Narrative7Situation8.wav,audio/Narrative8Situation8.wav,audio/Narrative5Situation8.wav,audio/Narrative6Situation8.wav,2,3,3,5,,,,,,,,,,,,,,,,,,,,,,,,,,,,,,,,,,,,,,,
,,,,,,662e578177f502513e454b33,2024-05-13_10h41.05.483,group3.1-3.2-social-tom,2023.2.2,Win32,144.9275362,65c5074098b851296ff0b7ed,6642345cb03ad3eda7105e78,,,,,,,,,,,,,,,,,,,,,,,,,,,,,766.6138,2,audio/Narrative6Situation9.wav,770.6183,,770.6183,780.5536,"[[64.7,1166],[63.9,1252],[63.5,1335],[63.5,1416],[63.5,1501],[63.5,1582],[63.5,1666],[63.5,1752],[63.5,1832],[63.5,1916],[63.5,1999],[63.5,2082],[63.5,2168],[63.5,2252],[63.5,2335],[63.5,2418],[63.5,2499],[63.5,2582],[63.5,2668],[63.5,2749],[63.5,2832],[63.5,2915],[63.5,2999],[63.5,3082],[63.5,3166],[63.5,3249],[63.5,3332],[63.5,3418],[63.5,3501],[63.5,3582],[63.5,3665],[63.5,3749],[63.5,3835],[63.5,3915],[63.5,3999],[63.5,4085],[63.5,4165],[63.5,4249],[63.5,4332],[63.5,4418],[63.5,4499],[63.5,4582],[63.5,4665],[63.5,4748],[63.5,4832],[63.5,4915],[63.5,4998],[63.5,5082],[63.5,5165],[63.5,5248],[63.5,5332],[63.5,5415],[63.5,5501],[63.5,5581],[63.5,5667],[63.5,5748],[63.5,5832],[63.5,5915],[63.5,5998],[63.5,6081],[63.5,6168],[63.5,6248],[63.5,6331],[63.5,6415],[63.5,6501],[63.5,6584],[63.5,6667],[63.5,6748],[63.5,6831],[63.5,6915],[63.5,6998],[63.5,7081],[63.5,7165],[63.5,7248],[63.5,7331],[63.5,7415],[63.5,7498],[63.5,7584],[63.5,7667],[63.5,7748],[63.5,7831],[63.5,7914],[63.5,7998],[63.5,8081],[63.5,8167],[63.5,8250],[63.5,8331],[63.5,8414],[63.5,8498],[63.5,8584],[63.5,8664],[63.5,8750],[63.5,8833],[63.5,8914],[63.5,9000],[63.5,9081],[63.5,9164],[63.5,9247],[63.5,9331],[63.5,9414],[63.5,9498],[63.5,9581],[63.5,9664],[63.5,9747],[63.5,9834],[63.5,9917]]",1,0,780.5537,787.2633,53.02083492,6.4543,"[{""rating"":53.02083492279053,""responseTime"":6.454299999952241}]",space,6.1934,,787.2633,Not at all,0,787.2647,,,[],,0,9,9,9,1,audio/Narrative7Situation9.wav,audio/Narrative8Situation9.wav,audio/Narrative5Situation9.wav,audio/Narrative6Situation9.wav,2,3,3,4,,,,,,,,,,,,,,,,,,,,,,,,,,,,,,,,,,,,,,,
,,,,,,662e578177f502513e454b33,2024-05-13_10h41.05.483,group3.1-3.2-social-tom,2023.2.2,Win32,144.9275362,65c5074098b851296ff0b7ed,6642345cb03ad3eda7105e78,,,,,,,,,,,,,,,,,,,,,,,,,,,,,787.2649,2,audio/Narrative5Situation1.wav,792.2663,,792.2664,805.5416,"[[54,2756],[54.5,2839],[54.5,2922],[54.5,3006],[54.5,3089],[54.5,3173],[54.5,3256],[54.5,3339],[54.5,3423],[54.5,3506],[54.5,3589],[54.5,3672],[54.5,3756],[54.5,3839],[54.5,3922],[54.5,4006],[54.5,4089],[54.5,4172],[54.5,4256],[54.5,4339],[54.5,4422],[54.5,4505],[54.5,4589],[54.5,4672],[54.5,4755],[54.5,4839],[54.5,4922],[54.5,5005],[54.5,5089],[54.5,5172],[54.5,5255],[54.5,5339],[54.5,5422],[54.5,5505],[54.5,5589],[54.5,5672],[54.5,5755],[54.5,5839],[54.5,5922],[54.5,6005],[54.5,6089],[54.5,6172],[54.5,6255],[54.5,6339],[58.6,6422],[61.7,6505],[63.1,6589],[63.5,6672],[63.5,6755],[63.5,6839],[63.5,6922],[63.5,7005],[63.5,7088],[63.5,7172],[63.5,7255],[63.5,7339],[63.5,7422],[63.5,7505],[63.5,7588],[63.5,7672],[63.5,7755],[63.5,7838],[63.5,7922],[63.5,8005],[63.5,8088],[63.5,8172],[63.8,8255],[64,8338],[64.3,8422],[64.3,8505],[64.3,8588],[64.4,8671],[64.4,8755],[64.4,8838],[64.4,8921],[64.4,9005],[64.4,9088],[64.4,9171],[64.4,9255],[64.4,9338],[64.4,9421],[64.4,9505],[64.4,9588],[64.4,9671],[64.4,9755],[64.4,9838],[64.4,9921],[64.4,10004],[64.4,10088],[64.4,10171],[64.4,10254],[64.4,10338],[64.4,10421],[64.4,10504],[64.4,10588],[64.4,10671],[64.4,10754],[64.4,10838],[64.4,10921],[64.4,11004],[64.4,11087],[64.4,11171],[64.4,11254],[64.4,11337],[64.4,11421],[64.4,11504],[64.4,11587],[64.4,11671],[64.4,11754],[64.4,11837],[64.4,11921],[64.4,12004],[64.4,12087],[64.4,12171],[64.4,12254],[64.4,12337],[64.4,12421],[64.4,12504],[64.4,12587],[64.4,12671],[64.4,12754],[64.4,12837],[64.4,12921],[64.4,13004],[64.4,13087],[64.4,13170],[64.4,13254]]",1,0,805.5418,807.8188,65.52083492,2.0283,"[{""rating"":65.52083492279053,""responseTime"":2.02829999995231}]",space,1.7524,,807.8189,Not at all,0,807.8199,,,[],,0,10,10,10,1,audio/Narrative8Situation1.wav,audio/Narrative7Situation1.wav,audio/Narrative6Situation1.wav,audio/Narrative5Situation1.wav,5,2,2,5,,,,,,,,,,,,,,,,,,,,,,,,,,,,,,,,,,,,,,,
,,,,,,662e578177f502513e454b33,2024-05-13_10h41.05.483,group3.1-3.2-social-tom,2023.2.2,Win32,144.9275362,65c5074098b851296ff0b7ed,6642345cb03ad3eda7105e78,,,,,,,,,,,,,,,,,,,,,,,,,,,,,807.82,2,audio/Narrative5Situation2.wav,810.8277,,810.8278,840.2706,"[[65.1,1246],[64.2,1330],[64,1413],[64,1496],[64,1580],[64,1666],[64,1746],[64,1830],[64,1913],[64,1996],[64,2080],[64,2163],[64,2249],[64,2330],[64,2413],[64,2496],[64,2580],[64,2663],[64,2746],[64,2830],[64,2913],[64,2996],[64,3082],[64,3163],[64,3246],[64,3330],[64,3413],[64,3498],[64,3580],[64,3665],[64,3746],[64,3829],[64,3913],[64,3996],[64,4079],[64,4163],[64,4246],[64,4332],[64,4415],[64,4496],[64,4581],[64,4663],[64,4746],[64,4829],[64,4915],[64,4999],[64,5079],[64,5163],[64,5246],[64,5332],[64,5412],[64,5498],[64,5581],[64,5665],[64,5746],[64,5829],[64,5912],[64,5996],[64,6079],[64,6162],[64,6245],[64,6332],[64,6412],[64,6498],[64,6579],[64,6662],[64,6748],[64,6829],[64,6912],[64,6998],[64,7079],[64,7162],[64,7245],[64,7329],[64,7412],[64,7498],[64,7581],[64,7662],[64,7745],[64,7829],[64,7915],[64,7998],[64,8078],[64,8162],[64,8248],[64,8328],[64,8414],[64,8498],[64,8581],[64,8664],[64,8745],[64,8828],[64,8912],[64,8995],[64,9080],[64,9162],[64,9245],[64,9328],[64,9414],[64,9495],[64,9581],[64,9664],[64,9745],[64,9828],[64,9911],[64,9995],[64,10081],[64,10161],[64,10245],[64,10328],[64,10411],[64,10495],[64,10581],[64,10661],[64,10747],[64,10828],[64,10911],[64,10997],[64,11078],[64,11161],[64,11247],[64,11328],[64,11411],[64.3,11501],[64.5,11585],[64.6,11668],[64.6,11751],[64.6,11835],[64.6,11918],[64.6,12001],[64.6,12085],[64.6,12168],[64.6,12251],[64.6,12335],[64.6,12418],[64.6,12501],[64.6,12585],[64.6,12668],[64.6,12751],[64.6,12834],[64.6,12918],[64.6,13001],[64.6,13084],[64.6,13168],[64.6,13251],[64.4,13335],[64.3,13418],[64.3,13501],[64.2,13584],[64.2,13668],[64.2,13751],[64.2,13834],[64.2,13918],[64.2,14001],[64.2,14084],[64.2,14168],[64.2,14251],[64.2,14334],[64.2,14417],[64.2,14501],[64.2,14584],[64.2,14667],[64.2,14751],[64.2,14834],[64.2,14917],[64.2,15001],[64.2,15084],[64.2,15167],[64.2,15250],[64.2,15334],[64.2,15417],[64.2,15501],[64.2,15584],[64.2,15667],[64.2,15750],[64.2,15834],[64.2,15917],[64.2,16000],[64.2,16084],[64.2,16167],[64.2,16250],[64.2,16334],[64.2,16417],[64.2,16500],[64.2,16584],[64.2,16667],[64.2,16750],[64.2,16833],[64.2,16917],[64.2,17000],[64.2,17083],[64.2,17167],[64.2,17250],[64.2,17333],[64.2,17417],[64.2,17500],[64.2,17583],[64.2,17667],[64.2,17750],[64.2,17833],[64.2,17917],[64.2,18000],[64.2,18083],[64.2,18167],[64.2,18250],[64.2,18333],[64.2,18417],[64.2,18500],[64.2,18583],[64.2,18667],[64.2,18750],[64.2,18833],[64.2,18917],[64.2,19000],[64.2,19083],[64.2,19166],[64.2,19250],[64.2,19333],[64.2,19416],[64.2,19500],[64.2,19583],[64.2,19666],[64.2,19750],[64.2,19833],[64.2,19916],[64.2,20000],[64.2,20083],[64.2,20166],[64.2,20250],[64.2,20333],[64.2,20416],[64.2,20500],[64.2,20583],[64.2,20666],[64.2,20750],[64.2,20833],[64.2,20916],[64.2,20999],[64.2,21083],[64.2,21166],[64.2,21249],[64.2,21333],[64.2,21416],[64.2,21499],[64.2,21582],[64.2,21666],[64.2,21749],[64.2,21832],[64.2,21916],[64.2,21999],[64.2,22083],[64.2,22166],[64.2,22249],[64.2,22332],[64.2,22416],[64.2,22499],[64.2,22582],[64.2,22666],[64.2,22749],[64.2,22832],[64.2,22916],[64.2,22999],[64.2,23082],[64.2,23166],[64.2,23249],[64.2,23332],[64.2,23415],[64.2,23499],[64.2,23582],[64.2,23665],[64.2,23749],[64.2,23832],[64.2,23915],[64.2,23999],[64.2,24082],[64.2,24165],[64.2,24249],[64.2,24332],[64.2,24415],[64.2,24499],[64.2,24582],[64.2,24665],[64.2,24749],[64.2,24832],[64.2,24915],[64.2,24999],[64.2,25082],[64.2,25165],[64.2,25249],[64.2,25332],[64.2,25415],[64.2,25499],[64.2,25582],[64.2,25665],[64.2,25748],[64.2,25832],[64.2,25915],[64.2,25998],[64.2,26082],[64.2,26165],[64.2,26248],[64.2,26332],[64.2,26415],[64.2,26498],[64.2,26582],[64.2,26665],[64.2,26748],[64.2,26831],[64.2,26915],[64.2,26998],[64.2,27081],[64.2,27165],[64.2,27248],[64.2,27331],[64.2,27415],[64.2,27500],[64.2,27581],[64.2,27665],[64.2,27748],[64.2,27831],[64.2,27915],[65.7,27998],[65.7,28081],[65.7,28164],[65.7,28248],[65.7,28331],[65.7,28415],[65.7,28498],[65.7,28581],[65.7,28664],[65.7,28748],[65.7,28831],[65.7,28914],[65.7,28998],[65.7,29081],[65.7,29164],[65.7,29248],[65.7,29331],[65.7,29414]]",1,0,840.2707,841.6591,61.04166508,1.1687,"[{""rating"":61.04166507720947,""responseTime"":1.1687000000476928}]",space,0.8714,,841.6591,All the time,100,841.6605,,,[],,0,11,11,11,1,audio/Narrative8Situation2.wav,audio/Narrative7Situation2.wav,audio/Narrative6Situation2.wav,audio/Narrative5Situation2.wav,3,3,3,3,,,,,,,,,,,,,,,,,,,,,,,,,,,,,,,,,,,,,,,
,,,,,,662e578177f502513e454b33,2024-05-13_10h41.05.483,group3.1-3.2-social-tom,2023.2.2,Win32,144.9275362,65c5074098b851296ff0b7ed,6642345cb03ad3eda7105e78,,,,,,,,,,,,,,,,,,,,,,,,,,,,,841.6607,2,audio/Narrative5Situation3.wav,844.6653,,844.6654,858.5583,"[[61.3,1082],[61.3,1166],[61.3,1249],[61.3,1332],[61.3,1416],[61.3,1499],[61.3,1582],[61.3,1666],[61.3,1749],[61.3,1832],[61.3,1916],[61.3,1999],[61.3,2082],[61.3,2166],[61.3,2249],[61.3,2332],[61.3,2416],[61.3,2499],[61.3,2582],[61.3,2666],[61.3,2749],[61.3,2832],[61.3,2916],[61.3,2999],[61.3,3082],[61.3,3165],[61.3,3249],[61.3,3332],[61.3,3415],[61.3,3499],[61.3,3582],[61.3,3665],[61.3,3749],[61.3,3832],[61.3,3915],[61.3,3999],[61.3,4082],[61.3,4165],[61.3,4249],[61.3,4332],[61.3,4415],[61.3,4498],[61.3,4582],[61.3,4665],[61.3,4748],[61.3,4832],[61.3,4915],[61.3,4998],[61.3,5082],[61.3,5165],[61.3,5248],[61.3,5331],[61.3,5415],[61.3,5498],[61.3,5582],[61.3,5665],[61.3,5748],[61.3,5831],[61.3,5915],[61.3,5998],[61.3,6081],[61.3,6165],[61.3,6248],[61.3,6331],[61.3,6415],[61.3,6498],[61.3,6581],[61.3,6665],[61.3,6748],[61.3,6831],[61.3,6915],[61.3,6998],[61.3,7081],[61.3,7165],[61.3,7248],[61.3,7331],[61.3,7414],[61.3,7498],[61.3,7581],[61.3,7665],[61.3,7748],[61.3,7831],[61.3,7914],[61.3,7998],[61.3,8081],[61.3,8164],[61.3,8248],[61.3,8331],[61.3,8414],[61.3,8498],[61.3,8581],[61.3,8664],[61.3,8748],[61.3,8831],[61.3,8914],[61.3,8998],[61.3,9081],[61.3,9164],[61.3,9247],[61.3,9331],[61.3,9414],[61.3,9497],[61.3,9581],[61.3,9664],[61.3,9747],[61.3,9831],[61.3,9914],[61.3,9997],[61.3,10081],[61.3,10164],[61.3,10247],[61.3,10331],[61.3,10414],[61.3,10497],[61.3,10581],[61.3,10664],[61.3,10747],[61.3,10831],[61.3,10914],[61.3,10997],[61.3,11080],[61.3,11164],[61.3,11247],[61.3,11330],[61.3,11414],[61.3,11497],[61.3,11580],[61.3,11664],[61.3,11747],[61.3,11830],[61.3,11913],[61.3,11997],[61.3,12080],[61.3,12163],[61.3,12247],[61.3,12330],[61.3,12413],[61.3,12497],[61.3,12580],[61.3,12663],[61.3,12747],[61.3,12830],[61.3,12913],[61.3,12996],[61.3,13080],[61.3,13163],[61.3,13247],[61.3,13330],[61.3,13413],[61.3,13496],[61.3,13580],[61.3,13663],[61.3,13746],[61.3,13830]]",1,0,858.5583,861.2888,55.20833333,2.4967,"[{""rating"":55.208333333333336,""responseTime"":2.4967000000476673}]",space,2.2108,,861.2889,Half the time,50,861.2908,,,[],,0,12,12,12,1,audio/Narrative8Situation3.wav,audio/Narrative7Situation3.wav,audio/Narrative6Situation3.wav,audio/Narrative5Situation3.wav,4,8,5,3,,,,,,,,,,,,,,,,,,,,,,,,,,,,,,,,,,,,,,,
,,,,,,662e578177f502513e454b33,2024-05-13_10h41.05.483,group3.1-3.2-social-tom,2023.2.2,Win32,144.9275362,65c5074098b851296ff0b7ed,6642345cb03ad3eda7105e78,,,,,,,,,,,,,,,,,,,,,,,,,,,,,861.2909,2,audio/Narrative5Situation4.wav,862.2936,,862.2937,882.6714,"[[55.5,1002],[55.8,1082],[55.8,1166],[55.1,1249],[55.1,1332],[55.1,1418],[55.1,1499],[55.1,1582],[55.1,1666],[55.1,1749],[55.1,1832],[55.1,1916],[55.1,2002],[55.1,2082],[55.1,2168],[55.1,2252],[55.1,2332],[55.1,2415],[55.1,2499],[55.1,2582],[55.1,2665],[55.1,2752],[55.1,2832],[55.1,2915],[55.1,3001],[55.1,3085],[55.1,3165],[55.1,3249],[55.1,3332],[55.1,3415],[55.1,3499],[55.1,3582],[55.1,3665],[55.1,3751],[55.1,3832],[55.1,3915],[55.1,3998],[55.1,4082],[55.1,4165],[55.1,4249],[55.1,4335],[55.1,4415],[55.1,4499],[55.1,4582],[55.1,4665],[55.1,4749],[55.1,4832],[55.1,4917],[55.1,4998],[55.1,5084],[55.1,5168],[55.1,5248],[55.1,5332],[55.1,5415],[55.1,5501],[55.1,5582],[55.1,5665],[55.1,5748],[55.1,5831],[55.1,5915],[55.1,5998],[55.1,6082],[55.1,6165],[55.1,6251],[55.1,6334],[55.1,6415],[55.1,6498],[55.1,6581],[55.1,6665],[55.1,6748],[55.1,6831],[55.1,6915],[55.1,6998],[55.1,7081],[55.1,7165],[55.1,7251],[55.1,7331],[55.1,7415],[55.1,7498],[55.1,7581],[55.1,7664],[55.1,7748],[55.1,7831],[55.1,7914],[55.1,7998],[55.1,8081],[55.1,8164],[55.1,8250],[55.1,8334],[55.1,8414],[55.1,8498],[55.1,8581],[55.1,8664],[55.1,8747],[55.1,8831],[55.1,8914],[55.1,8997],[55.1,9084],[55.1,9164],[55.1,9250],[55.1,9331],[55.1,9417],[55.1,9497],[55.1,9584],[55.1,9664],[55.1,9747],[55.1,9831],[55.1,9914],[55.1,9997],[55.1,10083],[55.1,10164],[55.1,10247],[55.1,10333],[55.1,10417],[55.1,10497],[55.1,10581],[55.1,10664],[55.1,10747],[55.1,10830],[55.1,10914],[55.1,10997],[55.1,11083],[55.1,11164],[55.1,11250],[55.1,11333],[55.1,11414],[55.1,11500],[55.1,11583],[55.1,11664],[55.1,11747],[55.1,11830],[55.1,11914],[55.1,11997],[55.1,12080],[55.1,12166],[55.1,12247],[55.1,12330],[55.1,12416],[55.1,12500],[55.1,12582],[55.1,12663],[55.1,12747],[55.1,12830],[55.1,12916],[55.1,12997],[55.1,13080],[55.1,13166],[55.1,13247],[55.1,13330],[55.1,13416],[55.1,13499],[55.1,13583],[55.1,13663],[55.1,13747],[55.1,13830],[55.1,13913],[55.1,13996],[55.1,14080],[55.1,14163],[55.1,14246],[55.1,14330],[55.1,14413],[55.1,14499],[55.1,14580],[55.1,14663],[55.1,14746],[55.1,14830],[55.1,14916],[55.1,14996],[55.1,15080],[55.1,15163],[55.1,15246],[55.1,15332],[55.1,15413],[55.1,15496],[55.1,15579],[55.1,15665],[55.1,15748],[55.1,15830],[55.1,15913],[55.1,15996],[55.1,16079],[55.1,16163],[55.1,16246],[55.1,16329],[55.1,16413],[55.1,16499],[55.1,16579],[55.1,16665],[55.1,16746],[55.1,16829],[55.1,16913],[55.1,16996],[55.1,17079],[55.1,17163],[55.1,17246],[55.1,17332],[55.1,17412],[55.1,17496],[55.1,17582],[55.1,17665],[55.1,17746],[55.1,17829],[55.1,17912],[55.1,17996],[55.1,18079],[55.1,18162],[55.1,18248],[55.1,18331],[55.1,18412],[55.1,18498],[55.1,18579],[55.1,18665],[55.1,18748],[55.1,18829],[55.1,18914],[55.1,18998],[55.1,19079],[55.1,19162],[55.1,19245],[55.1,19329],[55.1,19412],[55.1,19495],[55.1,19579],[55.1,19665],[55.1,19745],[55.1,19829],[55.1,19912],[55.1,19995],[55.1,20078],[55.1,20162],[55.1,20245],[55.1,20328]]",1,0,882.6716,886.2082,44.58333651,3.3432,"[{""rating"":44.583336512247726,""responseTime"":3.3431999999285154}]",space,3.0133,,886.2082,Half the time,50,886.2091,,,[],,0,13,13,13,1,audio/Narrative8Situation4.wav,audio/Narrative7Situation4.wav,audio/Narrative6Situation4.wav,audio/Narrative5Situation4.wav,3,3,2,1,,,,,,,,,,,,,,,,,,,,,,,,,,,,,,,,,,,,,,,
,,,,,,662e578177f502513e454b33,2024-05-13_10h41.05.483,group3.1-3.2-social-tom,2023.2.2,Win32,144.9275362,65c5074098b851296ff0b7ed,6642345cb03ad3eda7105e78,,,,,,,,,,,,,,,,,,,,,,,,,,,,,886.2092,2,audio/Narrative5Situation5.wav,891.2112,,891.2112,906.6205,"[[45.2,2252],[46.6,2332],[46.6,2415],[46.4,2499],[46.4,2582],[46.4,2668],[46.4,2752],[46.4,2832],[46.4,2915],[46.4,2999],[46.4,3082],[46.4,3168],[46.4,3249],[46.4,3332],[46.4,3418],[46.4,3499],[46.4,3582],[46.4,3665],[46.4,3749],[46.4,3835],[46.4,3915],[46.4,4001],[46.4,4082],[46.4,4165],[46.4,4251],[46.4,4332],[46.4,4418],[46.4,4499],[46.4,4582],[46.4,4665],[46.4,4749],[46.4,4832],[46.4,4918],[46.4,4998],[46.4,5082],[46.4,5165],[46.4,5248],[46.4,5332],[46.4,5415],[46.4,5501],[46.4,5582],[46.4,5665],[46.4,5748],[46.4,5834],[46.4,5915],[46.4,6001],[46.4,6081],[46.4,6168],[46.4,6248],[46.4,6331],[46.4,6415],[46.4,6498],[46.4,6584],[46.4,6665],[46.4,6748],[46.4,6831],[46.4,6915],[46.4,6998],[46.4,7081],[46.4,7165],[46.4,7248],[46.4,7331],[46.4,7414],[46.4,7498],[46.4,7581],[46.4,7665],[46.4,7748],[46.4,7831],[46.4,7917],[46.4,7998],[46.4,8081],[46.4,8164],[46.4,8250],[46.4,8333],[46.4,8414],[46.4,8500],[46.4,8581],[46.4,8667],[46.4,8748],[46.4,8831],[46.4,8917],[46.4,8998],[46.4,9081],[46.4,9164],[46.4,9247],[46.4,9333],[46.4,9414],[46.4,9500],[46.4,9581],[46.4,9664],[46.4,9747],[46.4,9831],[46.4,9917],[46.4,9997],[46.4,10081],[46.4,10164],[46.4,10247],[46.4,10331],[46.4,10414],[46.4,10497],[46.4,10581],[46.4,10664],[46.4,10747],[46.4,10831],[46.4,10914],[46.4,11000],[46.4,11083],[46.4,11166],[46.4,11247],[46.4,11330],[46.4,11414],[46.4,11497],[46.4,11580],[46.4,11666],[46.4,11747],[46.4,11831],[46.4,11914],[46.4,11997],[46.4,12083],[46.4,12166],[46.4,12249],[46.4,12330],[46.4,12414],[46.4,12497],[46.4,12583],[46.4,12663],[46.4,12747],[46.4,12830],[46.4,12913],[46.4,12997],[46.4,13083],[46.4,13163],[46.4,13247],[46.4,13330],[46.4,13413],[46.4,13497],[46.4,13583],[46.4,13663],[46.4,13747],[46.4,13830],[46.4,13913],[46.4,13996],[46.4,14083],[46.4,14166],[46.4,14247],[46.4,14330],[46.4,14413],[46.4,14496],[46.4,14580],[46.4,14666],[46.4,14746],[46.4,14832],[46.4,14913],[46.4,14996],[46.4,15082],[46.4,15163],[46.4,15246],[46.4,15332]]",1,0,906.6205,914.9495,52.81250477,8.1239,"[{""rating"":52.81250476837158,""responseTime"":8.123899999976175}]",space,7.8142,,914.9495,All the time,100,914.9516,,,[],,0,14,14,14,1,audio/Narrative8Situation5.wav,audio/Narrative7Situation5.wav,audio/Narrative6Situation5.wav,audio/Narrative5Situation5.wav,2,5,2,5,,,,,,,,,,,,,,,,,,,,,,,,,,,,,,,,,,,,,,,
,,,,,,662e578177f502513e454b33,2024-05-13_10h41.05.483,group3.1-3.2-social-tom,2023.2.2,Win32,144.9275362,65c5074098b851296ff0b7ed,6642345cb03ad3eda7105e78,,,,,,,,,,,,,,,,,,,,,,,,,,,,,914.9517,2,audio/Narrative5Situation6.wav,917.9557,,917.9557,923.6211,"[[54.2,333],[54.5,416],[54.5,499],[54.5,582],[54.6,666],[54.6,749],[54.6,833],[55.2,916],[57.5,1000],[58.8,1082],[58.8,1166],[58.8,1249],[58.8,1332],[58.8,1416],[58.8,1499],[58.8,1582],[58.8,1666],[58.8,1749],[58.8,1832],[58.8,1916],[58.8,1999],[58.8,2082],[58.8,2166],[58.8,2249],[58.8,2332],[58.8,2416],[58.8,2499],[58.8,2582],[58.8,2666],[58.8,2749],[58.8,2832],[58.8,2915],[58.8,2999],[58.8,3082],[58.8,3165],[58.8,3249],[58.8,3332],[58.8,3415],[58.8,3499],[58.8,3582],[58.8,3665],[58.8,3749],[58.8,3832],[58.8,3915],[58.8,3999],[58.8,4082],[58.8,4165],[58.8,4249],[58.8,4332],[58.8,4415],[58.8,4498],[58.8,4582],[58.8,4665],[58.8,4748],[58.8,4832],[58.8,4915],[58.8,4998],[58.8,5082],[58.8,5165],[58.8,5248],[58.8,5332],[58.8,5415],[58.8,5498],[58.8,5582],[58.8,5665]]",1,0,923.6212,928.5229,51.87500318,4.6924,"[{""rating"":57.18750158945719,""responseTime"":3.8538999999761927},{""rating"":51.87500317891439,""responseTime"":4.692399999976146}]",space,4.3803,,928.523,All the time,100,928.5241,,,[],,0,15,15,15,1,audio/Narrative8Situation6.wav,audio/Narrative7Situation6.wav,audio/Narrative6Situation6.wav,audio/Narrative5Situation6.wav,2,3,2,3,,,,,,,,,,,,,,,,,,,,,,,,,,,,,,,,,,,,,,,
,,,,,,662e578177f502513e454b33,2024-05-13_10h41.05.483,group3.1-3.2-social-tom,2023.2.2,Win32,144.9275362,65c5074098b851296ff0b7ed,6642345cb03ad3eda7105e78,,,,,,,,,,,,,,,,,,,,,,,,,,,,,928.5241,2,audio/Narrative5Situation7.wav,932.5289,,932.5289,953.5524,"[[58.1,416],[58.8,500],[58.8,583],[58.8,666],[58.8,749],[58.8,833],[58.8,916],[58.8,999],[58.8,1083],[58.8,1166],[58.8,1249],[58.8,1333],[58.8,1416],[58.8,1499],[58.8,1582],[58.8,1666],[58.8,1749],[58.8,1832],[58.8,1916],[58.8,1999],[58.8,2082],[58.8,2166],[58.8,2249],[58.8,2332],[58.8,2415],[58.8,2499],[58.8,2582],[58.8,2666],[58.8,2749],[58.8,2832],[58.8,2916],[58.8,2999],[58.8,3082],[58.8,3166],[58.8,3249],[58.8,3332],[58.8,3416],[58.8,3499],[58.8,3582],[58.8,3665],[58.8,3749],[58.8,3832],[58.8,3915],[58.8,3999],[58.8,4082],[58.8,4165],[58.8,4249],[58.8,4332],[58.8,4415],[58.8,4499],[58.8,4582],[58.8,4665],[58.8,4748],[58.9,4832],[59.1,4915],[59.2,4998],[59.2,5082],[59.2,5165],[59.2,5249],[59.2,5332],[59.2,5415],[59.2,5498],[59.2,5582],[59.2,5665],[59.2,5748],[59.2,5832],[59.2,5915],[59.2,5998],[59.2,6082],[59.2,6165],[59.2,6248],[59.2,6332],[59.2,6415],[59.2,6498],[59.2,6581],[59.2,6665],[59.2,6748],[59.2,6831],[59.2,6915],[59.2,6998],[59.2,7081],[59.2,7165],[59.2,7248],[59.2,7331],[59.2,7415],[59.2,7498],[59.2,7581],[59.2,7665],[59.2,7748],[59.2,7831],[59.2,7915],[59.2,7998],[59.2,8081],[59.2,8164],[59.2,8248],[59.2,8331],[59.2,8414],[59.2,8498],[59.2,8581],[59.2,8664],[59.2,8748],[59.2,8831],[59.2,8914],[59.2,8998],[59.2,9081],[59.2,9164],[59.2,9248],[59.2,9331],[59.2,9414],[59.2,9498],[59.2,9581],[59.2,9664],[59.2,9748],[59.2,9831],[59.2,9914],[59.2,9998],[59.2,10081],[59.2,10164],[59.2,10248],[59.2,10331],[59.2,10414],[59.2,10497],[59.2,10581],[59.2,10664],[59.2,10747],[59,10831],[57.7,10914],[56.9,10997],[55.8,11080],[54.9,11164],[53.9,11247],[52.9,11330],[52.2,11414],[52.2,11497],[52.2,11580],[52.2,11664],[52.2,11747],[52.2,11830],[52.2,11914],[52.2,11997],[52.2,12080],[52.2,12164],[52,12247],[51.9,12330],[51.7,12414],[51.7,12497],[51.7,12580],[51.7,12664],[51.7,12747],[51.4,12830],[50.8,12914],[50.6,12997],[50.6,13080],[50.6,13163],[50.6,13247],[50.6,13330],[50.6,13413],[50.6,13497],[50.6,13580],[50.6,13663],[50.6,13747],[50.6,13830],[50.3,13913],[50.3,13997],[50.3,14080],[50.3,14163],[50.1,14247],[49.7,14330],[49.7,14413],[49.7,14497],[49.7,14580],[49.7,14663],[49.7,14747],[49.7,14830],[49.7,14913],[49.7,14996],[49.7,15080],[49.7,15163],[49.7,15246],[49.7,15330],[49.7,15413],[49.7,15496],[49.7,15580],[49.7,15663],[49.7,15746],[49.7,15830],[49.7,15913],[49.7,15996],[49.7,16080],[49.7,16163],[49.7,16246],[49.7,16330],[49.7,16413],[49.7,16496],[49.7,16579],[49.7,16663],[49.7,16746],[49.7,16829],[49.7,16913],[49.7,16996],[49.7,17079],[49.7,17163],[49.7,17246],[49.7,17329],[49.7,17413],[49.7,17496],[49.7,17579],[49.7,17663],[49.7,17746],[49.7,17829],[49.7,17913],[49.7,17996],[49.7,18079],[49.7,18162],[49.7,18246],[49.7,18329],[49.7,18412],[49.7,18496],[49.7,18579],[49.7,18662],[49.7,18746],[49.7,18829],[49.7,18912],[49.7,18996],[49.7,19079],[49.7,19162],[49.7,19246],[49.7,19329],[49.7,19412],[49.7,19495],[49.7,19579],[49.7,19662],[49.7,19745],[49.7,19829],[49.7,19912],[49.7,19995],[49.7,20079],[49.7,20162],[49.7,20245],[49.7,20329],[49.7,20412],[49.7,20495],[49.7,20579],[49.7,20662],[49.7,20745],[49.7,20829],[49.7,20912],[49.7,20995]]",1,0,953.5526,956.8672,47.0833381,2.8444,"[{""rating"":47.08333810170491,""responseTime"":2.8443999999760763}]",space,2.7961,,956.8672,All the time,100,956.8681,,,[],,0,16,16,16,1,audio/Narrative8Situation7.wav,audio/Narrative7Situation7.wav,audio/Narrative6Situation7.wav,audio/Narrative5Situation7.wav,3,5,5,4,,,,,,,,,,,,,,,,,,,,,,,,,,,,,,,,,,,,,,,
,,,,,,662e578177f502513e454b33,2024-05-13_10h41.05.483,group3.1-3.2-social-tom,2023.2.2,Win32,144.9275362,65c5074098b851296ff0b7ed,6642345cb03ad3eda7105e78,,,,,,,,,,,,,,,,,,,,,,,,,,,,,956.8682,2,audio/Narrative5Situation8.wav,959.8706,,959.8706,968.6812,"[[47,833],[46.3,916],[45.2,999],[44.9,1082],[44.6,1169],[44.5,1249],[44.4,1332],[44.1,1416],[43.9,1499],[43.9,1585],[43.9,1668],[43.9,1749],[43.9,1833],[43.3,1916],[43.2,1999],[43,2085],[43,2166],[43,2252],[43,2332],[43,2415],[43,2499],[43,2582],[43,2665],[43,2751],[43,2832],[43,2915],[43,2999],[43,3082],[43,3165],[43,3251],[43,3332],[43,3415],[43,3499],[43,3582],[43,3665],[43,3748],[43,3832],[43,3918],[43,3999],[43,4085],[43,4165],[43,4249],[43,4332],[43,4415],[43,4498],[43,4582],[43,4665],[43,4751],[43,4832],[43,4915],[43,4998],[43,5082],[43,5165],[43,5248],[43,5332],[43,5415],[43,5498],[43,5581],[43,5665],[43,5748],[43,5832],[43,5917],[43,6001],[43,6081],[43,6167],[43,6251],[43,6334],[43,6417],[43,6498],[43,6581],[43,6665],[43,6748],[43,6834],[43,6917],[43,6998],[43,7081],[43,7164],[43,7248],[43,7331],[43,7415],[43,7501],[43,7583],[43,7664],[43,7748],[43,7831],[43,7917],[43,7998],[43,8083],[43,8167],[43,8248],[43,8331],[43,8417],[43,8498],[43,8581],[43,8667],[43,8747]]",1,0,968.6813,970.7432,41.35417144,1.641,"[{""rating"":41.35417143503825,""responseTime"":1.6409999999999627}]",space,1.5427,,970.7432,Not at all,0,970.7449,,,[],,0,17,17,17,1,audio/Narrative8Situation8.wav,audio/Narrative7Situation8.wav,audio/Narrative6Situation8.wav,audio/Narrative5Situation8.wav,3,2,5,3,,,,,,,,,,,,,,,,,,,,,,,,,,,,,,,,,,,,,,,
