exp_question,consent.started,consent.stopped,consentResponse.keys,consentResponse.rt,consentResponse.duration,participantID,date,expName,psychopyVersion,OS,frameRate,STUDY_ID,SESSION_ID,opening1.started,opening1.stopped,keyEndingOpening1.keys,keyEndingOpening1.rt,keyEndingOpening1.duration,volumeAdjust.started,volumeAdjust.stopped,endingAdjust.keys,endingAdjust.rt,endingAdjust.duration,opening2.started,opening2.stopped,keyEndingOpening.keys,keyEndingOpening.rt,keyEndingOpening.duration,mouse.x,mouse.y,mouse.leftButton,mouse.midButton,mouse.rightButton,mouse.time,instructionLoop.thisRepN,instructionLoop.thisTrialN,instructionLoop.thisN,instructionLoop.thisIndex,instructionLoop.ran,readyForAudio.started,readyForAudio.stopped,fixation.started,run,audio_played,fixation.stopped,endPractice.keys,audioPre.started,audioPre.stopped,continuousResponses_audio,continuousSlider.response,continuousSlider.rt,intRating.started,intRating.stopped,intQuestionSlider.response,intQuestionSlider.rt,intQuestionSlider.history,confirmResponse.keys,confirmResponse.rt,confirmResponse.duration,catchQuestion.started,catch_label,catch_value,catchQuestion.stopped,catchQuestionSlider.response,catchQuestionSlider.rt,catchQuestionSlider.history,confirmResponse_2.keys,audioRunLoop.thisRepN,audioRunLoop.thisTrialN,audioRunLoop.thisN,audioRunLoop.thisIndex,audioRunLoop.ran,conditions1_1,conditions2_1,conditions1_2,conditions2_2,dur1_1,dur2_1,dur1_2,dur2_2,endPractice.rt,endPractice.duration,confirmResponse_2.rt,confirmResponse_2.duration,runIntervalBreak.started,runIntervalBreak.stopped,endingBreakKey.keys,endingBreakKey.rt,endingBreakKey.duration,connection.started,connection.stopped,connectionEnding.keys,connectionEnding.rt,connectionEnding.duration,readyForText.started,readyForText.stopped,textPre.started,run_dup,textPre.stopped,continuousResponses_text,textRunLoop.thisRepN,textRunLoop.thisTrialN,textRunLoop.thisN,textRunLoop.thisIndex,textRunLoop.ran,text1_1,text1_2,text2_1,text2_2,runBreakText.started,runBreakText.stopped,endingBreakKey_2.keys,endingBreakKey_2.rt,endingBreakKey_2.duration,ending.started,ending.stopped,endingEnding.keys,endingEnding.rt,endingEnding.duration
tom,0.0002,32.448,y,32.1259,,6630da66ecc00f81e26c343e,2024-05-13_12h00.56.895,group3.1-3.2-social-tom,2023.2.2,Win32,59.88023952,65c5074098b851296ff0b7ed,664237d5fda7424f1080615e,,,,,,,,,,,,,,,,,,,,,,,,,,,,,,,,,,,,,,,,,,,,,,,,,,,,,,,,,,,,,,,,,,,,,,,,,,,,,,,,,,,,,,,,,,,,,,,,,,,,,,,,,,
,,,,,,6630da66ecc00f81e26c343e,2024-05-13_12h00.56.895,group3.1-3.2-social-tom,2023.2.2,Win32,59.88023952,65c5074098b851296ff0b7ed,664237d5fda7424f1080615e,32.4482,41.3289,space,8.856,,,,,,,,,,,,,,,,,,,,,,,,,,,,,,,,,,,,,,,,,,,,,,,,,,,,,,,,,,,,,,,,,,,,,,,,,,,,,,,,,,,,,,,,,,,,,,,,,,,,,,
,,,,,,6630da66ecc00f81e26c343e,2024-05-13_12h00.56.895,group3.1-3.2-social-tom,2023.2.2,Win32,59.88023952,65c5074098b851296ff0b7ed,664237d5fda7424f1080615e,,,,,,41.3292,59.5618,space,17.9004,,,,,,,,,,,,,,,,,,,,,,,,,,,,,,,,,,,,,,,,,,,,,,,,,,,,,,,,,,,,,,,,,,,,,,,,,,,,,,,,,,,,,,,,,,,,,,,,,
,,,,,,6630da66ecc00f81e26c343e,2024-05-13_12h00.56.895,group3.1-3.2-social-tom,2023.2.2,Win32,59.88023952,65c5074098b851296ff0b7ed,664237d5fda7424f1080615e,,,,,,,,,,,59.5701,76.229,space,16.6374,,[],[],[],[],[],[],0,0,0,0,1,,,,,,,,,,,,,,,,,,,,,,,,,,,,,,,,,,,,,,,,,,,,,,,,,,,,,,,,,,,,,,,,,,,,,,,,,,,,,,,,
,,,,,,6630da66ecc00f81e26c343e,2024-05-13_12h00.56.895,group3.1-3.2-social-tom,2023.2.2,Win32,59.88023952,65c5074098b851296ff0b7ed,664237d5fda7424f1080615e,,,,,,,,,,,76.2345,102.8257,space,26.5237,,[],[],[],[],[],[],1,0,1,0,1,,,,,,,,,,,,,,,,,,,,,,,,,,,,,,,,,,,,,,,,,,,,,,,,,,,,,,,,,,,,,,,,,,,,,,,,,,,,,,,,
,,,,,,6630da66ecc00f81e26c343e,2024-05-13_12h00.56.895,group3.1-3.2-social-tom,2023.2.2,Win32,59.88023952,65c5074098b851296ff0b7ed,664237d5fda7424f1080615e,,,,,,,,,,,102.833,125.2577,space,22.3905,,[],[],[],[],[],[],2,0,2,0,1,,,,,,,,,,,,,,,,,,,,,,,,,,,,,,,,,,,,,,,,,,,,,,,,,,,,,,,,,,,,,,,,,,,,,,,,,,,,,,,,
,,,,,,6630da66ecc00f81e26c343e,2024-05-13_12h00.56.895,group3.1-3.2-social-tom,2023.2.2,Win32,59.88023952,65c5074098b851296ff0b7ed,664237d5fda7424f1080615e,,,,,,,,,,,125.2637,151.2571,space,25.9705,,[],[],[],[],[],[],3,0,3,0,1,,,,,,,,,,,,,,,,,,,,,,,,,,,,,,,,,,,,,,,,,,,,,,,,,,,,,,,,,,,,,,,,,,,,,,,,,,,,,,,,
,,,,,,6630da66ecc00f81e26c343e,2024-05-13_12h00.56.895,group3.1-3.2-social-tom,2023.2.2,Win32,59.88023952,65c5074098b851296ff0b7ed,664237d5fda7424f1080615e,,,,,,,,,,,151.2638,170.2891,space,19.006,,[],[],[],[],[],[],4,0,4,0,1,,,,,,,,,,,,,,,,,,,,,,,,,,,,,,,,,,,,,,,,,,,,,,,,,,,,,,,,,,,,,,,,,,,,,,,,,,,,,,,,
,,,,,,6630da66ecc00f81e26c343e,2024-05-13_12h00.56.895,group3.1-3.2-social-tom,2023.2.2,Win32,59.88023952,65c5074098b851296ff0b7ed,664237d5fda7424f1080615e,,,,,,,,,,,,,,,,,,,,,,,,,,,170.2967,172.8725,172.8845,1,audio/Narrative13Situation2.wav,174.8895,,174.8896,204.6548,"[[999,2],[999,99],[999,182],[999,266],[999,349],[999,432],[999,516],[999,599],[999,682],[999,766],[999,849],[999,932],[999,1015],[999,1099],[999,1182],[999,1266],[999,1349],[999,1432],[999,1516],[999,1599],[999,1682],[999,1766],[999,1848],[999,1932],[999,2016],[999,2099],[999,2182],[999,2266],[999,2349],[999,2432],[999,2516],[999,2599],[999,2682],[999,2766],[999,2849],[999,2932],[999,3016],[999,3099],[999,3182],[999,3266],[999,3349],[999,3432],[999,3516],[999,3599],[999,3682],[999,3766],[999,3849],[999,3932],[999,4016],[999,4099],[999,4182],[999,4266],[999,4349],[999,4432],[999,4516],[999,4598],[999,4682],[999,4765],[999,4849],[999,4932],[999,5015],[999,5098],[999,5182],[999,5266],[999,5349],[999,5432],[999,5516],[999,5599],[999,5682],[999,5766],[999,5849],[999,5932],[999,6016],[999,6099],[999,6182],[999,6266],[999,6349],[999,6432],[999,6515],[999,6599],[999,6682],[999,6765],[999,6849],[999,6932],[999,7016],[999,7099],[999,7182],[999,7265],[999,7349],[999,7432],[999,7515],[999,7599],[999,7682],[999,7765],[999,7849],[999,7932],[999,8016],[999,8099],[999,8182],[999,8265],[999,8348],[999,8432],[999,8515],[999,8599],[999,8682],[999,8765],[999,8849],[999,8932],[999,9015],[999,9099],[999,9182],[999,9266],[999,9349],[999,9432],[999,9516],[999,9599],[999,9682],[999,9766],[999,9849],[999,9932],[999,10015],[999,10099],[999,10182],[999,10265],[999,10349],[999,10432],[999,10515],[999,10599],[999,10681],[999,10765],[999,10848],[999,10932],[999,11015],[999,11099],[999,11181],[999,11265],[999,11349],[999,11432],[999,11515],[999,11598],[999,11682],[999,11765],[999,11848],[999,11932],[63.4,12015],[56.6,12515],[56.3,12598],[56.1,12682],[56,12765],[56,12849],[56.1,12932],[56.1,13015],[57.1,13099],[57.1,13182],[57.2,13265],[57.2,13348],[57.2,13432],[57.2,13515],[57.2,13599],[57.2,13682],[57.2,13765],[57.2,13848],[57.2,13932],[57.2,14015],[57.2,14098],[57.2,14182],[57.2,14265],[57.2,14348],[57.2,14432],[57.2,14515],[57.2,14599],[57.2,14682],[57.2,14765],[57.2,14848],[57.2,14932],[57.2,15015],[57.2,15098],[57.2,15182],[57.2,15265],[57.2,15348],[57.2,15432],[57.2,15515],[57.2,15598],[57.2,15681],[57.2,15765],[57.2,15849],[57.2,15932],[57.2,16015],[57.2,16099],[57.2,16182],[57.2,16265],[57.2,16348],[57.2,16432],[57.2,16515],[57.2,16598],[57.2,16682],[57.2,16765],[57.2,16848],[57.2,16932],[57.2,17015],[57.2,17098],[57.2,17182],[57.2,17265],[57.2,17348],[57.2,17432],[57.2,17515],[57.2,17598],[57.2,17682],[57.2,17765],[57.2,17848],[57.2,17931],[57.2,18015],[57.2,18098],[57.2,18182],[57.2,18265],[57.2,18348],[57.2,18432],[57.2,18515],[57.2,18598],[57.2,18682],[57.2,18765],[57.2,18848],[57.2,18932],[57.2,19015],[57.2,19098],[57.2,19182],[57.2,19265],[57.2,19348],[57.2,19432],[57.2,19515],[57.2,19598],[57.2,19682],[57.2,19765],[57.2,19848],[57.2,19931],[57.2,20014],[57.2,20098],[57.2,20182],[57.2,20265],[57.2,20348],[57.2,20432],[57.2,20515],[57.2,20598],[57.2,20681],[57.2,20765],[57.2,20848],[57.2,20931],[57.2,21014],[57.2,21098],[57.2,21182],[57.2,21265],[57.2,21348],[57.2,21432],[57.2,21515],[57.2,21598],[57.2,21682],[57.2,21765],[57.2,21848],[57.2,21931],[57.2,22015],[57.2,22098],[57.2,22182],[57.2,22265],[57.2,22348],[57.2,22431],[57.2,22514],[57.2,22598],[57.2,22681],[57.2,22765],[57.2,22848],[57.2,22931],[57.2,23014],[57.2,23098],[57.2,23181],[57.2,23265],[57.2,23348],[57.2,23431],[57.2,23514],[57.2,23598],[57.2,23681],[57.2,23765],[57.2,23848],[57.2,23931],[57.2,24015],[57.2,24098],[57.2,24181],[57.2,24264],[57.2,24348],[57.2,24431],[57.2,24515],[57.2,24598],[57.2,24682],[57.2,24765],[57.2,24848],[57.2,24932],[57.2,25015],[57.2,25098],[57.2,25181],[57.2,25265],[57.2,25348],[57.2,25432],[57.2,25515],[57.2,25598],[57.2,25682],[57.2,25765],[57.2,25848],[57.2,25931],[57.2,26014],[57.2,26098],[57.2,26181],[57.2,26265],[57.2,26348],[57.2,26431],[57.2,26515],[57.2,26598],[57.2,26681],[57.2,26765],[57.2,26848],[57.2,26931],[57.2,27015],[57.2,27098],[57.2,27181],[57.2,27265],[57.2,27348],[57.2,27431],[57.2,27515],[57.2,27598],[57.2,27681],[57.2,27765],[57.2,27848],[57.2,27931],[57.2,28014],[57.2,28098],[57.2,28181],[57.2,28265],[57.2,28348],[57.2,28431],[57.2,28515],[57.2,28598],[57.2,28681],[57.2,28765],[57.2,28848],[57.2,28931],[57.2,29014],[57.2,29098],[57.2,29181],[57.2,29265],[57.2,29348],[57.2,29431],[57.2,29514],[58,29598],[58.3,29681],[58.3,29764]]",1,0,204.6551,218.3048,61.1458381,9.9605,"[{""rating"":61.14583810170492,""responseTime"":9.960499999999996}]",space,13.0995,,218.3052,All the time,100,218.3096,,,[],,0,0,0,0,1,audio/Narrative13Situation2.wav,audio/Narrative13Situation2.wav,audio/Narrative13Situation2.wav,audio/Narrative13Situation2.wav,2,2,2,2,,,,,,,,,,,,,,,,,,,,,,,,,,,,,,,,,,,,,,,
,,,,,,6630da66ecc00f81e26c343e,2024-05-13_12h00.56.895,group3.1-3.2-social-tom,2023.2.2,Win32,59.88023952,65c5074098b851296ff0b7ed,664237d5fda7424f1080615e,,,,,,,,,,,,,,,,,,,,,,,,,,,,,218.3097,1,audio/Narrative8Situation1.wav,221.9043,space,221.9044,237.8372,[],1,0,237.8373,243.9861,45.62500318,5.0209,"[{""rating"":45.62500317891438,""responseTime"":5.020899999976166}]",space,5.6087,,243.9861,Half the time,50,243.99,,,[],,0,1,1,1,1,audio/Narrative7Situation1.wav,audio/Narrative8Situation1.wav,audio/Narrative5Situation1.wav,audio/Narrative6Situation1.wav,2,5,5,2,3.5777,,,,,,,,,,,,,,,,,,,,,,,,,,,,,,,,,,,,,,
,,,,,,6630da66ecc00f81e26c343e,2024-05-13_12h00.56.895,group3.1-3.2-social-tom,2023.2.2,Win32,59.88023952,65c5074098b851296ff0b7ed,664237d5fda7424f1080615e,,,,,,,,,,,,,,,,,,,,,,,,,,,,,243.9901,1,audio/Narrative8Situation2.wav,247.0029,,247.0029,257.1359,[],1,0,257.1361,263.742,66.56250159,3.8079,"[{""rating"":66.56250158945718,""responseTime"":3.8078999999761436}]",space,6.051,,263.7421,All the time,100,263.751,,,[],,0,2,2,2,1,audio/Narrative7Situation2.wav,audio/Narrative8Situation2.wav,audio/Narrative5Situation2.wav,audio/Narrative6Situation2.wav,3,3,3,3,,,,,,,,,,,,,,,,,,,,,,,,,,,,,,,,,,,,,,,
,,,,,,6630da66ecc00f81e26c343e,2024-05-13_12h00.56.895,group3.1-3.2-social-tom,2023.2.2,Win32,59.88023952,65c5074098b851296ff0b7ed,664237d5fda7424f1080615e,,,,,,,,,,,,,,,,,,,,,,,,,,,,,263.751,1,audio/Narrative8Situation3.wav,267.753,,267.7531,290.1521,"[[67.2,8338],[69.3,8421],[71.1,8503],[72.6,8588],[74.4,8671],[75.9,8754],[76.8,8838],[77.1,8915],[77.6,9004],[77.6,9081],[77.9,9170],[78.4,9255],[79,9338],[79.5,9421],[80.1,9499],[80.2,9581],[80.4,9670],[80.4,9751],[80.4,9831],[80.4,9920],[80.2,9998],[79.8,10087],[79.6,10170],[79.6,10254],[79.6,10337],[79.6,10420],[79.6,10498],[80.2,10587],[80.2,10664],[80.2,10754],[80.2,10832],[80.2,10915],[80.2,10998],[80.2,11081],[80.2,11164],[80.2,11253],[80.2,11332],[80.2,11417],[80.2,11503],[80.2,11581],[80.2,11667],[80.2,11754],[80.2,11831],[80.2,11914],[80.2,11998],[80.2,12082],[80.2,12170],[80.2,12248],[80.2,12336],[80.2,12415],[80.2,12499],[80.2,12582],[80.2,12665],[80.2,12747],[80.2,12831],[80.2,12914],[80.2,12998],[80.2,13088],[80.2,13164],[80.2,13253],[80.2,13332],[80.2,13421],[80.2,13498],[80.2,13582],[80.2,13664],[80.2,13749],[80.2,13831],[80.2,13920],[80.2,13998],[80.2,14081],[80.2,14164],[80.2,14248],[80.2,14331],[80.2,14421],[80.2,14498],[80.2,14581],[80.2,14670],[80.2,14747],[80.2,14836],[80.2,14914],[80.2,14998],[80.2,15081],[80.2,15170],[80.2,15248],[80.2,15331],[80.2,15420],[80.2,15503],[80.2,15581],[80.2,15664],[80.2,15748],[80.2,15831],[80.2,15914],[80.2,16004],[80.2,16087],[80.2,16164],[80.2,16252],[80.2,16331],[80.2,16415],[80.2,16497],[80.2,16586],[80.2,16664],[80.2,16752],[80.2,16831],[80.2,16920],[80.2,17004],[80.2,17081],[80.2,17170],[80.2,17248],[80.2,17331],[80.2,17414],[80.2,17498],[80.2,17586],[80.2,17670],[80.2,17748],[80.2,17836],[80.2,17918],[80.2,17998],[80.2,18081],[80.2,18164],[80.2,18248],[80.2,18331],[80.2,18414],[80.2,18500],[80.2,18582],[80.2,18670],[80.2,18753],[80.2,18837],[80.2,18914],[80.2,18998],[80.2,19081],[80.2,19164],[80.2,19248],[80.2,19337],[80.2,19414],[80.2,19498],[80.2,19586],[80.2,19664],[80.2,19753],[80.2,19837],[80.2,19914],[80.2,19998],[80.2,20087],[80.2,20164],[80.2,20248],[80.2,20331],[80.2,20414],[80.2,20498],[80.2,20581],[80.2,20670],[80.2,20753],[80.2,20834],[80.2,20914],[80.2,20997],[80.2,21081],[80.2,21164],[80.2,21252],[80.2,21336],[80.2,21414],[80.2,21498],[80.2,21581],[80.2,21670],[80.2,21752],[80.2,21836],[80.2,21920],[80.2,21998],[80.2,22081],[80.2,22167],[80.2,22248],[80.2,22336]]",1,0,290.1527,292.1234,80.20833333,0.9493,"[{""rating"":80.20833333333333,""responseTime"":0.9493000000715028}]",space,1.4181,,292.1234,All the time,100,292.1244,,,[],,0,3,3,3,1,audio/Narrative7Situation3.wav,audio/Narrative8Situation3.wav,audio/Narrative5Situation3.wav,audio/Narrative6Situation3.wav,8,4,3,5,,,,,,,,,,,,,,,,,,,,,,,,,,,,,,,,,,,,,,,
,,,,,,6630da66ecc00f81e26c343e,2024-05-13_12h00.56.895,group3.1-3.2-social-tom,2023.2.2,Win32,59.88023952,65c5074098b851296ff0b7ed,664237d5fda7424f1080615e,,,,,,,,,,,,,,,,,,,,,,,,,,,,,292.1245,1,audio/Narrative8Situation4.wav,295.135,,295.1351,309.3186,[],1,0,309.319,312.7068,82.29166667,2.016,"[{""rating"":82.29166666666667,""responseTime"":2.0160000000000196}]",space,2.8381,,312.7069,All the time,100,312.708,,,[],,0,4,4,4,1,audio/Narrative7Situation4.wav,audio/Narrative8Situation4.wav,audio/Narrative5Situation4.wav,audio/Narrative6Situation4.wav,3,3,1,2,,,,,,,,,,,,,,,,,,,,,,,,,,,,,,,,,,,,,,,
,,,,,,6630da66ecc00f81e26c343e,2024-05-13_12h00.56.895,group3.1-3.2-social-tom,2023.2.2,Win32,59.88023952,65c5074098b851296ff0b7ed,664237d5fda7424f1080615e,,,,,,,,,,,,,,,,,,,,,,,,,,,,,312.7081,1,audio/Narrative8Situation5.wav,314.7174,,314.7176,322.9495,"[[999,1],[999,82],[999,166],[999,248],[999,332],[999,421],[999,500],[999,582],[999,666],[999,749],[999,832],[999,921],[999,998],[999,1082],[999,1171],[999,1249],[999,1332],[999,1415],[999,1499],[999,1582],[999,1665],[999,1748],[999,1831],[999,1916],[999,1998],[999,2082],[999,2165],[999,2248],[999,2331],[999,2415],[999,2499],[999,2585],[999,2665],[999,2748],[999,2838],[999,2915],[999,2998],[999,3082],[999,3165],[999,3248],[999,3331],[999,3415],[999,3499],[999,3582],[999,3665],[999,3749],[999,3832],[999,3915],[999,3998],[999,4088],[999,4166],[999,4248],[999,4332],[999,4415],[999,4498],[999,4588],[999,4665],[999,4749],[999,4832],[999,4915],[999,4998],[999,5081],[999,5165],[999,5248],[999,5332],[999,5415],[999,5498],[999,5581],[999,5665],[999,5749],[999,5836],[999,5915],[999,6004],[999,6087],[999,6166],[999,6249],[999,6332],[999,6415],[999,6499],[999,6582],[999,6666],[999,6748],[999,6832],[999,6915],[999,7003],[999,7081],[999,7166],[999,7248],[999,7332],[999,7415],[999,7499],[999,7582],[999,7665],[999,7750],[999,7832],[999,7915],[999,7999],[999,8082],[999,8165]]",1,0,322.9498,326.0057,95.52083015,1.4316,"[{""rating"":95.52083015441895,""responseTime"":1.4316000000238773}]",space,2.5165,,326.0057,All the time,100,326.0068,,,[],,0,5,5,5,1,audio/Narrative7Situation5.wav,audio/Narrative8Situation5.wav,audio/Narrative5Situation5.wav,audio/Narrative6Situation5.wav,5,2,5,2,,,,,,,,,,,,,,,,,,,,,,,,,,,,,,,,,,,,,,,
,,,,,,6630da66ecc00f81e26c343e,2024-05-13_12h00.56.895,group3.1-3.2-social-tom,2023.2.2,Win32,59.88023952,65c5074098b851296ff0b7ed,664237d5fda7424f1080615e,,,,,,,,,,,,,,,,,,,,,,,,,,,,,326.007,1,audio/Narrative8Situation6.wav,328.0159,,328.016,334.4836,"[[999,1],[999,83],[999,166],[999,250],[999,333],[999,419],[999,500],[999,583],[999,666],[999,750],[999,833],[999,917],[999,999],[999,1083],[999,1166],[999,1250],[999,1333],[999,1421],[999,1504],[999,1583],[999,1667],[999,1750],[999,1833],[999,1917],[999,2000],[999,2083],[999,2166],[999,2250],[999,2333],[999,2416],[999,2500],[999,2583],[999,2666],[999,2750],[999,2833],[999,2922],[999,3000],[999,3083],[999,3166],[999,3250],[999,3333],[999,3417],[999,3500],[999,3583],[999,3667],[999,3755],[999,3833],[999,3917],[999,4000],[999,4083],[999,4166],[999,4254],[999,4333],[999,4416],[999,4499],[999,4582],[999,4666],[999,4750],[999,4833],[999,4917],[999,4999],[999,5084],[999,5166],[999,5250],[999,5338],[999,5416],[999,5499],[999,5587],[999,5666],[999,5750],[999,5834],[999,5916],[999,6001],[999,6082],[999,6166],[999,6250],[999,6333],[999,6416]]",1,0,334.4839,338.1717,16.56250159,1.7348,"[{""rating"":16.562501589457195,""responseTime"":1.7347999999523154}]",space,3.1399,,338.1718,All the time,100,338.1728,,,[],,0,6,6,6,1,audio/Narrative7Situation6.wav,audio/Narrative8Situation6.wav,audio/Narrative5Situation6.wav,audio/Narrative6Situation6.wav,3,2,3,2,,,,,,,,,,,,,,,,,,,,,,,,,,,,,,,,,,,,,,,
,,,,,,6630da66ecc00f81e26c343e,2024-05-13_12h00.56.895,group3.1-3.2-social-tom,2023.2.2,Win32,59.88023952,65c5074098b851296ff0b7ed,664237d5fda7424f1080615e,,,,,,,,,,,,,,,,,,,,,,,,,,,,,338.173,1,audio/Narrative8Situation7.wav,341.1822,,341.1823,353.2829,"[[999,1],[999,83],[999,172],[999,249],[999,333],[999,416],[999,505],[999,583],[999,666],[999,749],[999,832],[999,916],[999,999],[999,1083],[999,1166],[999,1250],[999,1333],[999,1416],[999,1500],[999,1583],[999,1666],[999,1750],[999,1833],[999,1916],[999,2004],[999,2083],[999,2166],[999,2249],[999,2333],[999,2416],[999,2505],[999,2583],[999,2666],[999,2750],[999,2833],[999,2916],[999,3000],[999,3088],[999,3166],[999,3249],[999,3333],[999,3416],[999,3500],[999,3583],[999,3666],[999,3749],[999,3833],[999,3916],[999,3999],[999,4088],[999,4167],[999,4249],[999,4333],[999,4417],[999,4499],[999,4583],[999,4666],[999,4754],[999,4832],[999,4916],[999,4999],[999,5083],[999,5166],[999,5249],[999,5333],[999,5416],[999,5499],[999,5589],[999,5666],[999,5749],[999,5833],[999,5922],[999,5999],[999,6083],[999,6166],[999,6249],[999,6333],[999,6421],[999,6505],[999,6583],[999,6666],[999,6750],[999,6832],[999,6916],[999,6999],[999,7089],[999,7166],[999,7250],[999,7332],[999,7416],[999,7500],[999,7589],[999,7671],[999,7749],[999,7833],[999,7916],[999,7999],[999,8083],[999,8170],[999,8249],[999,8333],[999,8416],[999,8500],[999,8583],[999,8666],[999,8750],[999,8832],[999,8916],[999,8999],[999,9083],[999,9166],[999,9249],[999,9338],[999,9421],[999,9506],[37.6,9590],[37.3,9666],[6.4,11588],[5.5,11672],[3.2,11750],[1.4,11832],[1.4,11916],[1.4,11999],[1.4,12082]]",1,0,353.2832,356.1484,3.020834923,1.3278,"[{""rating"":3.0208349227905273,""responseTime"":1.3277999999522763}]",space,2.3182,,356.1485,Half the time,50,356.152,,,[],,0,7,7,7,1,audio/Narrative7Situation7.wav,audio/Narrative8Situation7.wav,audio/Narrative5Situation7.wav,audio/Narrative6Situation7.wav,5,3,4,5,,,,,,,,,,,,,,,,,,,,,,,,,,,,,,,,,,,,,,,
,,,,,,6630da66ecc00f81e26c343e,2024-05-13_12h00.56.895,group3.1-3.2-social-tom,2023.2.2,Win32,59.88023952,65c5074098b851296ff0b7ed,664237d5fda7424f1080615e,,,,,,,,,,,,,,,,,,,,,,,,,,,,,356.1521,1,audio/Narrative8Situation8.wav,359.1651,,359.1652,372.0045,"[[999,8],[999,83],[999,166],[999,249],[999,332],[999,416],[999,499],[999,582],[999,666],[999,749],[999,832],[999,915],[999,999],[999,1083],[999,1166],[999,1250],[999,1338],[999,1416],[999,1500],[999,1583],[999,1666],[999,1754],[999,1832],[999,1916],[999,1999],[999,2082],[999,2166],[999,2249],[999,2332],[999,2420],[999,2499],[999,2583],[999,2666],[999,2749],[999,2832],[999,2921],[999,2999],[999,3086],[999,3166],[999,3249],[999,3332],[999,3416],[999,3499],[999,3582],[999,3666],[999,3749],[999,3833],[999,3915],[999,4006],[999,4082],[999,4172],[999,4249],[999,4333],[999,4416],[999,4499],[999,4582],[999,4666],[999,4749],[999,4833],[999,4916],[999,4999],[999,5082],[999,5166],[999,5249],[999,5336],[999,5416],[999,5499],[999,5582],[999,5666],[999,5749],[999,5832],[999,5920],[999,5999],[999,6087],[999,6171],[999,6249],[999,6337],[999,6416],[999,6499],[999,6582],[999,6672],[999,6749],[999,6832],[999,6919],[999,6999],[999,7082],[999,7165],[999,7249],[999,7332],[999,7416],[999,7499],[999,7582],[999,7666],[999,7749],[999,7832],[999,7916],[999,7999],[999,8082],[999,8166],[999,8249],[999,8332],[999,8416],[999,8499],[999,8582],[999,8665],[999,8749],[999,8832],[999,8916],[999,8999],[999,9082],[999,9166],[999,9249],[999,9332],[999,9416],[999,9499],[999,9582],[999,9666],[999,9749],[999,9832],[999,9916],[999,9999],[999,10087],[999,10172],[999,10249],[999,10332],[999,10415],[999,10498],[999,10583],[999,10666],[999,10752],[999,10832],[999,10915],[999,10999],[999,11082],[999,11166],[999,11255],[999,11332],[999,11416],[999,11499],[999,11582],[999,11666],[999,11750],[999,11838],[999,11921],[13.1,12504],[14.5,12588],[14.6,12672],[14.3,12754],[13.2,12839]]",1,0,372.0045,374.8983,20.10416985,1.5547,"[{""rating"":20.104169845581055,""responseTime"":1.5546999999284594}]",space,2.3388,,374.8987,Half the time,50,374.9011,,,[],,0,8,8,8,1,audio/Narrative7Situation8.wav,audio/Narrative8Situation8.wav,audio/Narrative5Situation8.wav,audio/Narrative6Situation8.wav,2,3,3,5,,,,,,,,,,,,,,,,,,,,,,,,,,,,,,,,,,,,,,,
,,,,,,6630da66ecc00f81e26c343e,2024-05-13_12h00.56.895,group3.1-3.2-social-tom,2023.2.2,Win32,59.88023952,65c5074098b851296ff0b7ed,664237d5fda7424f1080615e,,,,,,,,,,,,,,,,,,,,,,,,,,,,,374.9013,1,audio/Narrative8Situation9.wav,377.9146,,377.9147,389.2317,"[[999,7],[999,83],[999,166],[999,250],[999,332],[999,416],[999,499],[999,582],[999,666],[999,749],[999,832],[999,916],[999,998],[999,1082],[999,1171],[999,1249],[999,1333],[999,1416],[999,1504],[999,1582],[999,1671],[999,1749],[999,1833],[999,1916],[999,1999],[999,2082],[999,2165],[999,2249],[999,2332],[999,2415],[999,2499],[999,2588],[999,2666],[999,2749],[999,2832],[999,2916],[999,2999],[999,3082],[999,3166],[999,3249],[999,3332],[999,3416],[999,3504],[999,3583],[999,3666],[999,3754],[999,3832],[999,3916],[999,3999],[999,4082],[999,4170],[999,4249],[999,4332],[999,4415],[999,4498],[999,4582],[999,4666],[999,4749],[999,4837],[999,4916],[999,5004],[999,5082],[999,5165],[999,5249],[999,5332],[999,5416],[999,5498],[999,5585],[999,5665],[999,5749],[999,5832],[999,5916],[999,5999],[999,6083],[999,6165],[999,6249],[999,6332],[999,6416],[999,6499],[999,6582],[999,6670],[999,6749],[999,6838],[999,6916],[999,6999],[999,7082],[999,7171],[999,7248],[999,7332],[999,7415],[999,7499],[999,7582],[999,7666],[999,7749],[999,7832],[999,7916],[999,7999],[999,8088],[999,8165],[999,8249],[999,8332],[999,8415],[999,8498],[999,8588],[999,8670],[999,8754],[999,8838],[999,8921],[80.6,9004],[80.5,9088],[79.9,9172],[79.8,9255],[79.8,9333],[79.8,9421],[79.3,9500],[79.3,9588],[79.2,9670],[79.4,9749],[79.7,9833],[80.1,9922],[80.8,10005],[81.8,10082],[83.8,10173],[86.7,10248],[88.2,10338],[89.6,10420],[90.5,10505],[90.6,10582],[91,10666],[91,10754],[91,10832],[91,10915],[91,10999],[91,11082],[91,11165],[91,11253]]",1,0,389.2321,391.5192,90.93750318,1.0545,"[{""rating"":90.93750317891438,""responseTime"":1.0545000000000186}]",space,1.7255,,391.5193,All the time,100,391.5211,,,[],,0,9,9,9,1,audio/Narrative7Situation9.wav,audio/Narrative8Situation9.wav,audio/Narrative5Situation9.wav,audio/Narrative6Situation9.wav,2,3,3,4,,,,,,,,,,,,,,,,,,,,,,,,,,,,,,,,,,,,,,,
,,,,,,6630da66ecc00f81e26c343e,2024-05-13_12h00.56.895,group3.1-3.2-social-tom,2023.2.2,Win32,59.88023952,65c5074098b851296ff0b7ed,664237d5fda7424f1080615e,,,,,,,,,,,,,,,,,,,,,,,,,,,,,391.5212,1,audio/Narrative7Situation1.wav,393.5307,,393.5309,449.4281,"[[40.7,11843],[34.3,11915],[32.9,12004],[31.7,12088],[31,12165],[30.9,12254],[31.3,12337],[36.7,12421],[51.1,12505],[60.7,12587],[64.7,13171],[62.1,13254],[60.8,13338],[59.1,13422],[53.7,13504],[53.2,13587],[53.2,13665],[52.2,13748],[52.2,13832],[51.9,13921],[51.7,13998],[51.5,14082],[50.8,14170],[50.7,14254],[50.2,14338],[50.1,14414],[50.1,14498],[50.1,14587],[50.1,14665],[50.1,14748],[50.1,14832],[50.1,14916],[50.1,14998],[52.9,15088],[57.2,15171],[60.8,15251],[63.3,15338],[63.3,15415],[63.3,15498],[63.3,15587],[62.7,15671],[62.6,15748],[62.6,15831],[62.6,15915],[62.6,15998],[62.6,16082],[62.6,16164],[62.6,16248],[62.6,16337],[62.6,16415],[62.6,16498],[62.6,16581],[62.6,16667],[62.7,16754],[62.7,16832],[62.8,16920],[62.8,16998],[62.9,17084],[62.9,17170],[62.9,17248],[62.9,17331],[62.9,17415],[62.9,17498],[62.9,17587],[62.9,17665],[62.9,17748],[62.9,17831],[62.9,17916],[62.9,17998],[62.9,18081],[62.9,18165],[62.9,18253],[62.9,18331],[62.9,18420],[62.9,18501],[62.9,18581],[62.9,18665],[62.9,18750],[62.9,18837],[62.9,18915],[62.9,18999],[62.9,19081],[62.9,19164],[62.9,19248],[62.9,19331],[62.9,19419],[62.9,19504],[62.9,19581],[62.9,19665],[62.9,19753],[62.9,19837],[62.9,19915],[62.9,19998],[62.9,20081],[62.9,20165],[62.9,20248],[62.9,20331],[62.9,20420],[62.9,20497],[62.9,20582],[62.9,20665],[62.9,20748],[62.9,20832],[62.9,20915],[62.9,20998],[62.9,21082],[62.9,21165],[62.9,21248],[62.9,21332],[62.9,21415],[62.9,21498],[62.9,21581],[62.9,21665],[62.9,21748],[62.9,21831],[62.9,21914],[62.9,21998],[62.9,22087],[62.9,22165],[62.9,22251],[62.9,22331],[62.9,22415],[62.9,22502],[62.9,22581],[62.9,22665],[62.9,22748],[62.9,22831],[62.9,22914],[62.9,22998],[62.9,23081],[62.9,23165],[62.9,23248],[62.9,23336],[62.9,23415],[62.9,23498],[62.9,23581],[62.9,23665],[62.9,23748],[62.9,23831],[62.9,23915],[62.9,23998],[62.8,24087],[62.8,24165],[62.8,24248],[62.8,24337],[62.8,24420],[62.8,24498],[62.8,24582],[62.8,24665],[62.8,24748],[62.8,24837],[62.8,24914],[62.8,24997],[62.8,25081],[62.8,25170],[62.8,25248],[62.8,25331],[62.8,25420],[62.8,25499],[62.8,25581],[62.8,25665],[62.8,25748],[62.8,25831],[62.8,25920],[62.8,26003],[62.8,26081],[62.8,26164],[62.8,26248],[62.8,26336],[62.8,26414],[62.8,26504],[62.8,26581],[62.8,26664],[62.8,26748],[62.8,26832],[62.8,26914],[62.8,26998],[62.8,27081],[62.8,27165],[62.8,27253],[62.8,27337],[62.8,27415],[62.8,27503],[62.8,27586],[62.8,27670],[62.8,27748],[62.8,27837],[62.8,27914],[62.8,28003],[62.8,28081],[62.8,28167],[62.8,28253],[62.8,28330],[62.8,28415],[62.8,28497],[62.8,28581],[62.8,28664],[62.8,28748],[62.9,28831],[62.9,28915],[62.9,29003],[62.9,29081],[62.9,29165],[62.9,29248],[62.9,29331],[62.9,29414],[62.9,29506],[62.9,29580],[62.9,29664],[62.9,29747],[62.9,29831],[62.9,29914],[62.9,30000],[62.9,30087],[62.9,30164],[62.9,30253],[62.9,30331],[62.9,30414],[62.9,30497],[62.9,30584],[62.9,30664],[62.9,30747],[62.9,30831],[62.9,30919],[62.9,31003],[62.9,31086],[62.9,31164],[62.9,31248],[62.9,31331],[62.9,31414],[62.9,31503],[62.9,31581],[62.9,31669],[62.9,31748],[62.9,31831],[62.9,31914],[62.9,32003],[62.9,32081],[62.9,32164],[62.9,32248],[62.9,32336],[62.9,32414],[62.9,32498],[62.9,32581],[62.9,32664],[62.9,32747],[62.9,32831],[62.9,32917],[62.9,32997],[62.9,33081],[62.9,33164],[62.9,33247],[62.9,33330],[62.9,33415],[62.9,33504],[62.9,33581],[62.9,33665],[62.9,33748],[62.9,33831],[62.9,33919],[62.9,33998],[62.9,34081],[62.9,34164],[63.1,34253],[63.1,34330],[63.1,34418],[63.1,34503],[63.1,34581],[63.1,34664],[63.1,34748],[63.1,34830],[63.1,34914],[63.1,34997],[63.1,35081],[63.5,35171],[63.8,35248],[65.1,35337],[65.5,35414],[65.9,35503],[67.4,35580],[68.1,35670],[68.2,35752],[68.4,35830],[68.4,35919],[68.5,36002],[68.5,36086],[68.5,36164],[68.5,36248],[68.5,36331],[68.5,36417],[68.5,36498],[68.5,36586],[68.5,36667],[68.5,36748],[68.5,36831],[68.8,36920],[69,37003],[69.1,37081],[69.2,37164],[69.3,37250],[69.3,37331],[69.3,37413],[69.3,37497],[69.3,37581],[69.3,37664],[69.3,37747],[69.3,37830],[69.3,37914],[69.3,37997],[69.3,38086],[69.3,38170],[69.3,38248],[69.3,38331],[69.3,38414],[69.3,38497],[69.3,38581],[69.3,38664],[69.3,38748],[69.3,38830],[69.3,38913],[69.3,38997],[69.3,39086],[69.3,39164],[69.3,39248],[69.3,39330],[69.3,39414],[69.3,39497],[69.3,39581],[69.3,39664],[69.3,39747],[69.3,39836],[69.3,39914],[69.3,40003],[69.3,40081],[69.3,40164],[69.3,40247],[69.3,40330],[69.3,40414],[69.3,40497],[69.3,40585],[69.3,40664],[69.3,40747],[69.3,40831],[69.3,40919],[69.3,40997],[69.3,41081],[69.3,41165],[69.3,41247],[69.3,41331],[69.3,41414],[69.3,41497],[69.3,41581],[69.3,41664],[69.3,41747],[69.3,41830],[69.3,41914],[69.3,41997],[69.3,42080],[69.3,42164],[69.3,42247],[69.3,42330],[69.3,42414],[69.3,42497],[69.3,42580],[69.3,42664],[69.3,42747],[69.3,42836],[69.3,42914],[69.3,42997],[69.3,43080],[69.3,43164],[69.3,43252],[69.5,43342],[69.5,43414],[69.5,43497],[69.5,43580],[69.5,43669],[69.5,43747],[70,43836],[70.5,43916],[70.5,43997],[70.6,44086],[70.7,44168],[71.1,44254],[72.7,44336],[74.9,44420],[77,44504],[77.4,44580],[77.5,44669],[77.5,44752],[77.5,44830],[77.5,44914],[77.4,44998],[77.3,45086],[77.3,45163],[77.3,45247],[77.2,45331],[77.2,45414],[76.9,45497],[76.7,45586],[76.7,45664],[76.7,45747],[76.7,45830],[76.7,45914],[76.7,46003],[76.7,46080],[76.7,46164],[76.7,46247],[76.4,46336],[76.3,46415],[76.3,46497],[76.3,46585],[76.3,46669],[76.3,46746],[76.3,46830],[76.3,46915],[76.3,47004],[76.3,47081],[76.3,47170],[76.3,47253],[76.3,47331],[76.3,47420],[76.3,47497],[76.3,47580],[76.3,47664],[76.3,47753],[76.3,47830],[76.3,47916],[76.5,48003],[76.6,48080],[76.8,48164],[76.8,48246],[76.9,48330],[76.9,48415],[76.9,48497],[76.9,48580],[76.9,48664],[76.9,48747],[78.1,48836],[79.3,48919],[79.4,49002],[79.6,49086],[79.7,49163],[80.6,49253],[81.6,49337],[81.6,49414],[81.6,49497],[81.6,49581],[81.6,49669],[81.6,49746],[81.6,49830],[81.6,49918],[81.6,50002],[81.6,50080],[81.6,50163],[81.6,50246],[81.6,50330],[81.6,50414],[81.6,50496],[81.6,50580],[81.8,50670],[81.8,50746],[81.8,50831],[81.9,50919],[81.9,50996],[81.9,51080],[81.9,51163],[81.9,51247],[81.9,51335],[81.9,51418],[81.9,51496],[81.9,51585],[81.9,51663],[82,51753],[82.1,51830],[82.1,51915],[82.1,52002],[82.1,52086],[82.1,52163],[82.1,52247],[82.1,52330],[82.1,52413],[82.1,52496],[82.1,52580],[82.1,52663],[82.1,52747],[82.1,52830],[82.1,52914],[82.1,52997],[82.1,53086],[82.1,53163],[82.1,53246],[82.1,53334],[82.1,53414],[82.1,53497],[82.1,53585],[82.1,53663],[82.1,53746],[82.1,53831],[82.1,53918],[82.1,53996],[82.1,54080],[82.1,54163],[82.1,54246],[82,54335],[82,54413],[82,54497],[82,54580],[82,54663],[82,54746],[82,54836],[82,54919],[82,54997],[82,55085],[82,55163],[82,55246],[82,55330],[82,55414],[82,55496],[82,55580],[82,55663],[81.9,55746],[81.9,55833]]",1,0,449.4287,451.6789,81.4583381,0.7202,"[{""rating"":81.45833810170491,""responseTime"":0.7202000000476687}]",space,1.7005,,451.6791,All the time,100,451.681,,,[],,0,10,10,10,1,audio/Narrative8Situation1.wav,audio/Narrative7Situation1.wav,audio/Narrative6Situation1.wav,audio/Narrative5Situation1.wav,5,2,2,5,,,,,,,,,,,,,,,,,,,,,,,,,,,,,,,,,,,,,,,
,,,,,,6630da66ecc00f81e26c343e,2024-05-13_12h00.56.895,group3.1-3.2-social-tom,2023.2.2,Win32,59.88023952,65c5074098b851296ff0b7ed,664237d5fda7424f1080615e,,,,,,,,,,,,,,,,,,,,,,,,,,,,,451.6811,1,audio/Narrative7Situation2.wav,454.7004,,454.7005,462.1779,[],1,0,462.1783,467.9167,0.520833333,3.7692,"[{""rating"":0.5208333333333315,""responseTime"":3.7692000000477037}]",space,5.2007,,467.9167,Not at all,0,467.9188,,,[],,0,11,11,11,1,audio/Narrative8Situation2.wav,audio/Narrative7Situation2.wav,audio/Narrative6Situation2.wav,audio/Narrative5Situation2.wav,3,3,3,3,,,,,,,,,,,,,,,,,,,,,,,,,,,,,,,,,,,,,,,
,,,,,,6630da66ecc00f81e26c343e,2024-05-13_12h00.56.895,group3.1-3.2-social-tom,2023.2.2,Win32,59.88023952,65c5074098b851296ff0b7ed,664237d5fda7424f1080615e,,,,,,,,,,,,,,,,,,,,,,,,,,,,,467.9189,1,audio/Narrative7Situation3.wav,475.9274,,475.9275,485.1664,"[[999,7],[999,83],[999,165],[999,249],[999,332],[999,421],[999,500],[999,582],[999,665],[999,749],[999,832],[999,915],[999,999],[999,1083],[999,1165],[999,1249],[999,1332],[999,1415],[999,1498],[999,1582],[999,1671],[999,1749],[999,1833],[999,1921],[999,1999],[999,2083],[999,2168],[999,2248],[999,2332],[999,2415],[999,2499],[999,2582],[999,2666],[999,2754],[999,2838],[999,2921],[999,3003],[999,3088],[999,3165],[999,3254],[999,3332],[999,3420],[999,3499],[999,3587],[999,3665],[999,3748],[999,3833],[999,3916],[999,3999],[999,4082],[999,4171],[999,4249],[999,4332],[999,4416],[999,4499],[999,4582],[999,4671],[999,4749],[999,4838],[999,4915],[999,4998],[999,5086],[999,5165],[999,5249],[999,5331],[999,5415],[999,5499],[999,5582],[999,5666],[999,5748],[999,5832],[999,5915],[999,5999],[999,6082],[999,6166],[999,6249],[999,6332],[999,6415],[999,6499],[999,6582],[999,6665],[999,6755],[999,6832],[999,6916],[999,6999],[999,7082],[999,7165],[999,7248],[999,7332],[999,7419],[999,7499],[999,7582],[999,7670],[999,7748],[999,7832],[999,7921],[999,8004],[999,8082],[999,8171],[999,8248],[999,8334],[999,8421],[999,8504],[999,8588],[11.7,8672],[6.1,8755],[4.1,8838],[4.2,8921],[4.2,8999],[4.3,9088],[4,9172]]",1,0,485.1665,487.6426,2.187502384,1.0832,"[{""rating"":2.187502384185791,""responseTime"":1.0831999999284676}]",space,1.9201,,487.6427,Not at all,0,487.6459,,,[],,0,12,12,12,1,audio/Narrative8Situation3.wav,audio/Narrative7Situation3.wav,audio/Narrative6Situation3.wav,audio/Narrative5Situation3.wav,4,8,5,3,,,,,,,,,,,,,,,,,,,,,,,,,,,,,,,,,,,,,,,
,,,,,,6630da66ecc00f81e26c343e,2024-05-13_12h00.56.895,group3.1-3.2-social-tom,2023.2.2,Win32,59.88023952,65c5074098b851296ff0b7ed,664237d5fda7424f1080615e,,,,,,,,,,,,,,,,,,,,,,,,,,,,,487.6461,1,audio/Narrative7Situation4.wav,490.6594,,490.6594,502.3933,"[[999,0],[999,86],[999,166],[999,250],[999,333],[999,417],[999,500],[999,583],[999,666],[999,755],[999,839],[999,916],[999,1000],[999,1083],[999,1166],[999,1249],[999,1333],[999,1416],[999,1500],[999,1583],[999,1667],[999,1749],[999,1833],[999,1917],[999,2000],[999,2083],[999,2166],[999,2249],[999,2333],[999,2416],[999,2500],[999,2583],[999,2667],[999,2750],[999,2833],[999,2916],[999,3000],[999,3082],[999,3167],[999,3249],[999,3333],[999,3417],[999,3504],[999,3583],[999,3666],[999,3755],[999,3839],[999,3917],[999,4000],[999,4083],[999,4166],[999,4249],[999,4333],[999,4416],[999,4505],[999,4583],[999,4671],[999,4750],[999,4834],[999,4922],[999,5000],[999,5083],[999,5166],[999,5255],[999,5332],[999,5416],[999,5500],[999,5583],[999,5666],[999,5750],[999,5832],[999,5916],[999,5999],[999,6083],[999,6166],[999,6249],[999,6339],[999,6416],[999,6500],[999,6583],[999,6666],[999,6750],[999,6832],[999,6917],[999,6999],[999,7083],[999,7166],[999,7249],[999,7332],[999,7416],[999,7499],[999,7588],[999,7666],[999,7750],[999,7838],[999,7921],[999,7999],[999,8088],[999,8166],[999,8249],[999,8332],[999,8416],[999,8499],[999,8588],[999,8666],[999,8749],[999,8833],[999,8916],[999,9000],[999,9083],[999,9166],[999,9254],[999,9332],[999,9418],[999,9505],[999,9583],[999,9671],[999,9754],[999,9832],[999,9916],[999,9999],[999,10083],[999,10166],[999,10249],[999,10333],[999,10417],[999,10499],[999,10582],[999,10666],[999,10749],[999,10833],[999,10916],[999,10999],[999,11083],[999,11166],[999,11250],[999,11332],[999,11415],[999,11499],[999,11583],[999,11666]]",1,0,502.3937,506.3651,50.10416508,2.2687,"[{""rating"":50.10416507720947,""responseTime"":2.2687000000476587}]",space,3.4345,,506.3651,Not at all,0,506.3662,,,[],,0,13,13,13,1,audio/Narrative8Situation4.wav,audio/Narrative7Situation4.wav,audio/Narrative6Situation4.wav,audio/Narrative5Situation4.wav,3,3,2,1,,,,,,,,,,,,,,,,,,,,,,,,,,,,,,,,,,,,,,,
,,,,,,6630da66ecc00f81e26c343e,2024-05-13_12h00.56.895,group3.1-3.2-social-tom,2023.2.2,Win32,59.88023952,65c5074098b851296ff0b7ed,664237d5fda7424f1080615e,,,,,,,,,,,,,,,,,,,,,,,,,,,,,506.3663,1,audio/Narrative7Situation5.wav,511.3762,,511.3763,519.8977,"[[999,6],[999,82],[999,171],[999,249],[999,331],[999,415],[999,498],[999,582],[999,665],[999,749],[999,832],[999,921],[999,998],[999,1087],[999,1165],[999,1255],[999,1332],[999,1415],[999,1499],[999,1582],[999,1665],[999,1754],[999,1832],[999,1916],[999,1998],[999,2087],[999,2165],[999,2248],[999,2331],[999,2415],[999,2504],[999,2582],[999,2666],[999,2749],[999,2837],[999,2915],[999,2999],[999,3082],[999,3165],[999,3249],[999,3332],[999,3415],[999,3504],[999,3582],[999,3665],[999,3749],[999,3832],[999,3915],[999,3998],[999,4082],[999,4165],[999,4249],[999,4332],[999,4415],[999,4499],[999,4582],[999,4665],[999,4748],[999,4832],[999,4915],[999,4998],[999,5082],[999,5165],[999,5248],[999,5337],[999,5415],[999,5499],[999,5582],[999,5665],[999,5749],[999,5831],[999,5915],[999,6001],[999,6081],[999,6165],[999,6249],[999,6332],[999,6415],[999,6499],[999,6582],[999,6665],[999,6748],[999,6837],[999,6921],[999,6998],[999,7081],[999,7171],[999,7249],[999,7331],[999,7420],[999,7498],[999,7582],[999,7665],[999,7749],[999,7832],[999,7915],[999,7998],[999,8082],[999,8165],[999,8248],[999,8336],[999,8415],[999,8498]]",1,0,519.8977,522.8756,11.24999921,1.4045,"[{""rating"":11.249999205271404,""responseTime"":1.4044999999999845}]",space,2.4178,,522.8758,All the time,100,522.879,,,[],,0,14,14,14,1,audio/Narrative8Situation5.wav,audio/Narrative7Situation5.wav,audio/Narrative6Situation5.wav,audio/Narrative5Situation5.wav,2,5,2,5,,,,,,,,,,,,,,,,,,,,,,,,,,,,,,,,,,,,,,,
,,,,,,6630da66ecc00f81e26c343e,2024-05-13_12h00.56.895,group3.1-3.2-social-tom,2023.2.2,Win32,59.88023952,65c5074098b851296ff0b7ed,664237d5fda7424f1080615e,,,,,,,,,,,,,,,,,,,,,,,,,,,,,522.8791,1,audio/Narrative7Situation6.wav,525.8912,,525.8914,535.864,"[[999,1],[999,83],[999,166],[999,249],[999,339],[999,416],[999,500],[999,583],[999,666],[999,750],[999,833],[999,917],[999,1000],[999,1083],[999,1166],[999,1249],[999,1333],[999,1421],[999,1500],[999,1582],[999,1667],[999,1749],[999,1836],[999,1916],[999,1999],[999,2083],[999,2166],[999,2249],[999,2333],[999,2417],[999,2505],[999,2589],[999,2666],[999,2750],[999,2833],[999,2916],[999,3000],[999,3083],[999,3166],[999,3250],[999,3332],[999,3421],[999,3499],[999,3583],[999,3666],[999,3749],[999,3837],[999,3916],[999,4000],[999,4083],[999,4166],[999,4255],[999,4333],[999,4416],[999,4500],[999,4583],[999,4666],[999,4750],[999,4832],[999,4916],[999,5000],[999,5088],[999,5166],[999,5249],[999,5333],[999,5416],[999,5499],[999,5583],[999,5666],[999,5749],[999,5833],[999,5916],[999,6000],[999,6082],[999,6166],[999,6250],[999,6332],[999,6416],[999,6499],[999,6583],[999,6666],[999,6749],[999,6833],[999,6915],[999,7005],[999,7088],[999,7166],[999,7249],[999,7332],[999,7416],[999,7500],[999,7588],[999,7666],[999,7749],[999,7833],[999,7915],[999,7999],[999,8088],[999,8166],[999,8255],[999,8332],[999,8416],[999,8504],[999,8583],[999,8666],[999,8750],[999,8833],[999,8915],[999,8999],[999,9083],[999,9166],[999,9250],[999,9333],[999,9421],[999,9499],[999,9582],[19.6,9672],[45.4,9755],[60.4,9921]]",1,0,535.864,538.0416,72.29166826,0.8575,"[{""rating"":72.29166825612387,""responseTime"":0.8574999999999591}]",space,1.6394,,538.0418,Half the time,50,538.0447,,,[],,0,15,15,15,1,audio/Narrative8Situation6.wav,audio/Narrative7Situation6.wav,audio/Narrative6Situation6.wav,audio/Narrative5Situation6.wav,2,3,2,3,,,,,,,,,,,,,,,,,,,,,,,,,,,,,,,,,,,,,,,
,,,,,,6630da66ecc00f81e26c343e,2024-05-13_12h00.56.895,group3.1-3.2-social-tom,2023.2.2,Win32,59.88023952,65c5074098b851296ff0b7ed,664237d5fda7424f1080615e,,,,,,,,,,,,,,,,,,,,,,,,,,,,,538.0448,1,audio/Narrative7Situation7.wav,543.0492,,543.0493,560.2295,"[[999,13],[999,91],[999,180],[999,264],[999,341],[999,430],[999,514],[999,597],[999,674],[999,757],[999,841],[999,924],[999,1013],[999,1096],[999,1181],[999,1264],[999,1341],[999,1424],[999,1508],[999,1591],[999,1674],[999,1758],[999,1841],[999,1925],[999,2007],[999,2090],[999,2174],[999,2257],[999,2341],[999,2424],[999,2507],[999,2591],[999,2674],[999,2757],[999,2847],[999,2924],[999,3008],[999,3096],[999,3175],[999,3257],[999,3341],[999,3425],[999,3508],[999,3591],[999,3674],[999,3757],[999,3841],[999,3924],[999,4012],[999,4091],[999,4174],[999,4257],[999,4340],[999,4424],[999,4508],[999,4591],[999,4674],[999,4758],[999,4841],[999,4924],[999,5008],[999,5091],[999,5175],[999,5258],[999,5341],[999,5424],[999,5513],[999,5590],[999,5674],[999,5757],[999,5847],[999,5929],[999,6012],[79.1,6097],[79.4,6180],[79.5,6263],[79.5,6341],[80.6,6424],[81.5,6509],[81.5,6591],[81.6,6679],[81.6,6757],[82,7097],[82.2,7180],[82.3,7258],[82.3,7343],[82.3,7424],[84.3,7514],[85.1,7592],[86.3,7680],[86.5,7758],[87,7847],[87.2,7930],[87.2,8007],[88.4,8096],[88.7,8180],[89,8264],[89,8346],[89,8424],[89.2,8507],[89.2,8590],[89.2,8679],[89.2,8757],[89.2,8841],[89.2,8924],[89.2,9007],[89.2,9091],[89.2,9174],[89.2,9257],[89,9346],[89,9424],[89,9507],[89,9596],[89,9674],[89,9763],[89,9841],[89,9930],[89,10007],[89,10091],[89,10174],[89,10257],[89,10346],[89,10427],[89,10507],[89,10591],[89,10673],[89,10758],[89,10846],[89,10925],[89,11008],[89,11091],[89,11173],[89,11257],[89,11341],[89,11424],[88.9,11513],[88.9,11590],[88.9,11678],[88.9,11757],[88.7,11845],[88.7,11924],[88.7,12007],[88.7,12090],[88.7,12174],[88.7,12257],[88.7,12340],[88.7,12424],[88.7,12508],[88.7,12591],[88.7,12678],[88.7,12757],[88.7,12846],[88.7,12924],[88.7,13008],[88.7,13090],[88.7,13180],[88.7,13257],[88.7,13346],[88.7,13423],[88.7,13507],[88.7,13591],[88.7,13679],[88.7,13758],[88.7,13846],[88.7,13924],[88.7,14008],[88.7,14090],[88.7,14174],[88.7,14262],[88.7,14340],[88.7,14423],[88.7,14513],[88.7,14590],[88.6,14674],[88.6,14757],[88.6,14840],[88.6,14923],[88.6,15012],[88.6,15090],[88.6,15179],[88.6,15257],[88.6,15346],[88.6,15427],[88.6,15508],[88.6,15590],[88.6,15679],[88.6,15762],[88.6,15841],[88.6,15929],[88.6,16007],[88.6,16091],[88.6,16174],[88.6,16258],[88.6,16341],[88.6,16424],[84.8,16507],[84.3,16590],[83.5,16679],[83.5,16757],[83.9,16845],[83.9,16930],[83.9,17007],[83.9,17096],[83.9,17179]]",1,0,560.2296,562.1563,83.95833969,0.3638,"[{""rating"":83.95833969116211,""responseTime"":0.36380000007159197}]",space,1.3866,,562.1563,All the time,100,562.1608,,,[],,0,16,16,16,1,audio/Narrative8Situation7.wav,audio/Narrative7Situation7.wav,audio/Narrative6Situation7.wav,audio/Narrative5Situation7.wav,3,5,5,4,,,,,,,,,,,,,,,,,,,,,,,,,,,,,,,,,,,,,,,
,,,,,,6630da66ecc00f81e26c343e,2024-05-13_12h00.56.895,group3.1-3.2-social-tom,2023.2.2,Win32,59.88023952,65c5074098b851296ff0b7ed,664237d5fda7424f1080615e,,,,,,,,,,,,,,,,,,,,,,,,,,,,,562.161,1,audio/Narrative7Situation8.wav,564.1743,,564.1744,574.2233,"[[999,1],[999,82],[999,164],[999,249],[999,331],[999,415],[999,498],[999,581],[999,665],[999,749],[999,831],[999,915],[999,998],[999,1082],[999,1165],[999,1248],[999,1331],[999,1420],[999,1498],[999,1587],[999,1665],[999,1749],[999,1832],[999,1915],[999,2003],[999,2081],[999,2165],[999,2254],[999,2336],[999,2414],[999,2498],[999,2581],[999,2665],[999,2748],[999,2832],[999,2920],[999,3004],[999,3082],[999,3165],[999,3248],[999,3331],[999,3415],[999,3498],[999,3581],[999,3665],[999,3748],[999,3831],[999,3915],[999,3998],[999,4081],[999,4164],[999,4248],[999,4331],[999,4415],[999,4499],[999,4582],[999,4665],[999,4753],[999,4831],[999,4915],[999,4998],[999,5085],[999,5165],[999,5248],[999,5332],[999,5420],[999,5498],[999,5581],[999,5665],[999,5748],[999,5831],[999,5914],[999,5997],[999,6081],[999,6165],[999,6248],[999,6339],[999,6414],[999,6499],[999,6581],[999,6670],[999,6749],[999,6832],[999,6914],[999,6998],[999,7082],[999,7165],[999,7248],[999,7332],[999,7415],[999,7498],[999,7581],[999,7664],[999,7752],[999,7834],[999,7921],[999,7998],[999,8082],[999,8165],[999,8254],[999,8331],[999,8415],[999,8498],[999,8581],[999,8664],[999,8748],[999,8831],[999,8915],[999,9004],[999,9081],[999,9165],[999,9248],[999,9331],[999,9414],[999,9503],[999,9582],[999,9670],[999,9748],[999,9832],[999,9915],[999,9999]]",1,0,574.2239,579.2618,11.14583413,3.5818,"[{""rating"":11.145834128061932,""responseTime"":3.581800000071553}]",space,4.4841,,579.2619,All the time,100,579.2632,,,[],,0,17,17,17,1,audio/Narrative8Situation8.wav,audio/Narrative7Situation8.wav,audio/Narrative6Situation8.wav,audio/Narrative5Situation8.wav,3,2,5,3,,,,,,,,,,,,,,,,,,,,,,,,,,,,,,,,,,,,,,,
,,,,,,6630da66ecc00f81e26c343e,2024-05-13_12h00.56.895,group3.1-3.2-social-tom,2023.2.2,Win32,59.88023952,65c5074098b851296ff0b7ed,664237d5fda7424f1080615e,,,,,,,,,,,,,,,,,,,,,,,,,,,,,579.2633,1,audio/Narrative7Situation9.wav,581.2727,,581.2729,589.9391,"[[999,0],[999,83],[999,171],[999,249],[999,333],[999,416],[999,500],[999,582],[999,665],[999,749],[999,833],[999,916],[999,1005],[999,1082],[999,1172],[999,1249],[999,1333],[999,1416],[999,1499],[999,1582],[999,1671],[999,1749],[999,1832],[999,1920],[999,1999],[999,2083],[999,2172],[999,2249],[999,2332],[999,2416],[999,2499],[999,2583],[999,2666],[999,2752],[999,2832],[999,2916],[999,2999],[999,3083],[999,3166],[999,3249],[999,3332],[999,3416],[999,3499],[999,3582],[999,3671],[999,3756],[999,3833],[999,3916],[999,3999],[999,4083],[999,4169],[999,4249],[999,4332],[999,4416],[999,4500],[999,4588],[999,4669],[999,4749],[999,4832],[999,4916],[999,4999],[999,5082],[999,5166],[999,5249],[999,5332],[999,5416],[999,5499],[999,5587],[999,5665],[999,5749],[999,5832],[999,5916],[999,6004],[999,6082],[999,6166],[999,6249],[999,6332],[999,6421],[999,6499],[999,6583],[999,6671],[999,6748],[999,6838],[999,6915],[999,7004],[999,7085],[999,7165],[999,7249],[999,7332],[999,7415],[999,7499],[999,7582],[999,7666],[999,7748],[999,7832],[999,7915],[999,8000],[999,8088],[999,8166],[999,8249],[999,8332],[999,8415],[999,8499],[999,8587],[999,8665]]",1,0,589.9394,592.206,17.60416826,1.1007,"[{""rating"":17.60416825612386,""responseTime"":1.1006999999284517}]",space,1.7266,,592.2061,Half the time,50,601.0414,49.58333174,5.7706,"[{""rating"":49.583331743876144,""responseTime"":5.770600000023819}]",space,0,18,18,18,1,audio/Narrative8Situation9.wav,audio/Narrative7Situation9.wav,audio/Narrative6Situation9.wav,audio/Narrative5Situation9.wav,3,2,4,3,,,8.3008,,,,,,,,,,,,,,,,,,,,,,,,,,,,,,,,,,,,
,,,,,,6630da66ecc00f81e26c343e,2024-05-13_12h00.56.895,group3.1-3.2-social-tom,2023.2.2,Win32,59.88023952,65c5074098b851296ff0b7ed,664237d5fda7424f1080615e,,,,,,,,,,,,,,,,,,,,,,,,,,,620.6066,623.1874,623.1963,2,audio/Narrative13Situation2.wav,623.1963,,623.1963,652.9418,"[[999,0],[999,80],[999,157],[999,246],[999,324],[999,407],[999,496],[999,574],[999,657],[999,741],[999,824],[999,908],[999,997],[999,1080],[999,1158],[999,1240],[999,1324],[999,1407],[999,1491],[999,1580],[999,1657],[999,1741],[999,1823],[999,1907],[999,1991],[999,2079],[999,2158],[999,2240],[999,2323],[999,2407],[999,2491],[999,2573],[999,2663],[999,2741],[999,2824],[999,2908],[999,2990],[999,3074],[999,3157],[999,3243],[999,3325],[999,3407],[999,3491],[999,3573],[999,3662],[999,3740],[999,3823],[999,3907],[999,3990],[999,4074],[999,4157],[999,4240],[999,4329],[999,4407],[999,4491],[999,4574],[999,4657],[999,4741],[999,4824],[999,4907],[999,4990],[999,5073],[999,5157],[999,5240],[999,5324],[999,5407],[999,5490],[999,5573],[999,5658],[999,5740],[999,5830],[999,5907],[999,5990],[999,6074],[999,6157],[999,6241],[999,6324],[999,6413],[999,6490],[52.6,6575],[57.5,6663],[58.6,6741],[63.3,6830],[70.2,6914],[77.1,6996],[87.3,7079],[88.9,7163],[88.9,7240],[87.7,7324],[85.7,7413],[80.9,7497],[78.3,7581],[77.8,7657],[77.8,7746],[79,7825],[79.7,7913],[79.9,7990],[79.9,8074],[79.9,8157],[79.9,8240],[79.9,8324],[79.9,8407],[79.9,8490],[79.9,8579],[79.9,8662],[79.9,8740],[79.9,8829],[79.9,8907],[79.9,8990],[79.9,9074],[79.9,9157],[79.9,9240],[79.9,9324],[79.9,9407],[79.9,9490],[79.9,9574],[79.9,9657],[79.9,9740],[79.9,9824],[79.9,9910],[79.9,9990],[79.9,10074],[79.9,10157],[79.9,10240],[79.9,10324],[79.9,10407],[79.9,10490],[79.9,10574],[79.9,10657],[79.9,10740],[79.9,10823],[79.9,10910],[79.9,10990],[79.9,11074],[79.9,11157],[79.9,11240],[79.9,11324],[79.9,11407],[79.9,11490],[79.9,11575],[79.9,11663],[79.9,11740],[79.9,11824],[79.9,11907],[79.9,11990],[79.9,12078],[79.9,12163],[79.9,12240],[79.9,12326],[79.9,12413],[79.9,12491],[79.9,12574],[79.9,12660],[79.9,12741],[79.9,12829],[79.9,12907],[79.9,12990],[79.9,13073],[79.9,13157],[79.9,13240],[79.9,13323],[79.9,13413],[76.3,13497],[68.5,13573],[53.9,13830],[52.9,13913],[51.5,13996],[51.3,14074],[51.3,14157],[50.9,14241],[50.9,14323],[50.6,14413],[50.6,14490],[50.6,14574],[50.6,14662],[50.6,14740],[50.6,14825],[52.8,14913],[52.8,14990],[51.5,15073],[50.6,15162],[50.2,15240],[49.7,15328],[49.6,15411],[49.6,15490],[49.8,15579],[49.9,15657],[49.9,15741],[49.9,15824],[49.9,15906],[50,15995],[50,16073],[50,16163],[50,16240],[50,16328],[50,16412],[50,16490],[50,16573],[50,16662],[50,16740],[50,16824],[50,16907],[50,16990],[50,17074],[50,17163],[50,17247],[50,17324],[50,17406],[50,17490],[50,17579],[50,17656],[50,17740],[50,17823],[50,17912],[50,17991],[50,18073],[50,18157],[50,18240],[50,18323],[50,18406],[50,18496],[50,18573],[50,18657],[50,18741],[50,18824],[50,18906],[50,18991],[50,19073],[50,19163],[50,19239],[50,19329],[50,19407],[50,19491],[50,19573],[50,19657],[50,19743],[50,19823],[50,19913],[50,19990],[50,20073],[50,20157],[50,20241],[50,20323],[50,20411],[50,20490],[50,20573],[50,20661],[50,20740],[50,20826],[50,20906],[50,20995],[50,21073],[50,21157],[50,21241],[50,21324],[50,21407],[50,21490],[50,21573],[50,21657],[50,21740],[50,21823],[50,21907],[50,21991],[50,22073],[50,22157],[50,22240],[50,22323],[50,22412],[50,22490],[50,22573],[50,22656],[50,22745],[50,22823],[50,22909],[50,22990],[50,23074],[50,23156],[50,23240],[50,23323],[50,23412],[50,23489],[50,23576],[50,23660],[50,23739],[50,23829],[50,23906],[50,23990],[50,24073],[50,24157],[50,24240],[50,24323],[50,24406],[50,24489],[50,24573],[50,24656],[50,24740],[50,24828],[50,24906],[50,24989],[50,25073],[50,25157],[50,25239],[50,25323],[50,25412],[50,25490],[50,25573],[50,25661],[50,25740],[50,25823],[50,25909],[50,25990],[50,26078],[50,26161],[50,26240],[50,26323],[50,26407],[50,26495],[50,26573],[50,26662],[50,26739],[50,26823],[50,26906],[50,26989],[50,27073],[50,27156],[50,27243],[50,27323],[50,27406],[50,27490],[50,27577],[50,27656],[50,27740],[50,27823],[50,27906],[50,27990],[50,28072],[50,28156],[50,28240],[50,28323],[50,28406],[50,28490],[50,28573],[50,28661],[50,28745],[50,28823],[50,28907],[50,28990],[50,29073],[50,29157],[50,29239],[50,29323],[50,29409],[50,29489],[50,29573],[50,29656],[50,29745]]",1,0,652.9419,652.95,,,[],,,,652.9501,Not at all,0,652.9511,,,[],,0,0,0,0,1,audio/Narrative13Situation2.wav,audio/Narrative13Situation2.wav,audio/Narrative13Situation2.wav,audio/Narrative13Situation2.wav,2,2,2,2,,,,,601.0469,620.6062,space,19.0331,,,,,,,,,,,,,,,,,,,,,,,,,,,,,,,
,,,,,,6630da66ecc00f81e26c343e,2024-05-13_12h00.56.895,group3.1-3.2-social-tom,2023.2.2,Win32,59.88023952,65c5074098b851296ff0b7ed,664237d5fda7424f1080615e,,,,,,,,,,,,,,,,,,,,,,,,,,,,,652.9512,2,audio/Narrative6Situation1.wav,654.9536,,654.9538,681.5356,"[[55.3,23754],[64.8,23837],[69.2,24671],[68.9,24748],[68.9,24831],[68.4,24914],[68.4,24997],[68.4,25081],[66.8,25170],[66.8,25247],[66.8,25331],[66.8,25414],[66.8,25497],[66.8,25581],[66.7,25664],[66.7,25747],[66.7,25831],[66.8,25920],[66.8,25998],[67,26081],[67,26164],[67,26247],[67,26331],[67,26414],[67,26497],[67,26581]]",1,0,681.5359,684.124,66.35417144,1.3061,"[{""rating"":66.35417143503824,""responseTime"":1.3061000000237755}]",space,2.0369,,684.124,Not at all,0,684.125,,,[],,0,1,1,1,1,audio/Narrative7Situation1.wav,audio/Narrative8Situation1.wav,audio/Narrative5Situation1.wav,audio/Narrative6Situation1.wav,2,5,5,2,,,,,,,,,,,,,,,,,,,,,,,,,,,,,,,,,,,,,,,
,,,,,,6630da66ecc00f81e26c343e,2024-05-13_12h00.56.895,group3.1-3.2-social-tom,2023.2.2,Win32,59.88023952,65c5074098b851296ff0b7ed,664237d5fda7424f1080615e,,,,,,,,,,,,,,,,,,,,,,,,,,,,,684.1251,2,audio/Narrative6Situation2.wav,687.1353,,687.1355,715.6349,"[[65.6,22760],[60.9,22832],[51.6,22921],[25.4,23165],[18.2,23254],[15.4,23336],[14.8,23415],[15.2,23498],[17.7,23587],[19.8,23670],[22.5,23754],[29.3,23837],[35.9,23920],[43.5,24005],[47,24087],[48.4,24170],[49.5,24253],[49.9,24331],[50,24415],[50,24503],[50,24582],[50,24664],[50,24754],[50,24831],[50,24914],[50,24997],[50,25086],[50,25165],[50,25248],[50,25331],[50,25414],[49.7,25504],[49.3,25587],[49.3,25670],[49.3,25748],[49.3,25831],[49.3,25920],[49.3,25998],[49.2,26081],[49.2,26165],[49.1,26253],[49.1,26331],[49.1,26415],[49.1,26504],[49.1,26581],[49.1,26670],[49.1,26748],[49.1,26831],[49.1,26920],[49.1,27004],[49.1,27081],[49.1,27170],[49.1,27248],[49.1,27332],[49.1,27415],[49.1,27498],[49.1,27587],[49.1,27665],[49.1,27753],[49.1,27831],[49.1,27918],[49.1,27998],[49.1,28081],[49.1,28165],[49.1,28247],[49.1,28335],[49.1,28414],[49.1,28498]]",1,0,715.6354,718.5678,28.3333381,1.4276,"[{""rating"":28.333338101704918,""responseTime"":1.4276000000237445}]",space,2.3877,,718.5681,All the time,100,718.5706,,,[],,0,2,2,2,1,audio/Narrative7Situation2.wav,audio/Narrative8Situation2.wav,audio/Narrative5Situation2.wav,audio/Narrative6Situation2.wav,3,3,3,3,,,,,,,,,,,,,,,,,,,,,,,,,,,,,,,,,,,,,,,
,,,,,,6630da66ecc00f81e26c343e,2024-05-13_12h00.56.895,group3.1-3.2-social-tom,2023.2.2,Win32,59.88023952,65c5074098b851296ff0b7ed,664237d5fda7424f1080615e,,,,,,,,,,,,,,,,,,,,,,,,,,,,,718.5708,2,audio/Narrative6Situation3.wav,723.5828,,723.5829,736.2002,"[[999,6],[999,83],[999,166],[999,249],[999,333],[999,416],[999,500],[999,584],[999,666],[999,749],[999,833],[999,917],[999,1000],[999,1083],[999,1166],[999,1250],[999,1333],[999,1416],[999,1506],[999,1583],[999,1667],[999,1750],[999,1833],[999,1916],[999,2000],[999,2089],[999,2166],[999,2256],[999,2333],[999,2416],[999,2499],[999,2583],[999,2667],[999,2750],[999,2834],[999,2917],[999,3000],[999,3083],[999,3166],[999,3249],[999,3333],[999,3416],[999,3506],[999,3583],[999,3667],[999,3750],[999,3833],[999,3916],[999,4005],[999,4083],[999,4166],[999,4250],[999,4333],[999,4416],[999,4500],[999,4584],[999,4667],[999,4750],[999,4833],[999,4916],[999,5000],[999,5089],[999,5166],[999,5250],[999,5333],[999,5416],[999,5500],[999,5584],[999,5670],[999,5750],[999,5833],[999,5917],[999,6000],[999,6083],[999,6166],[999,6250],[999,6333],[999,6416],[999,6499],[999,6587],[999,6667],[999,6749],[999,6839],[999,6916],[999,6999],[999,7083],[999,7166],[999,7249],[999,7333],[999,7416],[999,7499],[999,7583],[999,7666],[999,7749],[999,7833],[999,7916],[999,7999],[999,8083],[999,8173],[999,8249],[999,8333],[999,8422],[999,8499],[999,8582],[999,8666],[999,8755],[999,8832],[999,8917],[999,9000],[999,9083],[999,9166],[999,9249],[999,9338],[999,9416],[999,9500],[999,9583],[999,9666],[999,9755],[999,9833],[999,9916],[999,10000],[999,10088],[999,10166],[999,10250],[999,10337],[999,10416],[999,10499],[999,10583],[999,10667],[999,10750],[999,10833],[999,10919],[999,10999],[999,11086],[999,11166],[999,11255],[999,11336],[999,11416],[999,11500],[999,11584],[999,11666],[999,11749],[999,11833],[999,11916],[999,11999],[999,12083],[999,12166],[999,12250],[999,12333],[999,12415],[999,12499],[999,12583]]",1,0,736.2005,739.0882,73.33333492,1.6325,"[{""rating"":73.33333492279053,""responseTime"":1.63250000000005}]",space,2.3344,,739.0882,All the time,100,739.0892,,,[],,0,3,3,3,1,audio/Narrative7Situation3.wav,audio/Narrative8Situation3.wav,audio/Narrative5Situation3.wav,audio/Narrative6Situation3.wav,8,4,3,5,,,,,,,,,,,,,,,,,,,,,,,,,,,,,,,,,,,,,,,
,,,,,,6630da66ecc00f81e26c343e,2024-05-13_12h00.56.895,group3.1-3.2-social-tom,2023.2.2,Win32,59.88023952,65c5074098b851296ff0b7ed,664237d5fda7424f1080615e,,,,,,,,,,,,,,,,,,,,,,,,,,,,,739.0894,2,audio/Narrative6Situation4.wav,741.0998,,741.1,753.7162,[],1,0,753.7166,757.6717,57.39583174,2.5588,"[{""rating"":57.39583174387614,""responseTime"":2.5587999999523845}]",space,3.3939,,757.6718,Not at all,0,757.6736,,,[],,0,4,4,4,1,audio/Narrative7Situation4.wav,audio/Narrative8Situation4.wav,audio/Narrative5Situation4.wav,audio/Narrative6Situation4.wav,3,3,1,2,,,,,,,,,,,,,,,,,,,,,,,,,,,,,,,,,,,,,,,
,,,,,,6630da66ecc00f81e26c343e,2024-05-13_12h00.56.895,group3.1-3.2-social-tom,2023.2.2,Win32,59.88023952,65c5074098b851296ff0b7ed,664237d5fda7424f1080615e,,,,,,,,,,,,,,,,,,,,,,,,,,,,,757.6737,2,audio/Narrative6Situation5.wav,759.6819,,759.682,767.6373,"[[999,1],[999,83],[999,166],[999,249],[999,332],[999,416],[999,500],[999,583],[999,666],[999,750],[999,833],[999,916],[999,999],[999,1088],[999,1166],[999,1249],[999,1332],[999,1422],[999,1499],[999,1583],[999,1665],[999,1752],[999,1832],[999,1916],[999,2000],[999,2082],[999,2169],[999,2250],[999,2332],[999,2416],[999,2499],[999,2582],[999,2666],[999,2755],[999,2838],[999,2916],[999,2999],[999,3083],[999,3166],[999,3249],[999,3332],[999,3416],[999,3499],[999,3582],[999,3666],[999,3749],[999,3833],[999,3916],[999,4000],[999,4083],[999,4172],[999,4252],[999,4333],[999,4416],[999,4499],[999,4583],[999,4666],[999,4754],[999,4832],[999,4915],[999,4999],[999,5082],[999,5166],[999,5249],[999,5333],[999,5416],[999,5499],[999,5583],[999,5666],[999,5755],[999,5832],[999,5916],[999,5999],[999,6082],[999,6166],[999,6249],[999,6332],[999,6416],[999,6504],[999,6583],[999,6666],[999,6749],[999,6833],[999,6915],[999,6999],[999,7087],[999,7165],[999,7249],[999,7338],[999,7416],[999,7500],[999,7582],[999,7666],[999,7750],[999,7832],[999,7916]]",1,0,767.6374,770.398,79.58333492,1.8438,"[{""rating"":79.58333492279053,""responseTime"":1.8438000000716102}]",space,2.2316,,770.3982,Half the time,50,770.4012,,,[],,0,5,5,5,1,audio/Narrative7Situation5.wav,audio/Narrative8Situation5.wav,audio/Narrative5Situation5.wav,audio/Narrative6Situation5.wav,5,2,5,2,,,,,,,,,,,,,,,,,,,,,,,,,,,,,,,,,,,,,,,
,,,,,,6630da66ecc00f81e26c343e,2024-05-13_12h00.56.895,group3.1-3.2-social-tom,2023.2.2,Win32,59.88023952,65c5074098b851296ff0b7ed,664237d5fda7424f1080615e,,,,,,,,,,,,,,,,,,,,,,,,,,,,,770.4014,2,audio/Narrative6Situation6.wav,772.415,,772.4152,783.5041,"[[77.4,10840],[68.6,10921],[62.2,11005],[44.1,11088]]",1,0,783.5042,785.5313,17.50000318,1.051,"[{""rating"":17.500003178914387,""responseTime"":1.0510000000000446}]",space,1.4773,,785.5315,Half the time,50,785.5336,,,[],,0,6,6,6,1,audio/Narrative7Situation6.wav,audio/Narrative8Situation6.wav,audio/Narrative5Situation6.wav,audio/Narrative6Situation6.wav,3,2,3,2,,,,,,,,,,,,,,,,,,,,,,,,,,,,,,,,,,,,,,,
,,,,,,6630da66ecc00f81e26c343e,2024-05-13_12h00.56.895,group3.1-3.2-social-tom,2023.2.2,Win32,59.88023952,65c5074098b851296ff0b7ed,664237d5fda7424f1080615e,,,,,,,,,,,,,,,,,,,,,,,,,,,,,785.5337,2,audio/Narrative6Situation7.wav,790.5479,,790.548,815.416,"[[25.7,18087],[24.6,18170],[21.7,18254],[18.1,18337],[16.9,18421],[14.4,18498],[14.4,18581],[14.8,18671],[16.1,18754],[16.4,18831],[17.7,18921],[27.1,19004],[59.3,19337],[72.8,19415],[79,19503],[79,19587],[78.5,19664],[78,19754],[75.8,19837],[73.1,19921],[72.7,19998],[72.7,20081],[72.7,20165],[72.7,20253],[73.1,20338],[73.1,20420],[73.1,20498],[73.1,20581],[73.3,20671],[73.3,20754],[73.3,20834],[73.3,20915],[73.3,20998],[73.3,21081],[73.3,21164],[73.3,21248],[73.3,21331],[73.3,21420],[73.3,21500],[73.2,21581],[73.2,21671],[73.2,21754],[73.2,21831],[73.2,21915],[73.2,21998],[73.2,22081],[74.4,22170],[75.5,22254],[75.7,22331],[75.7,22421],[74.9,22504],[74.9,22581],[74.8,22668],[74.8,22748],[74.8,22831],[73.6,22914],[73,22998],[71.9,23081],[66,23170],[64.3,23254],[63.5,23331],[63.5,23415],[63.5,23498],[63.5,23581],[63.5,23665],[63.5,23748],[62.6,23831],[60.2,23920],[60.2,23998],[60.2,24081],[60.2,24169],[60.2,24248],[60.2,24331],[60.2,24419],[60.2,24498],[60.2,24581],[60.2,24665],[60.2,24748],[60.2,24831]]",1,0,815.4161,817.2968,60.20833651,0.8372,"[{""rating"":60.20833651224772,""responseTime"":0.8371999999284299}]",space,1.342,,817.297,Half the time,50,817.2993,,,[],,0,7,7,7,1,audio/Narrative7Situation7.wav,audio/Narrative8Situation7.wav,audio/Narrative5Situation7.wav,audio/Narrative6Situation7.wav,5,3,4,5,,,,,,,,,,,,,,,,,,,,,,,,,,,,,,,,,,,,,,,
,,,,,,6630da66ecc00f81e26c343e,2024-05-13_12h00.56.895,group3.1-3.2-social-tom,2023.2.2,Win32,59.88023952,65c5074098b851296ff0b7ed,664237d5fda7424f1080615e,,,,,,,,,,,,,,,,,,,,,,,,,,,,,817.2995,2,audio/Narrative6Situation8.wav,822.3132,,822.3133,829.1786,[],1,0,829.1788,832.6341,96.45833969,2.1321,"[{""rating"":96.45833969116211,""responseTime"":2.1321000000237973}]",space,2.9183,,832.6341,Not at all,0,832.6358,,,[],,0,8,8,8,1,audio/Narrative7Situation8.wav,audio/Narrative8Situation8.wav,audio/Narrative5Situation8.wav,audio/Narrative6Situation8.wav,2,3,3,5,,,,,,,,,,,,,,,,,,,,,,,,,,,,,,,,,,,,,,,
,,,,,,6630da66ecc00f81e26c343e,2024-05-13_12h00.56.895,group3.1-3.2-social-tom,2023.2.2,Win32,59.88023952,65c5074098b851296ff0b7ed,664237d5fda7424f1080615e,,,,,,,,,,,,,,,,,,,,,,,,,,,,,832.636,2,audio/Narrative6Situation9.wav,836.6456,,836.6458,846.612,"[[96.7,8755],[98.6,8838],[98.6,8915],[98.6,8999],[98.6,9082],[97.4,9166],[97.1,9255],[96.3,9337],[96.3,9420],[98.1,9505],[99,9587],[99,9665],[99,9749],[99.4,9833],[99.4,9915]]",1,0,846.6124,848.3837,99.37500954,0.4291,"[{""rating"":99.37500953674316,""responseTime"":0.42910000002382276}]",space,1.2175,,848.3837,Not at all,0,848.3847,,,[],,0,9,9,9,1,audio/Narrative7Situation9.wav,audio/Narrative8Situation9.wav,audio/Narrative5Situation9.wav,audio/Narrative6Situation9.wav,2,3,3,4,,,,,,,,,,,,,,,,,,,,,,,,,,,,,,,,,,,,,,,
,,,,,,6630da66ecc00f81e26c343e,2024-05-13_12h00.56.895,group3.1-3.2-social-tom,2023.2.2,Win32,59.88023952,65c5074098b851296ff0b7ed,664237d5fda7424f1080615e,,,,,,,,,,,,,,,,,,,,,,,,,,,,,848.3849,2,audio/Narrative5Situation1.wav,853.3944,,853.3944,866.6954,"[[19,12506],[19,12589],[19,12672],[18.5,12755],[17.9,12838],[17.8,12917],[16.8,13007],[16.6,13083],[16.3,13167],[16.3,13250]]",1,0,866.6958,869.3484,3.854167461,1.3376,"[{""rating"":3.8541674613952637,""responseTime"":1.3376000000238264}]",space,2.1287,,869.3485,Not at all,0,869.3496,,,[],,0,10,10,10,1,audio/Narrative8Situation1.wav,audio/Narrative7Situation1.wav,audio/Narrative6Situation1.wav,audio/Narrative5Situation1.wav,5,2,2,5,,,,,,,,,,,,,,,,,,,,,,,,,,,,,,,,,,,,,,,
,,,,,,6630da66ecc00f81e26c343e,2024-05-13_12h00.56.895,group3.1-3.2-social-tom,2023.2.2,Win32,59.88023952,65c5074098b851296ff0b7ed,664237d5fda7424f1080615e,,,,,,,,,,,,,,,,,,,,,,,,,,,,,869.3498,2,audio/Narrative5Situation2.wav,872.3607,,872.3609,901.8319,"[[999,7],[999,82],[999,165],[999,249],[999,332],[999,416],[999,499],[999,582],[999,666],[999,749],[999,833],[999,916],[999,1000],[999,1082],[999,1166],[999,1249],[999,1335],[999,1416],[999,1500],[999,1582],[999,1671],[999,1749],[999,1832],[999,1916],[999,1999],[999,2082],[999,2166],[999,2250],[999,2333],[999,2416],[999,2500],[999,2583],[999,2666],[999,2749],[999,2832],[999,2915],[999,2999],[999,3083],[999,3166],[999,3248],[999,3333],[999,3416],[999,3499],[999,3582],[999,3665],[999,3749],[999,3832],[999,3916],[999,4005],[999,4083],[999,4166],[999,4249],[999,4333],[999,4416],[999,4499],[999,4582],[999,4666],[999,4749],[999,4838],[999,4916],[999,5005],[999,5082],[999,5165],[999,5249],[999,5338],[999,5416],[999,5504],[999,5586],[999,5665],[999,5749],[999,5832],[999,5916],[999,6002],[999,6088],[999,6166],[999,6249],[999,6332],[999,6416],[999,6499],[999,6585],[999,6666],[999,6749],[999,6832],[999,6916],[999,7004],[999,7082],[999,7170],[999,7249],[999,7333],[999,7415],[999,7504],[999,7583],[999,7665],[999,7754],[999,7832],[999,7916],[999,8004],[999,8082],[999,8165],[26.5,8254],[27.8,8338],[27.8,8421],[27.8,8504],[28.5,8588],[30.4,8672],[30.9,8749],[25,8832],[10.8,9504],[10.6,9583],[10.4,9665],[10.4,9754],[9.4,9839],[7.9,9922],[7.9,9999],[7.9,10082],[8.8,10172],[9.7,27921],[9.7,28004],[9.7,28087],[9.7,28165],[9.7,28248],[9.7,28331],[9.7,28416],[9.5,28504],[9.5,28588],[9.1,28671],[8.9,28754],[8.9,28831],[8.8,28915],[8.2,29004],[8.2,29082],[8.2,29165],[7.9,29254],[7.9,29332],[7.9,29415]]",1,0,901.8319,904.3423,7.708334923,0.7677,"[{""rating"":7.708334922790527,""responseTime"":0.7676999999284817}]",space,1.9704,,904.3425,Not at all,0,904.3457,,,[],,0,11,11,11,1,audio/Narrative8Situation2.wav,audio/Narrative7Situation2.wav,audio/Narrative6Situation2.wav,audio/Narrative5Situation2.wav,3,3,3,3,,,,,,,,,,,,,,,,,,,,,,,,,,,,,,,,,,,,,,,
,,,,,,6630da66ecc00f81e26c343e,2024-05-13_12h00.56.895,group3.1-3.2-social-tom,2023.2.2,Win32,59.88023952,65c5074098b851296ff0b7ed,664237d5fda7424f1080615e,,,,,,,,,,,,,,,,,,,,,,,,,,,,,904.346,2,audio/Narrative5Situation3.wav,907.3596,,907.3597,921.2639,"[[999,1],[999,82],[999,166],[999,248],[999,332],[999,415],[999,504],[999,582],[999,666],[999,749],[999,837],[999,915],[999,999],[999,1082],[999,1166],[999,1249],[999,1333],[999,1416],[999,1501],[999,1582],[999,1666],[999,1749],[999,1832],[999,1920],[999,1998],[999,2082],[999,2165],[999,2255],[999,2332],[999,2415],[999,2499],[999,2582],[999,2665],[999,2749],[999,2832],[999,2921],[999,2999],[999,3082],[999,3165],[999,3249],[999,3332],[999,3415],[999,3502],[999,3582],[999,3665],[999,3754],[999,3832],[999,3916],[999,3999],[999,4082],[999,4165],[999,4249],[999,4332],[999,4415],[999,4505],[999,4582],[999,4665],[999,4749],[999,4832],[999,4915],[999,5004],[999,5087],[999,5166],[999,5254],[999,5332],[999,5416],[999,5499],[999,5582],[999,5666],[999,5749],[999,5832],[999,5915],[999,5998],[999,6082],[999,6165],[999,6248],[999,6332],[999,6415],[999,6498],[999,6587],[999,6665],[999,6753],[999,6832],[999,6915],[999,6999],[999,7082],[999,7165],[999,7249],[999,7332],[999,7415],[999,7499],[999,7587],[999,7665],[999,7749],[999,7832],[999,7915],[999,7999],[999,8081],[999,8165],[999,8249],[999,8332],[999,8415],[999,8499],[999,8582],[999,8666],[999,8749],[999,8832],[999,8915],[999,8999],[999,9082],[999,9165],[999,9253],[999,9332],[999,9420],[999,9501],[999,9582],[999,9670],[999,9748],[999,9832],[999,9915],[999,9999],[999,10082],[999,10165],[999,10249],[999,10332],[999,10415],[999,10503],[999,10582],[999,10665],[999,10749],[999,10832],[999,10915],[999,10998],[999,11082],[999,11166],[999,11248],[999,11335],[999,11415],[999,11504],[999,11582],[999,11666],[999,11749],[999,11832],[999,11915],[999,11998],[999,12081],[999,12165],[999,12248],[999,12332],[999,12415],[999,12498],[999,12582],[999,12665],[999,12754],[999,12837],[999,12915],[999,13004],[999,13082],[999,13170],[999,13248],[999,13331],[999,13415],[999,13504],[999,13587],[999,13671],[50,13749],[50.5,13837]]",1,0,921.2641,924.1142,47.29166826,1.5888,"[{""rating"":47.291668256123856,""responseTime"":1.5888000000716147}]",space,2.3071,,924.1143,All the time,100,924.1163,,,[],,0,12,12,12,1,audio/Narrative8Situation3.wav,audio/Narrative7Situation3.wav,audio/Narrative6Situation3.wav,audio/Narrative5Situation3.wav,4,8,5,3,,,,,,,,,,,,,,,,,,,,,,,,,,,,,,,,,,,,,,,
,,,,,,6630da66ecc00f81e26c343e,2024-05-13_12h00.56.895,group3.1-3.2-social-tom,2023.2.2,Win32,59.88023952,65c5074098b851296ff0b7ed,664237d5fda7424f1080615e,,,,,,,,,,,,,,,,,,,,,,,,,,,,,924.1165,2,audio/Narrative5Situation4.wav,925.1261,,925.1263,945.5418,"[[48.2,3833],[85.3,14253],[85.5,14337],[85.5,14421],[85.4,14504],[85.4,14581],[85.3,14670],[85.3,14747],[85.3,14831],[85.3,14915],[85.3,14998],[85.3,15081],[85.3,15165],[85.3,15247],[85.3,15331],[85.3,15415],[85.3,15498],[85.3,15581],[85.3,15664],[85.3,15753],[85.3,15835],[85.3,15914],[85.3,15998],[85.3,16081],[85.3,16164],[85.3,16248],[85.3,16333],[85.3,16414],[85.3,16497],[85.3,16586],[85.3,16664],[85.3,16750],[85.3,16831],[85.3,16914],[85.3,16998],[85.3,17081],[85.3,17164],[85.3,17248],[85.3,17331],[85.3,17420],[85.3,17497],[85.3,17586],[85.3,17664],[85.3,17754],[85.3,17831],[85.3,17914],[85.3,17998],[85.3,18080],[85.3,18164],[85.3,18253],[85.3,18331],[85.3,18415],[85.3,18498],[85.3,18584],[85.3,18664],[85.3,18748],[85.3,18830],[85.3,18915],[85.3,18997],[85.3,19081],[85.3,19164],[85.3,19248],[85.3,19331],[85.3,19414],[85.3,19504],[85.3,19580],[85.3,19669],[85.3,19747],[85.3,19837],[85.3,19914],[85.3,19997],[85.3,20081],[85.3,20167],[85.3,20247],[85.3,20331],[85.3,20414]]",1,0,945.5422,947.5298,85.62499682,0.8334,"[{""rating"":85.62499682108562,""responseTime"":0.8334000000953665}]",space,1.4377,,947.5298,Half the time,50,947.5315,,,[],,0,13,13,13,1,audio/Narrative8Situation4.wav,audio/Narrative7Situation4.wav,audio/Narrative6Situation4.wav,audio/Narrative5Situation4.wav,3,3,2,1,,,,,,,,,,,,,,,,,,,,,,,,,,,,,,,,,,,,,,,
,,,,,,6630da66ecc00f81e26c343e,2024-05-13_12h00.56.895,group3.1-3.2-social-tom,2023.2.2,Win32,59.88023952,65c5074098b851296ff0b7ed,664237d5fda7424f1080615e,,,,,,,,,,,,,,,,,,,,,,,,,,,,,947.5317,2,audio/Narrative5Situation5.wav,952.5407,,952.541,967.995,"[[85.5,3416],[85.5,3499],[85.3,3582],[85,3671],[85,3748],[85,3832],[84.8,3921],[84.8,3999],[84.5,4088],[84,4171],[83.4,4255],[82.7,4338],[82.1,4422],[81.7,4504],[81,4587],[80.6,4671],[80.3,4749],[80.3,4835],[80.3,4916],[80.3,4999],[80.3,5088],[80.3,5165],[80.3,5249],[80.3,5338],[80.3,5415],[80.3,5499],[80.1,5588],[80.1,5665],[80.1,5749],[80.1,5838],[80.1,5922],[80.1,6005],[80.1,6085],[79.7,6165],[79.6,6254],[79.6,6332],[79.6,6415],[79.6,6500],[79.6,6586],[79.6,6672],[79.6,6749],[79.1,6838],[78.7,6920],[78.7,6998],[78.7,7081],[78.7,7170],[79,7255],[79,7332],[79,7415],[78.4,7505],[78.2,7588],[78.2,7665],[78.2,7749],[78.3,7838],[78.4,7921],[78.2,7999],[77.6,8088],[77.2,8171],[77.1,8249],[77.1,8332],[77.3,8415],[77.5,8499],[77.5,8588],[77.5,8666],[77.1,8755],[76.9,8838],[76.9,8916],[76.9,9005],[77.2,9089],[77.3,9172],[77.3,9253],[77.3,9331],[76.9,9421],[76.8,9504],[76.8,9582],[77,9671],[77,9755],[76.6,9832],[75.8,9922],[75.5,10005],[75.5,10082],[75.5,10170],[75.5,10254],[75.7,10338],[75.9,10422],[75.9,10499],[75.9,10587],[75.9,10665],[75.9,10755],[75.9,10839],[75.9,10921],[75.9,10999],[75.9,11082],[76,11165],[76,11255],[75.9,11332],[73.4,11422],[65.8,11922],[59.9,12004],[42,12089],[28,12171],[26.8,12249],[26.8,12337],[26.8,12416],[26.7,12499],[24.8,12588],[24.7,12666],[24.7,12749],[24.7,12831],[24.7,12915],[24.7,13004],[24.7,13088],[24.7,13165],[24.7,13254],[24.7,13338],[24.7,13416],[24.7,13504],[24.7,13582],[24.7,13672],[24.7,13754],[24.8,13832],[24.8,13915],[24.8,13999],[24.8,14087],[24.8,14165],[24.8,14249],[24.8,14332],[24.8,14416],[24.8,14498],[24.8,14588],[24.8,14665],[24.8,14755],[24.8,14832],[24.8,14919],[24.8,15004],[24.8,15085],[24.8,15166],[24.8,15249],[24.8,15338],[24.8,15415]]",1,0,967.9951,979.2731,98.8541762,9.5508,"[{""rating"":24.895834922790527,""responseTime"":1.3903999999761254},{""rating"":98.85417620340984,""responseTime"":9.550799999952346}]",space,10.7217,,979.2733,All the time,100,979.2767,,,[],,0,14,14,14,1,audio/Narrative8Situation5.wav,audio/Narrative7Situation5.wav,audio/Narrative6Situation5.wav,audio/Narrative5Situation5.wav,2,5,2,5,,,,,,,,,,,,,,,,,,,,,,,,,,,,,,,,,,,,,,,
,,,,,,6630da66ecc00f81e26c343e,2024-05-13_12h00.56.895,group3.1-3.2-social-tom,2023.2.2,Win32,59.88023952,65c5074098b851296ff0b7ed,664237d5fda7424f1080615e,,,,,,,,,,,,,,,,,,,,,,,,,,,,,979.2769,2,audio/Narrative5Situation6.wav,982.29,,982.2902,987.9731,"[[999,6],[999,83],[999,171],[999,249],[999,332],[999,416],[999,499],[999,582],[999,666],[999,749],[999,832],[999,915],[999,999],[999,1082],[999,1165],[999,1248],[999,1332],[999,1416],[999,1499],[999,1582],[999,1665],[999,1753],[999,1832],[999,1915],[999,2004],[999,2082],[999,2165],[999,2248],[999,2332],[999,2415],[999,2504],[999,2582],[999,2665],[999,2749],[999,2834],[999,2915],[999,2999],[999,3082],[999,3166],[999,3249],[999,3332],[999,3416],[999,3499],[999,3582],[999,3665],[999,3749],[999,3832],[999,3915],[999,4004],[999,4087],[999,4171],[999,4254],[999,4332],[999,4415],[999,4499],[999,4582],[999,4666],[999,4754],[999,4832],[999,4915],[999,5003],[999,5082],[999,5166],[999,5249],[999,5332],[999,5415],[999,5498],[999,5582],[999,5665]]",1,0,987.9735,991.3894,0.104169051,2.3545,"[{""rating"":0.10416905085245953,""responseTime"":2.35450000000003}]",space,2.8769,,991.3896,Half the time,50,991.3922,,,[],,0,15,15,15,1,audio/Narrative8Situation6.wav,audio/Narrative7Situation6.wav,audio/Narrative6Situation6.wav,audio/Narrative5Situation6.wav,2,3,2,3,,,,,,,,,,,,,,,,,,,,,,,,,,,,,,,,,,,,,,,
,,,,,,6630da66ecc00f81e26c343e,2024-05-13_12h00.56.895,group3.1-3.2-social-tom,2023.2.2,Win32,59.88023952,65c5074098b851296ff0b7ed,664237d5fda7424f1080615e,,,,,,,,,,,,,,,,,,,,,,,,,,,,,991.3923,2,audio/Narrative5Situation7.wav,995.4059,,995.4061,1016.443,"[[18.6,8166],[14.7,8255],[13.1,8338],[12.6,8421],[12.6,8499],[12.6,8582],[12.6,8665],[12.4,8755],[10,8838],[8.3,8921],[7.5,8998],[7.5,9082],[7.5,9165],[7.5,9248],[7.5,9338],[7.4,9415],[7.4,9498],[7.4,9581],[7.1,9672],[3.4,9755],[2.2,9837],[2.2,9918],[2.2,10003],[1.9,10087],[1.6,10170],[1.5,10254],[1.3,10338],[1.3,10415],[1.3,10503],[1.3,10582],[1.3,10666],[1.3,10749],[1.3,10831],[1.3,10915],[1.3,10998],[1.3,11082],[1.3,11165],[1.3,11254],[1.3,11332],[1.3,11421],[1.3,11504],[1.3,11582],[1.3,11671],[1.3,11754],[1.3,11831],[1.3,11919],[1.3,11998],[1.3,12082],[1.3,12165],[1.3,12249],[1.3,12337],[1.3,12415],[1.3,12498],[1.3,12582],[1.3,12665],[1.3,12749],[1.3,12832],[1.3,12916],[1.3,12999],[1.3,13082],[1.3,13165],[1.3,13252],[1.3,13332],[1.3,13415],[1.3,13499],[1.3,13582],[1.3,13666],[1.3,13748],[1.3,13831],[1.3,13914],[1.3,13999],[1.3,14081],[1.3,14165],[1.3,14251],[1.3,14331],[1.3,14415],[1.3,14498],[1.3,14582],[1.3,14668],[1.3,14749],[1.3,14835],[1.3,14915],[1.3,15004],[1.3,15082],[1.3,15165],[1.3,15248],[1.3,15331],[1.3,15415],[1.3,15498],[1.3,15581],[1.3,15665],[1.3,15749],[1.3,15837],[1.3,15915],[1.3,15999],[1.3,16081],[1.3,16165],[1.3,16248],[1.3,16336],[1.3,16415],[1.3,16498],[1.3,16581],[1.3,16665],[1.3,16748],[1.3,16832],[1.3,16915],[1.3,16998],[1.3,17081],[1.3,17165],[1.3,17249],[1.3,17337],[1.3,17415],[1.3,17499],[1.3,17581],[1.3,17665],[1.3,17748],[1.3,17831],[1.3,17915],[1.3,17998],[1.3,18082],[1.3,18165],[1.3,18248],[1.3,18331],[1.3,18420],[1.3,18498],[1.3,18581],[1.3,18665],[1.3,18748],[1.3,18832],[1.3,18915],[1.3,18998],[1.3,19081],[1.3,19165],[1.3,19249],[1.3,19337],[1.3,19414],[1.3,19499],[1.3,19587],[1.3,19665],[1.3,19748],[1.3,19832],[1.3,19915],[1.3,19998],[1.3,20081],[1.3,20164],[1.3,20248],[1.3,20331],[1.3,20415],[1.3,20498],[1.3,20586],[1.3,20665],[1.3,20748],[1.3,20831],[1.3,20915],[1.3,20999]]",1,0,1016.4431,1018.7263,1.770834128,1.1103,"[{""rating"":1.7708341280619322,""responseTime"":1.110300000071561}]",space,1.7341,,1018.7263,All the time,100,1018.7278,,,[],,0,16,16,16,1,audio/Narrative8Situation7.wav,audio/Narrative7Situation7.wav,audio/Narrative6Situation7.wav,audio/Narrative5Situation7.wav,3,5,5,4,,,,,,,,,,,,,,,,,,,,,,,,,,,,,,,,,,,,,,,
,,,,,,6630da66ecc00f81e26c343e,2024-05-13_12h00.56.895,group3.1-3.2-social-tom,2023.2.2,Win32,59.88023952,65c5074098b851296ff0b7ed,664237d5fda7424f1080615e,,,,,,,,,,,,,,,,,,,,,,,,,,,,,1018.728,2,audio/Narrative5Situation8.wav,1021.7377,,1021.7379,1030.588,[],1,0,1030.5882,1033.5599,17.81249841,1.5327,"[{""rating"":17.812498410542805,""responseTime"":1.5327000000477256}]",space,2.4177,,1033.5599,Half the time,50,1033.5617,,,[],,0,17,17,17,1,audio/Narrative8Situation8.wav,audio/Narrative7Situation8.wav,audio/Narrative6Situation8.wav,audio/Narrative5Situation8.wav,3,2,5,3,,,,,,,,,,,,,,,,,,,,,,,,,,,,,,,,,,,,,,,
,,,,,,6630da66ecc00f81e26c343e,2024-05-13_12h00.56.895,group3.1-3.2-social-tom,2023.2.2,Win32,59.88023952,65c5074098b851296ff0b7ed,664237d5fda7424f1080615e,,,,,,,,,,,,,,,,,,,,,,,,,,,,,1033.5619,2,audio/Narrative5Situation9.wav,1036.5711,,1036.5712,1076.1188,"[[999,1],[999,82],[999,171],[999,255],[999,332],[999,421],[999,498],[999,582],[999,666],[999,749],[999,838],[999,915],[999,999],[999,1082],[999,1165],[999,1248],[999,1332],[999,1415],[999,1499],[999,1582],[999,1665],[999,1749],[999,1835],[999,1915],[999,1999],[999,2088],[999,2166],[999,2249],[999,2332],[999,2415],[999,2499],[999,2582],[999,2665],[999,2749],[999,2832],[999,2915],[999,2999],[999,3082],[999,3165],[999,3249],[999,3332],[999,3420],[999,3498],[999,3582],[999,3665],[999,3749],[999,3837],[999,3916],[999,4002],[999,4088],[999,4166],[999,4249],[999,4337],[999,4415],[999,4504],[999,4582],[999,4670],[999,4749],[999,4832],[999,4915],[999,5003],[999,5082],[999,5165],[999,5249],[999,5332],[999,5416],[999,5499],[999,5582],[999,5665],[999,5748],[999,5832],[999,5915],[999,5999],[999,6088],[999,6165],[999,6248],[999,6336],[999,6415],[999,6498],[999,6582],[999,6666],[999,6749],[999,6832],[999,6916],[999,6999],[999,7082],[999,7165],[999,7249],[999,7337],[999,7416],[999,7504],[999,7582],[999,7665],[999,7749],[999,7838],[999,7916],[999,7999],[999,8088],[999,8165],[999,8253],[999,8337],[999,8420],[999,8499],[999,8588],[999,8666],[999,8749],[999,8836],[999,8915],[999,8999],[999,9087],[999,9166],[999,9253],[999,9332],[999,9415],[999,9504],[999,9581],[999,9665],[999,9748],[999,9838],[999,9921],[999,9998],[999,10081],[999,10166],[999,10249],[999,10332],[999,10420],[999,10499],[999,10582],[999,10666],[999,10749],[999,10832],[999,10915],[999,10998],[999,11082],[999,11165],[999,11253],[999,11331],[999,11415],[999,11498],[999,11588],[999,11670],[999,11748],[999,11832],[999,11915],[999,11998],[999,12082],[999,12165],[999,12254],[999,12337],[999,12420],[999,12503],[999,12587],[999,12670],[999,12754],[999,12832],[999,12915],[999,13003],[999,13082],[999,13165],[999,13248],[999,13331],[999,13415],[999,13498],[999,13587],[999,13668],[999,13748],[999,13832],[999,13921],[999,13998],[999,14081],[999,14164],[999,14248],[999,14331],[999,14420],[999,14498],[999,14582],[999,14665],[999,14748],[999,14832],[999,14915],[999,15004],[999,15081],[999,15165],[999,15248],[999,15332],[999,15415],[999,15497],[999,15581],[999,15665],[999,15748],[999,15832],[999,15916],[999,15999],[999,16087],[999,16166],[999,16248],[999,16337],[999,16415],[999,16498],[999,16581],[999,16665],[999,16748],[999,16831],[999,16921],[999,16998],[999,17082],[999,17165],[999,17249],[999,17331],[999,17415],[999,17504],[999,17581],[999,17665],[999,17748],[999,17831],[999,17915],[999,17998],[999,18081],[999,18164],[999,18254],[999,18337],[999,18415],[999,18504],[999,18581],[999,18664],[999,18753],[999,18831],[999,18915],[999,18998],[999,19082],[999,19165],[999,19254],[999,19331],[999,19415],[999,19498],[999,19581],[999,19665],[999,19748],[999,19832],[999,19915],[999,19998],[999,20086],[999,20165],[999,20248],[999,20331],[999,20415],[999,20498],[999,20582],[999,20664],[999,20748],[999,20831],[999,20915],[999,20998],[999,21081],[999,21170],[999,21248],[999,21331],[999,21415],[999,21498],[999,21581],[999,21664],[999,21752],[999,21831],[999,21920],[999,22002],[999,22081],[999,22170],[999,22248],[999,22337],[999,22415],[999,22498],[999,22582],[999,22665],[999,22748],[999,22831],[999,22921],[999,22999],[999,23081],[999,23164],[999,23248],[999,23336],[999,23415],[999,23497],[999,23587],[999,23669],[999,23754],[999,23838],[999,23915],[999,23998],[999,24081],[999,24165],[999,24253],[999,24334],[999,24414],[999,24498],[999,24581],[999,24664],[999,24748],[999,24831],[999,24920],[999,25003],[999,25081],[999,25164],[999,25254],[999,25331],[999,25414],[999,25498],[999,25585],[999,25665],[999,25748],[999,25837],[999,25914],[999,25998],[999,26081],[999,26165],[999,26248],[999,26331],[999,26415],[999,26498],[999,26581],[999,26664],[999,26747],[999,26831],[999,26914],[999,26998],[999,27081],[999,27170],[999,27248],[999,27331],[999,27414],[999,27497],[999,27586],[999,27664],[999,27748],[999,27831],[999,27914],[999,27997],[999,28081],[999,28164],[999,28248],[999,28331],[999,28414],[999,28498],[999,28581],[999,28664],[999,28748],[999,28831],[999,28914],[999,28998],[999,29081],[999,29165],[999,29253],[999,29331],[999,29414],[999,29498],[999,29588],[999,29670],[999,29753],[34.6,29842],[32.2,29921],[29.4,30003],[27.2,30087],[25.6,30171],[25.6,30248],[25.6,30331],[25.1,30414],[25.1,30497],[25.1,30580],[25.1,30664],[25.1,30747],[25.1,30831],[25.1,30914],[25.1,30997],[25.1,31087],[25.1,31170],[25.1,31248],[25.1,31331],[25.1,31414],[25.1,31504],[25.1,31586],[25.1,31664],[25.1,31747],[25.1,31831],[25.1,31915],[25.1,31998],[25.1,32087],[25.1,32164],[25.1,32247],[25.1,32331],[25.1,32419],[25.1,32498],[25.1,32581],[25.1,32668],[25.1,32747],[25.1,32830],[25.1,32914],[25.1,33000],[25.1,33086],[25.1,33165],[25.1,33252],[25.1,33331],[25.1,33414],[25.1,33498],[25.1,33581],[25.1,33667],[25.1,33747],[25.1,33833],[25.1,33920],[25.1,33997],[25.1,34086],[25.1,34164],[25.1,34247],[25.1,34331],[25.1,34414],[25.1,34503],[25.1,34581],[25.1,34669],[25.1,34753],[25.1,34831],[25.1,34914],[25.1,35003],[25.1,35081],[25.1,35164],[25.1,35248],[25.1,35331],[25.1,35414],[25.1,35497],[25.1,35581],[25.1,35665],[25.1,35752],[25.1,35831],[25.1,35915],[25.1,36003],[25.1,36080],[25.1,36164],[25.1,36247],[25.1,36331],[25.1,36414],[25.1,36497],[25.1,36581],[25.1,36669],[25.1,36753],[25.1,36836],[25.1,36913],[25.1,37003],[25.1,37081],[25.1,37164],[25.1,37248],[25.1,37331],[25.1,37414],[25.1,37504],[25.1,37581],[25.1,37664],[25.1,37747],[25.1,37831],[25.1,37920],[25.1,38003],[25.1,38083],[25.1,38170],[25.1,38247],[25.1,38334],[25.1,38419],[25.1,38497],[25.1,38580],[25.1,38664],[25.1,38753],[25.1,38831],[25.1,38914],[25.1,39002],[25.1,39081],[25.1,39164],[25.1,39247],[25.1,39330],[25.1,39414],[25.1,39497]]",1,0,1076.1193,1078.1701,25,0.6072,"[{""rating"":25,""responseTime"":0.6071999999285254}]",space,1.5053,,1078.1702,Half the time,50,1083.0616,50.10416508,3.7865,"[{""rating"":50.10416507720947,""responseTime"":3.7864999999999327}]",space,0,18,18,18,1,audio/Narrative8Situation9.wav,audio/Narrative7Situation9.wav,audio/Narrative6Situation9.wav,audio/Narrative5Situation9.wav,3,2,4,3,,,4.348,,,,,,,,,,,,,,,,,,,,,,,,,,,,,,,,,,,,
,,,,,,6630da66ecc00f81e26c343e,2024-05-13_12h00.56.895,group3.1-3.2-social-tom,2023.2.2,Win32,59.88023952,65c5074098b851296ff0b7ed,664237d5fda7424f1080615e,,,,,,,,,,,,,,,,,,,,,,,,,,,,,,,,,,,,,,,,,,,,,,,,,,,,,,,,,,,,,,,,,,,,,,,,1083.0619,1089.568,space,5.9923,,1089.5693,1106.0858,space,16.1925,,,,,,,,,,,,,,,,,,,,,,,,,,
,,,,,,6630da66ecc00f81e26c343e,2024-05-13_12h00.56.895,group3.1-3.2-social-tom,2023.2.2,Win32,59.88023952,65c5074098b851296ff0b7ed,664237d5fda7424f1080615e,,,,,,,,,,,,,,,,,,,,,,,,,,,,,1108.6777,1,audio/Narrative7Situation9.wav,1110.6836,,,,,,,1142.5695,1145.3559,36.25000318,1.762,"[{""rating"":36.25000317891439,""responseTime"":1.7619999999999436}]",space,2.2343,,1142.5562,Not at all,0,1142.5695,,,[],,,,,,,,,,,2,2,2,2,,,,,,,,,,,,,,,1106.0875,1108.668,1110.6844,3,1142.5561,[],0,0,0,0,1,"Larry had recently lost his family, job and home, and was now living on his own in the park. He had most of his belongings, including some clothes, a blanket, and his mother’s special necklace. His family had been very important to him and he felt as though he did not have much going for him. One of his first days in the park he came across a family that did not have much food and looked very cold. He decided to give them some of his food and his blanket.","Larry had recently lost his family, job and home, and was now living on his own in the park. He had most of his belongings, including some clothes, a blanket, and his mother’s special necklace. His family had been very important to him and he felt as though he did not have much going for him. One of his first days in the park he came across a family that did not have much food and looked very cold. He decided to give them some of his food and his blanket.","Larry had recently lost his family, job and home, and was now living on his own in the park. He had most of his belongings, including some clothes, a blanket, and his mother’s special necklace. His family had been very important to him and he felt as though he did not have much going for him. One of his first days in the park he came across a family that did not have much food and looked very cold. He decided to give them some of his food and his blanket.","Larry had recently lost his family, job and home, and was now living on his own in the park. He had most of his belongings, including some clothes, a blanket, and his mother’s special necklace. His family had been very important to him and he felt as though he did not have much going for him. One of his first days in the park he came across a family that did not have much food and looked very cold. He decided to give them some of his food and his blanket.",,,,,,,,,,
,,,,,,6630da66ecc00f81e26c343e,2024-05-13_12h00.56.895,group3.1-3.2-social-tom,2023.2.2,Win32,59.88023952,65c5074098b851296ff0b7ed,664237d5fda7424f1080615e,,,,,,,,,,,,,,,,,,,,,,,,,,,,,1145.3564,1,audio/Narrative7Situation9.wav,1149.8156,space,,,,,,1173.7117,1176.1042,80.93750477,1.61,"[{""rating"":80.93750476837158,""responseTime"":1.6100000000001273}]",space,1.8547,,1173.7034,Half the time,50,1173.7117,,,[],,,,,,,,,,,6,2,3,9,4.4341,,,,,,,,,,,,,,,,1149.8158,3,1173.7033,"[[40.6,12582],[44.9,12672],[48.6,12755],[53.9,12838],[58.9,12922],[62.7,13005],[62.7,13082],[62.8,13166],[62.8,13249],[62.8,13339],[62.8,13420],[62.7,13505],[62.7,13582],[62.7,13672],[62.7,13749],[62.7,13833],[62.7,13915],[62.7,13999],[62.7,14082],[62.7,14171],[62.7,14249],[62.7,14332],[62.7,14415],[62.7,14504],[62.7,14582],[62.7,14666],[62.7,14754],[62.7,14832],[62.7,14915],[62.7,15005],[62.7,15087],[62.7,15171],[62.7,15248],[62.7,15332],[62.7,15421],[62.7,15505],[62.7,15582],[62.7,15665],[62.7,15754],[62.7,15837],[62.7,15921],[62.7,16005],[62.7,16087],[62.7,16165],[62.7,16249],[62.7,16333],[74,16754],[73.6,16838],[74.8,16921],[75.4,17005],[76,17082],[76,17165],[76,17255],[76,17338],[76,17421],[76,17504],[76,17586],[76,17666],[76,17749],[76,17836],[76,17915],[76,17999],[76,18086],[76,18166],[76,18248],[76,18332],[76,18416],[76,18499],[76,18582],[76,18670],[76,18749],[76,18832],[76,18915],[76,18999],[76,19088],[76,19166],[76,19253],[76,19332],[76,19416],[76,19504],[76,19582],[76,19668],[76,19749],[76,19838],[76,19921],[76,20001],[76,20087],[76,20171],[76,20251],[76,20332],[76,20415],[76,20499],[76,20582],[76,20671],[76,20749],[76,20837],[76,20915],[76,20999],[76,21087],[76,21171],[76,21255],[76,21331],[76,21416],[76,21499],[76,21582],[76,21666],[76,21749],[76,21832],[76,21916],[76,22005],[76,22082],[76,22165],[76,22249],[76,22338],[76,22416],[76,22504],[76,22581],[76,22670],[76,22748],[76,22832],[76,22921],[76,22998],[76,23085],[76,23165],[76,23249],[76,23332],[76,23415],[76,23499],[76,23582],[76,23665],[76,23754],[76,23832]]",0,1,1,1,1,"It was just another Sunday afternoon for Lucy, she was on her way to the farmer's market to pick up some produce. When she arrived at the old train depot that housed the market, she noticed two men fighting on the steps. Before she could call for help, one of the men crumpled to his knees. The other man dropped an object that appeared to be a knife and ran off. When Lucy approached the crime scene she realized that the man who had been murdered was the Mayor and that he had a gunshot wound.","One day at work, Margaret walked up to her partner, Al, to ask him to talk to the chief of staff at the local hospital where she worked as a nurse.","Luke always thought of himself as an honest man. That's why during his evening jog around the swamp, he pondered his recent affair with the receptionist at work. Luke looked up at the sky and asked God why he was so weak and unfaithful. He thought of the impact this would have on his family and told God of his conflicted feelings toward telling his wife Marta.","Linda and Amy had been best friends since kindergarten, they even found homes on the same street in the forest on the edge of town. Their biggest fight had been over who gets the bigger slice of cake, until Amy married Dan. Linda loathed Dan, she thought he was manipulative and had a violent temper. She only put up with him because Amy loved him. ",,,,,,,,,,
,,,,,,6630da66ecc00f81e26c343e,2024-05-13_12h00.56.895,group3.1-3.2-social-tom,2023.2.2,Win32,59.88023952,65c5074098b851296ff0b7ed,664237d5fda7424f1080615e,,,,,,,,,,,,,,,,,,,,,,,,,,,,,1176.1045,1,audio/Narrative7Situation9.wav,1181.1148,,,,,,,1207.3758,1210.1864,14.47916826,1.3336,"[{""rating"":14.47916825612386,""responseTime"":1.3336000000238073}]",space,2.2521,,1207.3689,Half the time,50,1207.3757,,,[],,,,,,,,,,,4,5,2,2,,,,,,,,,,,,,,,,,1181.115,3,1207.3688,"[[80.8,19344],[80.6,19415],[50.5,19505],[17.7,19588],[20.7,20169],[24.3,20254],[24.3,20332],[24.1,20421],[23.5,20504],[23.2,20587],[23.1,20665],[23.1,20754],[23.1,20832],[23.1,20914],[23.1,20998],[23.1,21081],[23.1,21165],[23.1,21249],[23.1,21331],[23.1,21416],[23.1,21498],[23.1,21582],[23.1,21665],[23.1,21749],[23.1,21831],[23.1,21915],[23.1,22004],[23.1,22087],[23.1,22164],[23.1,22253],[23.1,22331],[23.1,22415],[23.1,22498],[23.1,22587],[23.1,22665],[23.1,22749],[23.1,22832],[23.1,22921],[23.1,23004],[23.1,23082],[23.1,23164],[23.1,23253],[23.1,23337],[23.1,23421],[23.1,23504],[23.1,23581],[23.1,23664],[23.1,23748],[23.1,23832],[23.1,23920],[23.1,24002],[23.1,24082],[23.1,24170],[23.1,24254],[23.1,24337],[23.1,24414],[23.1,24504],[23.1,24582],[23.1,24665],[23.1,24748],[23.1,24832],[23.1,24920],[23.1,25004],[23.1,25081],[23.1,25170],[23.1,25253],[23.1,25337],[23.1,25415],[23.1,25504],[23.1,25582],[23.1,25665],[23.1,25754],[23.1,25832],[23.1,25920],[23.1,26004],[23.1,26082],[23.1,26165],[23.1,26253]]",0,2,2,2,1,On the ground beside him was a pen that she had mistaken for a knife. Lucy looked for the gunman and saw a suspicious man in black with distinct pointy features darting into an alley across the street. Cops who were nearby chased the man who had fled and arrested him.,"While waiting outside the chief of staff's office, Al heard nondescript shouting and yelling, there was a loud clatter in the room and then an eerie silence. An unfamiliar employee ran hastily out of the office with a terrified look on their face.","Suddenly, Luke heard a woman call out his name and when he turned around he saw Carly, his receptionist, across the road with a gun in her hand. Carly ran to him and explained how she had followed him here to confess her love. She exclaimed if Luke didn't love her back that she would kill him and his family. Carly explained that the only way they could be together is to kill Marta.","This feeling of hate between Amy and Dan was mutual, Dan didn't like how much time his wife spent with her and thought Amy was creating distance between their marriage. That's why Dan decided to try and tarnish Linda's reputation with his wife, in hopes it would get rid of her. He came home one afternoon and exclaimed that Linda had tried to kiss him. Amy was taken aback and immediately called Linda to confront her about these accusations. When Linda arrived she denied having made a move on Dan, but discovered Dan had enlisted the help of his friend Will who said he witnessed it all happen.",,,,,,,,,,
,,,,,,6630da66ecc00f81e26c343e,2024-05-13_12h00.56.895,group3.1-3.2-social-tom,2023.2.2,Win32,59.88023952,65c5074098b851296ff0b7ed,664237d5fda7424f1080615e,,,,,,,,,,,,,,,,,,,,,,,,,,,,,1210.1868,1,audio/Narrative7Situation9.wav,1212.198,,,,,,,1234.7218,1241.7615,27.18749841,6.2136,"[{""rating"":27.18749841054281,""responseTime"":6.213600000023916}]",space,6.4998,,1234.7134,Not at all,0,1234.7218,,,[],,,,,,,,,,,2,2,1,4,,,,,,,,,,,,,,,,,1212.1982,3,1234.7131,"[[999,0],[999,81],[999,164],[999,248],[999,334],[999,414],[999,498],[999,581],[999,669],[999,748],[999,831],[999,920],[999,997],[999,1081],[999,1164],[999,1248],[999,1331],[999,1417],[999,1497],[999,1581],[999,1664],[999,1748],[999,1831],[999,1914],[999,1997],[999,2081],[999,2164],[999,2248],[999,2337],[999,2415],[999,2498],[999,2581],[999,2664],[999,2748],[999,2831],[999,2915],[999,3003],[999,3087],[999,3164],[999,3248],[999,3331],[999,3420],[999,3498],[999,3581],[999,3669],[999,3748],[999,3831],[999,3914],[999,3998],[999,4081],[999,4165],[999,4248],[999,4331],[999,4414],[999,4501],[999,4581],[999,4670],[999,4747],[999,4831],[999,4914],[999,5003],[999,5081],[999,5164],[999,5247],[999,5331],[999,5414],[999,5498],[999,5581],[999,5671],[999,5748],[999,5831],[999,5914],[999,5997],[999,6081],[999,6164],[999,6252],[999,6331],[999,6420],[999,6498],[999,6581],[999,6664],[999,6749],[999,6831],[999,6914],[999,6998],[999,7081],[999,7169],[999,7247],[999,7331],[999,7414],[999,7498],[999,7581],[999,7664],[999,7747],[999,7830],[999,7914],[999,8003],[999,8080],[999,8164],[999,8247],[999,8331],[999,8415],[999,8497],[999,8580],[999,8670],[999,8748],[999,8832],[999,8919],[999,8998],[999,9080],[999,9164],[999,9247],[999,9336],[999,9414],[999,9497],[999,9581],[999,9670],[999,9748],[999,9830],[999,9914],[999,9997],[999,10080],[999,10164],[999,10253],[999,10337],[999,10417],[999,10498],[999,10581],[999,10664],[999,10748],[999,10830],[999,10919],[999,10998],[999,11081],[999,11164],[999,11247],[999,11337],[999,11414],[999,11503],[999,11586],[999,11670],[999,11747],[999,11831],[999,11920],[999,11998],[999,12081],[999,12167],[999,12247],[999,12337],[999,12414],[999,12497],[999,12585],[999,12664],[999,12747],[999,12831],[999,12919],[999,12998],[999,13081],[999,13169],[999,13248],[999,13330],[999,13420],[999,13497],[999,13581],[999,13664],[999,13753],[999,13830],[999,13914],[999,13997],[999,14087],[999,14164],[999,14247],[999,14330],[999,14414],[999,14502],[999,14581],[999,14664],[999,14752],[999,14836],[999,14914],[999,15003],[999,15081],[999,15164],[999,15253],[999,15331],[999,15414],[999,15497],[999,15580],[999,15670],[999,15748],[999,15831],[999,15914],[999,15998],[999,16081],[999,16164],[999,16247],[999,16330],[999,16419],[999,16497],[999,16583],[999,16664],[999,16753],[999,16831],[999,16913],[999,16997],[999,17081],[999,17164],[999,17247],[999,17331],[999,17420],[999,17498],[999,17580],[999,17664],[999,17747],[999,17831],[999,17914],[999,17997],[999,18081],[999,18169],[999,18247],[999,18330],[999,18414],[999,18497],[999,18586],[999,18669],[999,18747],[999,18831],[999,18913],[999,18998],[999,19080],[999,19164],[999,19247],[999,19331],[999,19413],[999,19502],[999,19581],[999,19663],[999,19747],[999,19836],[999,19913],[999,19996],[999,20085],[999,20164],[999,20253],[999,20336],[999,20419],[999,20497],[999,20580],[999,20664],[999,20747],[999,20830],[999,20914],[999,20998],[999,21080],[999,21164],[999,21247],[999,21331],[999,21413],[999,21497],[999,21585],[999,21669],[999,21746],[999,21835],[999,21914],[999,21997],[999,22080],[999,22169],[999,22247],[999,22330],[999,22413],[999,22497]]",0,3,3,3,1,"But Lucy knew the charged man was innocent, which meant the killer was free. Lucy vowed to find out who the real murderer was and to stop him at all costs.","Al explained to the chief of staff that Margaret wanted to be excused from her absences last week. The chief of staff, Susan, revealed that she wanted to fire Margaret and never see her again. Susan and Al had been having an affair and she wanted Margaret ""out of the picture"". Al was conflicted, but agreed it would be for the best.","Luke thought of his child and felt like this was his only option. He agreed to the plan and called his wife to meet him at the swamp to watch the sunset with him. When she arrived, Marta called out for her husband, but found Carly waiting for her. She immediately drew her gun and shot her in the chest, knocking her unconscious.","Since it was their word against her own, she decided to go home and admit defeat. She knew how much it would hurt Amy to know the truth.",,,,,,,,,,
,,,,,,6630da66ecc00f81e26c343e,2024-05-13_12h00.56.895,group3.1-3.2-social-tom,2023.2.2,Win32,59.88023952,65c5074098b851296ff0b7ed,664237d5fda7424f1080615e,,,,,,,,,,,,,,,,,,,,,,,,,,,,,1241.7628,1,audio/Narrative7Situation9.wav,1242.7787,,,,,,,1265.3657,1267.3837,49.89583492,0.822,"[{""rating"":49.89583492279053,""responseTime"":0.8220000000001164}]",space,1.4733,,1265.3642,All the time,100,1265.3657,,,[],,,,,,,,,,,1,1,3,3,,,,,,,,,,,,,,,,,1242.7789,3,1265.3641,"[[28.1,588],[28.1,666],[28.1,750],[28.1,833],[28.1,916],[28.6,1003],[39.3,4177],[76.3,4255],[86,4338],[86.7,4416],[84.7,4587],[77.2,4756],[76.4,4832],[75.1,4922],[73.3,5005],[73.2,5083],[73.2,5168],[73.2,5249],[73.2,5332],[73.2,5415],[73.2,5499],[73.2,5588],[73.2,5668],[73.2,5750],[73.2,5832],[73.2,5916],[73.2,5999],[73.2,6083],[73.2,6166],[73.2,6249],[73.2,6332],[73.2,6415],[73.2,6498],[73.2,6588],[73.2,6666],[73.2,6749],[73.2,6832],[73.2,6917],[73.2,7003],[73.2,7088],[73.2,7166],[73.2,7249],[73.2,7338],[73.2,7421],[73.2,7499],[73.2,7587],[73.2,7666],[73.2,7755],[73.2,7837],[73.2,7916],[73.2,8005],[73.2,8082],[73.2,8171],[73.2,8249],[73.2,8332],[73.2,8416],[72.9,8505],[72.9,8585],[72.8,8665],[72.8,8755],[72.8,8832],[72.8,8918],[72.8,8999],[72.7,9083],[72.6,9166],[72.6,9252],[72.6,9332],[72.6,9421],[72.6,9503],[72.6,9587],[72.6,9665],[72.6,9749],[72.6,9832],[72.6,9915],[72.6,9999],[72.6,10088],[72.6,10165],[72.6,10249],[72.6,10333],[72.6,10421],[72.6,10498],[72.6,10587],[72.6,10666],[72.6,10751],[72.6,10832],[72.6,10916],[72.6,10999],[72.6,11087],[72.6,11171],[72.6,11254],[72.6,11332],[72.6,11421],[72.6,11498],[72.6,11582],[72.6,11670],[72.6,11748],[72.6,11832],[72.6,11915],[72.6,11999],[72.6,12083],[72.6,12165],[72.6,12253],[72.6,12332],[72.6,12415],[72.6,12501],[72.6,12587],[72.6,12665],[72.6,12754],[72.6,12832],[72.6,12916],[72.6,12999],[72.6,13082],[72.6,13166],[72.6,13254],[72.6,13332],[72.6,13422],[72.6,13499],[72.6,13582],[72.6,13665],[72.6,13748],[72.6,13832],[72.6,13921],[72.6,13999],[72.6,14087],[72.6,14171],[72.6,14252],[72.6,14337],[72.6,14415],[72.6,14498],[72.6,14587],[72.6,14665],[72.6,14748],[72.6,14832],[72.6,14915],[72.6,15004],[72.6,15082],[72.6,15166],[72.6,15253],[72.6,15332],[72.6,15415],[72.6,15499],[72.6,15582],[72.6,15665],[72.6,15748],[72.6,15832],[72.6,15915],[72.6,16004],[72.6,16083],[72.6,16171],[72.6,16248],[72.6,16332],[72.6,16421],[72.6,16499],[72.6,16582],[72.6,16671],[72.6,16748],[72.6,16832],[72.6,16916],[72.6,16998],[72.6,17087],[72.6,17165],[72.6,17253],[72.6,17332],[72.6,17415],[72.6,17498],[72.6,17581],[72.6,17665],[72.6,17753],[72.6,17837],[72.6,17915],[72.6,18003],[72.6,18087],[72.6,18170],[72.6,18248],[72.6,18332],[72.6,18415],[72.6,18499],[72.6,18581],[72.6,18670],[72.6,18748],[72.6,18837],[72.6,18916],[72.6,19001],[72.6,19082],[72.6,19172],[72.6,19248],[72.6,19332],[72.6,19415],[72.6,19498],[72.6,19582],[72.6,19665],[72.6,19754],[72.6,19835],[72.6,19920],[72.6,19998],[72.6,20082],[72.6,20171],[72.6,20256],[72.6,20335],[72.6,20415],[72.6,20505],[72.6,20587],[72.6,20670],[72.6,20754],[70.9,20832],[69.4,20921],[69.4,20999],[69.2,21082],[69.2,21165],[69.2,21254],[69.2,21332],[69.2,21421],[63.3,21504],[60.8,21587],[59.7,21671],[59.7,21748],[50.8,21838],[49.5,21921],[47.6,21998],[46.5,22082],[46.6,22165],[49.9,22254],[50.3,22336],[50.3,22415],[50.2,22504],[50.2,22585]]",0,4,4,4,1,"The next day the mayors successor, Mr. Smith, a man who was very unpopular due to his strong ties to the oil companies, took office. After a long day of brainstorming about the mysterious killer, Lucy decided to attend his welcome ceremony in the city. During the mayor's speech, she noticed one of the security guards looked strangely familiar. It dawned on her that this new mayor had motive to kill and that the man in black could've been the guard working for him.","Weeks passed and nobody had seen Margaret. Coworkers and friends searched the nearby city looking for her. One day on patrol in a nearby town, a police officer heard someone crying for help in the basement of a house and went in to investigate. Margaret yelled that she was being held captive and needed help.","Luke ran to Marta, and filled with regret over his decision to go along with Carly's plan, picked her up and rushed her to the hospital. The doctors tried to help Marta by taking her into emergency surgery but failed to save her life. Once the doctor called the time of death, Luke fell to his knees and sobbed over his rash decision.","Months later Dan had taken up a mistress, he was growing bored with his marriage ever since he got rid of Linda and was only still with Amy for her family's money. In a hotel room in a nearby town, Dan and his mistress, Nicole, conspired to secretly kill Amy while still obtaining her fortune.",,,,,,,,,,
