exp_question,consent.started,consent.stopped,consentResponse.keys,consentResponse.rt,consentResponse.duration,participantID,date,expName,psychopyVersion,OS,frameRate,STUDY_ID,SESSION_ID,opening1.started,opening1.stopped,keyEndingOpening1.keys,keyEndingOpening1.rt,keyEndingOpening1.duration,volumeAdjust.started,volumeAdjust.stopped,endingAdjust.keys,endingAdjust.rt,endingAdjust.duration,opening2.started,opening2.stopped,keyEndingOpening.keys,keyEndingOpening.rt,keyEndingOpening.duration,mouse.x,mouse.y,mouse.leftButton,mouse.midButton,mouse.rightButton,mouse.time,instructionLoop.thisRepN,instructionLoop.thisTrialN,instructionLoop.thisN,instructionLoop.thisIndex,instructionLoop.ran,readyForAudio.started,readyForAudio.stopped,fixation.started,run,audio_played,fixation.stopped,endPractice.keys,audioPre.started,audioPre.stopped,continuousResponses_audio,continuousSlider.response,continuousSlider.rt,intRating.started,intRating.stopped,intQuestionSlider.response,intQuestionSlider.rt,intQuestionSlider.history,confirmResponse.keys,confirmResponse.rt,confirmResponse.duration,catchQuestion.started,catch_label,catch_value,catchQuestion.stopped,catchQuestionSlider.response,catchQuestionSlider.rt,catchQuestionSlider.history,confirmResponse_2.keys,audioRunLoop.thisRepN,audioRunLoop.thisTrialN,audioRunLoop.thisN,audioRunLoop.thisIndex,audioRunLoop.ran,conditions1_1,conditions2_1,conditions1_2,conditions2_2,dur1_1,dur2_1,dur1_2,dur2_2,endPractice.rt,endPractice.duration,confirmResponse_2.rt,confirmResponse_2.duration,runIntervalBreak.started,runIntervalBreak.stopped,endingBreakKey.keys,endingBreakKey.rt,endingBreakKey.duration,connection.started,connection.stopped,connectionEnding.keys,connectionEnding.rt,connectionEnding.duration,readyForText.started,readyForText.stopped,textPre.started,run_dup,textPre.stopped,continuousResponses_text,textRunLoop.thisRepN,textRunLoop.thisTrialN,textRunLoop.thisN,textRunLoop.thisIndex,textRunLoop.ran,text1_1,text1_2,text2_1,text2_2,runBreakText.started,runBreakText.stopped,endingBreakKey_2.keys,endingBreakKey_2.rt,endingBreakKey_2.duration,ending.started,ending.stopped,endingEnding.keys,endingEnding.rt,endingEnding.duration
social,0,12.719,y,12.194,,663043f63dbecb9fd3c400e8,2024-05-13_12h06.46.359,group3.1-3.2-social-tom,2023.2.2,MacIntel,58.82352941,65c5074098b851296ff0b7ed,66423a6bb2db17389601cd55,,,,,,,,,,,,,,,,,,,,,,,,,,,,,,,,,,,,,,,,,,,,,,,,,,,,,,,,,,,,,,,,,,,,,,,,,,,,,,,,,,,,,,,,,,,,,,,,,,,,,,,,,,
,,,,,,663043f63dbecb9fd3c400e8,2024-05-13_12h06.46.359,group3.1-3.2-social-tom,2023.2.2,MacIntel,58.82352941,65c5074098b851296ff0b7ed,66423a6bb2db17389601cd55,12.719,20.72,space,7.956,,,,,,,,,,,,,,,,,,,,,,,,,,,,,,,,,,,,,,,,,,,,,,,,,,,,,,,,,,,,,,,,,,,,,,,,,,,,,,,,,,,,,,,,,,,,,,,,,,,,,,
,,,,,,663043f63dbecb9fd3c400e8,2024-05-13_12h06.46.359,group3.1-3.2-social-tom,2023.2.2,MacIntel,58.82352941,65c5074098b851296ff0b7ed,66423a6bb2db17389601cd55,,,,,,20.72,40.263,space,19.233,,,,,,,,,,,,,,,,,,,,,,,,,,,,,,,,,,,,,,,,,,,,,,,,,,,,,,,,,,,,,,,,,,,,,,,,,,,,,,,,,,,,,,,,,,,,,,,,,
,,,,,,663043f63dbecb9fd3c400e8,2024-05-13_12h06.46.359,group3.1-3.2-social-tom,2023.2.2,MacIntel,58.82352941,65c5074098b851296ff0b7ed,66423a6bb2db17389601cd55,,,,,,,,,,,40.273,51.087,space,10.771,,[],[],[],[],[],[],0,0,0,0,1,,,,,,,,,,,,,,,,,,,,,,,,,,,,,,,,,,,,,,,,,,,,,,,,,,,,,,,,,,,,,,,,,,,,,,,,,,,,,,,,
,,,,,,663043f63dbecb9fd3c400e8,2024-05-13_12h06.46.359,group3.1-3.2-social-tom,2023.2.2,MacIntel,58.82352941,65c5074098b851296ff0b7ed,66423a6bb2db17389601cd55,,,,,,,,,,,51.091,66.341,space,15.135,,[],[],[],[],[],[],1,0,1,0,1,,,,,,,,,,,,,,,,,,,,,,,,,,,,,,,,,,,,,,,,,,,,,,,,,,,,,,,,,,,,,,,,,,,,,,,,,,,,,,,,
,,,,,,663043f63dbecb9fd3c400e8,2024-05-13_12h06.46.359,group3.1-3.2-social-tom,2023.2.2,MacIntel,58.82352941,65c5074098b851296ff0b7ed,66423a6bb2db17389601cd55,,,,,,,,,,,66.342,77.63,space,11.223,,[],[],[],[],[],[],2,0,2,0,1,,,,,,,,,,,,,,,,,,,,,,,,,,,,,,,,,,,,,,,,,,,,,,,,,,,,,,,,,,,,,,,,,,,,,,,,,,,,,,,,
,,,,,,663043f63dbecb9fd3c400e8,2024-05-13_12h06.46.359,group3.1-3.2-social-tom,2023.2.2,MacIntel,58.82352941,65c5074098b851296ff0b7ed,66423a6bb2db17389601cd55,,,,,,,,,,,77.631,96.039,space,18.351,,[],[],[],[],[],[],3,0,3,0,1,,,,,,,,,,,,,,,,,,,,,,,,,,,,,,,,,,,,,,,,,,,,,,,,,,,,,,,,,,,,,,,,,,,,,,,,,,,,,,,,
,,,,,,663043f63dbecb9fd3c400e8,2024-05-13_12h06.46.359,group3.1-3.2-social-tom,2023.2.2,MacIntel,58.82352941,65c5074098b851296ff0b7ed,66423a6bb2db17389601cd55,,,,,,,,,,,96.041,104.108,space,8.024,,[],[],[],[],[],[],4,0,4,0,1,,,,,,,,,,,,,,,,,,,,,,,,,,,,,,,,,,,,,,,,,,,,,,,,,,,,,,,,,,,,,,,,,,,,,,,,,,,,,,,,
,,,,,,663043f63dbecb9fd3c400e8,2024-05-13_12h06.46.359,group3.1-3.2-social-tom,2023.2.2,MacIntel,58.82352941,65c5074098b851296ff0b7ed,66423a6bb2db17389601cd55,,,,,,,,,,,,,,,,,,,,,,,,,,,104.117,106.695,106.724,1,audio/Narrative13Situation2.wav,108.73,,108.73,138.498,"[[100,4600],[94.1,4685],[89.8,4767],[88,4850],[87,4934],[85.9,5017],[85.2,5100],[85,5184],[85,5267],[85,5350],[85,5433],[85,5517],[85,5601],[85,5684],[85,5767],[85,5851],[85,5935],[85,6018],[85,6100],[85,6186],[85,6268],[85,6351],[85,6434],[85,6518],[85,6601],[85,6684],[85,6768],[85,6851],[85,6935],[85,7023],[85,7105],[85,7185],[85,7268],[85,7351],[85,7435],[85,7518],[85,7601],[85,7685],[85,7768],[85,7852],[85,7935],[85,8019],[85,8102],[85,8185],[85,8269],[85,8352],[85,8436],[85,8518],[85,8602],[85,8686],[85,8769],[85,8852],[85,8936],[85,9019],[85,9102],[85,9186],[85,9269],[85,9352],[85,9436],[85,9519],[85,9602],[85,9685],[85,9769],[85,9852],[85,9936],[85,10019],[85,10102],[85,10186],[85,10269],[85,10352],[85,10436],[85,10519],[85.2,10602],[88,10686],[89.7,10769],[91.3,10852],[93.6,10936],[95.2,11019],[96.4,11102],[97.5,11186],[98,11269],[98.4,11355],[98.9,11436],[99.1,11519],[99.4,11603],[99.8,11687],[100,11769],[100,11852],[100,11937],[100,12020],[100,12103],[100,12186],[100,12270],[100,12353],[100,12436],[100,12520],[100,12603],[100,12686],[100,12769],[100,12853],[100,12937],[100,13020],[100,13103],[100,13187],[100,13270],[100,13353],[100,13437],[100,13520],[100,13603],[100,13687],[100,13771],[100,13854],[100,13936],[100,14020],[100,14104],[100,14187],[100,14270],[100,14354],[100,14437],[100,14520],[100,14604],[100,14688],[100,14771],[100,14854],[100,14937],[100,15021],[100,15104],[100,15187],[100,15271],[100,15354],[100,15438],[100,15521],[100,15605],[100,15688],[100,15771],[100,15855],[100,15938],[100,16021],[100,16105],[100,16188],[100,16271],[100,16355],[100,16438],[100,16522],[100,16605],[100,16688],[100,16772],[100,16855],[100,16938],[100,17022],[100,17107],[100,17189],[100,17272],[100,17355],[100,17441],[100,17522],[100,17605],[100,17688],[100,17772],[100,17857],[100,17939],[100,18025],[100,18105],[100,18188],[100,18272],[100,18357],[100,18439],[100,18522],[100,18607],[100,18689],[100,18772],[100,18857],[100,18941],[100,19022],[100,19107],[100,19191],[100,19274],[100,19357],[100,19441],[100,19524],[100,19608],[100,19689],[100,19774],[100,19858],[100,19941],[100,20024],[100,20108],[100,20191],[100,20276],[98.9,20358],[96.3,20441],[93.1,20525],[90.3,20608],[87.7,20691],[85.6,20775],[84.1,20857],[83.1,20941],[82,21025],[81.7,21108],[81.6,21192],[81.6,21275],[81.4,21358],[81.4,21442],[81.3,21525],[81.1,21608],[80.8,21692],[80.6,21777],[80.6,21858],[80.6,21942],[80.6,22025],[80.6,22108],[80.6,22192],[80.6,22275],[80.6,22358],[80.6,22442],[80.6,22525],[80.6,22608],[80.6,22692],[80.6,22775],[80.6,22858],[80.6,22942],[80.6,23025],[80.6,23108],[80.6,23192],[80.6,23276],[80.6,23358],[80.6,23442],[80.6,23525],[80.6,23608],[80.6,23692],[80.6,23775],[80.6,23858],[80.6,23942],[80.6,24026],[80.6,24109],[80.6,24192],[80.6,24275],[80.6,24359],[80.6,24442],[80.6,24525],[80.6,24609],[80.6,24693],[80.6,24776],[80.6,24858],[80.6,24942],[80.6,25026],[80.6,25109],[80.6,25192],[80.6,25276],[80.6,25359],[80.6,25442],[80.6,25526],[80.6,25610],[80.6,25693],[80.6,25775],[80.6,25859],[80.6,25943],[80.6,26026],[80.6,26109],[80.6,26193],[80.6,26276],[80.6,26359],[80.6,26443],[80.6,26526],[80.6,26610],[80.6,26693],[80.6,26777],[80.6,26860],[80.6,26943],[80.6,27026],[80.6,27110],[80.6,27193],[80.6,27276],[80.6,27360],[80.6,27443],[80.6,27526],[80.6,27610],[80.6,27694],[80.6,27777],[80.6,27859],[80.6,27944],[80.6,28027],[80.6,28111],[80.6,28193],[80.6,28277],[80.6,28361],[80.6,28444],[80.6,28527],[80.6,28611],[80.6,28693],[80.6,28778],[80.6,28861],[80.6,28945],[80.6,29028],[80.6,29111],[80.6,29194],[80.6,29278],[80.6,29361],[80.6,29444],[80.6,29528],[80.6,29610],[80.6,29686],[80.6,29766]]",1,0,138.498,147.082,46.5625,7.847,"[{""rating"":46.5625,""responseTime"":7.84699999999998}]",space,8.052,,147.082,Definitely yes,100,147.088,,,[],,0,0,0,0,1,audio/Narrative13Situation2.wav,audio/Narrative13Situation2.wav,audio/Narrative13Situation2.wav,audio/Narrative13Situation2.wav,2,2,2,2,,,,,,,,,,,,,,,,,,,,,,,,,,,,,,,,,,,,,,,
,,,,,,663043f63dbecb9fd3c400e8,2024-05-13_12h06.46.359,group3.1-3.2-social-tom,2023.2.2,MacIntel,58.82352941,65c5074098b851296ff0b7ed,66423a6bb2db17389601cd55,,,,,,,,,,,,,,,,,,,,,,,,,,,,,147.089,1,audio/Narrative7Situation1.wav,149.698,space,149.698,205.598,"[[46.7,1900],[48.1,1984],[49.5,2067],[50.9,2151],[51.9,2235],[55.2,2317],[60.5,2401],[69.2,2484],[82.5,2568],[91.9,2650],[96.9,2734],[98.3,2817],[100,2901],[100,2984],[100,3068],[100,3151],[100,3234],[100,3318],[100,3401],[100,3485],[100,3568],[100,3651],[100,3735],[100,3817],[100,3901],[100,3985],[100,4068],[100,4151],[100,4235],[100,4318],[100,4401],[100,4485],[100,4569],[100,4651],[100,4735],[100,4818],[100,4901],[100,4985],[100,5068],[100,5151],[100,5235],[100,5319],[100,5401],[100,5486],[100,5569],[100,5651],[100,5735],[100,5819],[100,5901],[100,5985],[100,6069],[100,6152],[100,6236],[100,6319],[100,6401],[100,6486],[100,6569],[100,6652],[100,6736],[100,6819],[100,6901],[100,6985],[100,7069],[100,7152],[100,7236],[100,7319],[100,7402],[100,7486],[100,7569],[100,7652],[100,7736],[100,7819],[100,7902],[100,7986],[100,8069],[100,8152],[100,8238],[100,8319],[100,8403],[100,8486],[100,8570],[100,8653],[100,8736],[100,8820],[100,8903],[100,8986],[100,9069],[100,9153],[100,9236],[100,9319],[100,9403],[100,9486],[100,9570],[100,9655],[100,9738],[100,9820],[100,9903],[100,9988],[100,10070],[100,10153],[100,10238],[100,10320],[100,10403],[100,10488],[100,10570],[100,10655],[100,10738],[100,10820],[100,10905],[100,10989],[100,11072],[100,11155],[100,11238],[100,11320],[100,11405],[100,11488],[100,11572],[100,11655],[100,11738],[100,11822],[100,11905],[100,11989],[100,12072],[100,12156],[100,12239],[100,12322],[100,12405],[100,12489],[100,12572],[100,12655],[100,12739],[100,12822],[100,12906],[100,12989],[100,13075],[100,13156],[100,13239],[100,13322],[100,13406],[100,13489],[100,13572],[100,13656],[100,13739],[100,13822],[100,13906],[100,13991],[100,14073],[100,14156],[100,14240],[100,14323],[100,14407],[100,14489],[100,14573],[100,14657],[100,14740],[100,14823],[100,14907],[100,14990],[100,15073],[100,15157],[100,15240],[100,15323],[100,15407],[100,15491],[100,15574],[100,15656],[100,15740],[100,15824],[100,15907],[100,15990],[100,16074],[100,16157],[100,16241],[100,16324],[100,16407],[100,16491],[100,16574],[100,16657],[100,16741],[100,16824],[100,16907],[100,16991],[100,17074],[100,17157],[100,17240],[100,17325],[100,17407],[100,17491],[100,17574],[100,17657],[100,17741],[100,17824],[100,17908],[100,17991],[100,18075],[100,18157],[100,18242],[100,18325],[100,18407],[100,18492],[100,18575],[100,18657],[100,18742],[100,18825],[100,18908],[100,18992],[100,19075],[100,19158],[100,19242],[100,19325],[100,19408],[100,19492],[100,19575],[100,19659],[100,19742],[100,19825],[100,19907],[100,19992],[100,20075],[100,20157],[100,20242],[100,20325],[100,20408],[100,20492],[100,20575],[100,20659],[100,20742],[100,20825],[100,20909],[100,20992],[100,21075],[100,21158],[100,21242],[100,21325],[100,21408],[100,21492],[100,21578],[100,21659],[100,21742],[100,21827],[100,21909],[100,21992],[100,22075],[100,22159],[100,22244],[100,22327],[100,22409],[100,22494],[100,22577],[100,22659],[100,22745],[100,22827],[100,22909],[100,22994],[100,23077],[100,23161],[100,23244],[100,23327],[100,23411],[100,23495],[100,23577],[100,23661],[100,23744],[100,23827],[100,23911],[100,23994],[100,24078],[100,24161],[100,24245],[100,24328],[100,24409],[100,24494],[100,24578],[100,24661],[100,24744],[100,24828],[100,24911],[100,24995],[100,25078],[100,25162],[100,25245],[100,25329],[100,25412],[100,25495],[100,25578],[100,25662],[100,25745],[100,25828],[100,25912],[100,25995],[100,26079],[100,26162],[100,26244],[100,26330],[100,26412],[100,26495],[100,26578],[100,26662],[100,26746],[100,26829],[100,26912],[100,26996],[100,27079],[100,27162],[100,27246],[100,27329],[100,27412],[100,27495],[100,27579],[100,27663],[100,27746],[100,27829],[100,27913],[100,27996],[100,28079],[100,28163],[100,28246],[100,28330],[100,28413],[100,28497],[100,28580],[100,28663],[100,28746],[100,28830],[100,28913],[100,28997],[100,29080],[100,29164],[100,29247],[100,29330],[100,29413],[100,29497],[100,29579],[100,29664],[100,29748],[100,29830],[100,29913],[100,29997],[100,30080],[100,30164],[100,30247],[100,30331],[100,30414],[100,30497],[100,30581],[100,30664],[100,30747],[100,30831],[100,30914],[100,30998],[100,31081],[100,31164],[100,31248],[100,31331],[100,31414],[100,31498],[100,31581],[100,31664],[100,31748],[100,31831],[100,31914],[100,31998],[100,32081],[100,32164],[100,32248],[100,32331],[100,32414],[100,32498],[100,32581],[100,32664],[100,32748],[100,32831],[100,32914],[100,32998],[100,33081],[100,33164],[100,33248],[100,33331],[100,33414],[100,33498],[100,33581],[100,33666],[100,33748],[100,33831],[100,33916],[100,33998],[100,34081],[100,34164],[100,34248],[100,34333],[100,34416],[100,34500],[100,34583],[100,34664],[100,34748],[100,34833],[100,34916],[100,34998],[100,35083],[100,35167],[100,35250],[100,35331],[100,35416],[100,35500],[100,35583],[100,35666],[100,35750],[100,35833],[100,35916],[100,36000],[100,36084],[100,36167],[100,36250],[100,36333],[100,36417],[100,36500],[100,36583],[100,36667],[100,36750],[100,36833],[100,36917],[100,37001],[100,37083],[100,37168],[100,37251],[100,37334],[100,37417],[100,37501],[100,37583],[100,37666],[100,37750],[100,37834],[100,37918],[100,38001],[100,38084],[100,38168],[100,38251],[100,38334],[100,38418],[100,38501],[100,38585],[100,38668],[100,38751],[100,38835],[100,38918],[100,39001],[100,39085],[100,39168],[100,39251],[100,39335],[100,39420],[100,39502],[100,39584],[100,39668],[100,39752],[100,39834],[100,39918],[100,40002],[100,40085],[100,40169],[100,40252],[100,40335],[100,40419],[100,40502],[100,40586],[100,40669],[100,40752],[100,40835],[100,40919],[100,41002],[100,41085],[100,41169],[100,41252],[100,41336],[100,41419],[100,41503],[100,41586],[100,41669],[100,41752],[100,41836],[100,41919],[100,42003],[100,42086],[100,42170],[100,42253],[100,42336],[100,42420],[100,42503],[100,42586],[100,42670],[100,42753],[100,42837],[100,42920],[100,43003],[100,43087],[100,43170],[100,43253],[100,43337],[100,43420],[100,43503],[100,43587],[100,43670],[100,43754],[100,43837],[100,43920],[100,44004],[100,44086],[100,44170],[100,44254],[100,44337],[100,44420],[100,44504],[100,44587],[100,44670],[100,44754],[100,44837],[100,44920],[100,45003],[100,45087],[100,45170],[100,45254],[100,45337],[100,45420],[100,45504],[100,45587],[100,45670],[100,45754],[100,45837],[100,45920],[100,46004],[100,46089],[100,46170],[100,46254],[100,46337],[100,46422],[100,46504],[100,46587],[100,46672],[100,46754],[100,46837],[100,46922],[100,47006],[100,47087],[100,47172],[100,47256],[100,47339],[100,47422],[100,47504],[100,47589],[100,47672],[100,47754],[100,47839],[100,47922],[100,48004],[100,48090],[100,48173],[100,48256],[100,48339],[100,48422],[100,48506],[100,48589],[100,48673],[100,48756],[100,48839],[100,48922],[100,49006],[100,49090],[100,49173],[100,49256],[100,49339],[100,49423],[100,49506],[100,49589],[100,49673],[100,49756],[100,49840],[100,49923],[100,50007],[100,50090],[100,50173],[100,50257],[100,50340],[100,50423],[100,50507],[100,50590],[100,50674],[100,50756],[100,50840],[100,50924],[100,51006],[100,51090],[100,51175],[100,51257],[100,51340],[100,51424],[100,51508],[100,51591],[100,51674],[100,51757],[100,51841],[100,51923],[100,52007],[100,52092],[100,52174],[100,52257],[100,52341],[100,52425],[100,52507],[100,52591],[100,52674],[100,52758],[100,52841],[100,52925],[100,53008],[100,53091],[100,53175],[100,53258],[100,53342],[100,53425],[100,53508],[100,53592],[100,53675],[100,53758],[100,53841],[100,53925],[100,54009],[100,54092],[100,54176],[100,54259],[100,54342],[100,54425],[100,54509],[100,54592],[100,54675],[100,54759],[100,54843],[100,54926],[100,55009],[100,55092],[100,55176],[100,55259],[100,55342],[100,55426],[100,55509],[100,55592],[100,55676],[100,55760],[100,55831]]",1,0,205.598,210.11,98.4375,2.669,"[{""rating"":98.4375,""responseTime"":2.6689999999999827}]",space,3.971,,210.111,Not at all,0,210.118,,,[],,0,1,1,1,1,audio/Narrative7Situation1.wav,audio/Narrative8Situation1.wav,audio/Narrative5Situation1.wav,audio/Narrative6Situation1.wav,2,5,5,2,2.577,,,,,,,,,,,,,,,,,,,,,,,,,,,,,,,,,,,,,,
,,,,,,663043f63dbecb9fd3c400e8,2024-05-13_12h06.46.359,group3.1-3.2-social-tom,2023.2.2,MacIntel,58.82352941,65c5074098b851296ff0b7ed,66423a6bb2db17389601cd55,,,,,,,,,,,,,,,,,,,,,,,,,,,,,210.119,1,audio/Narrative7Situation2.wav,213.128,,213.129,220.621,"[[98.4,6734],[98.4,6817],[98.4,6901],[98.4,6984],[98.4,7068],[98.4,7151],[98.4,7235],[98.4,7318],[98.4,7394],[98.6,7470]]",1,0,220.621,223.433,99.0625,1.559,"[{""rating"":99.0625,""responseTime"":1.5589999999999975}]",space,2.266,,223.433,Partially,50,223.44,,,[],,0,2,2,2,1,audio/Narrative7Situation2.wav,audio/Narrative8Situation2.wav,audio/Narrative5Situation2.wav,audio/Narrative6Situation2.wav,3,3,3,3,,,,,,,,,,,,,,,,,,,,,,,,,,,,,,,,,,,,,,,
,,,,,,663043f63dbecb9fd3c400e8,2024-05-13_12h06.46.359,group3.1-3.2-social-tom,2023.2.2,MacIntel,58.82352941,65c5074098b851296ff0b7ed,66423a6bb2db17389601cd55,,,,,,,,,,,,,,,,,,,,,,,,,,,,,223.44,1,audio/Narrative7Situation3.wav,231.453,,231.454,240.723,"[[999,2],[999,88],[999,165],[999,248],[999,325],[999,406],[999,484],[999,564],[999,649],[999,735],[999,816],[999,899],[999,983],[999,1064],[999,1150],[999,1233],[999,1316],[999,1400],[999,1483],[999,1566],[999,1650],[999,1733],[999,1816],[999,1900],[999,1984],[999,2067],[999,2149],[999,2233],[999,2317],[999,2399],[999,2483],[999,2567],[999,2650],[999,2734],[999,2817],[999,2899],[999,2984],[999,3067],[999,3151],[999,3234],[999,3317],[999,3401],[999,3484],[999,3567],[999,3651],[999,3734],[999,3817],[999,3901],[999,3984],[999,4068],[999,4151],[999,4234],[999,4318],[999,4400],[999,4485],[999,4567],[999,4651],[999,4735],[999,4818],[73.6,4901],[66.7,4984],[59.4,5068],[56.3,5151],[55.2,5235],[53,5317],[50.2,5401],[49.5,5485],[49.5,5568],[49.5,5651],[49.5,5735],[49.5,5819],[49.5,5901],[49.5,5984],[49.5,6068],[49.5,6151],[49.5,6235],[49.5,6319],[49.5,6401],[49.5,6486],[49.5,6569],[49.5,6651],[49.5,6736],[49.5,6819],[49.5,6903],[49.5,6984],[49.5,7069],[49.5,7153],[49.5,7236],[49.5,7319],[49.5,7403],[49.5,7486],[49.5,7568],[49.5,7651],[49.5,7736],[49.5,7819],[49.5,7901],[49.5,7986],[49.5,8069],[49.5,8151],[49.5,8236],[49.5,8319],[49.5,8403],[49.5,8486],[49.5,8569],[49.5,8653],[49.5,8736],[49.5,8819],[49.5,8903],[49.5,8986],[55,9069],[61.6,9153],[64.7,9221]]",1,0,240.723,243.678,65.15625,2.146,"[{""rating"":65.15625,""responseTime"":2.146000000000015}]",space,2.421,,243.678,Partially,50,243.683,,,[],,0,3,3,3,1,audio/Narrative7Situation3.wav,audio/Narrative8Situation3.wav,audio/Narrative5Situation3.wav,audio/Narrative6Situation3.wav,8,4,3,5,,,,,,,,,,,,,,,,,,,,,,,,,,,,,,,,,,,,,,,
,,,,,,663043f63dbecb9fd3c400e8,2024-05-13_12h06.46.359,group3.1-3.2-social-tom,2023.2.2,MacIntel,58.82352941,65c5074098b851296ff0b7ed,66423a6bb2db17389601cd55,,,,,,,,,,,,,,,,,,,,,,,,,,,,,243.684,1,audio/Narrative7Situation4.wav,246.694,,246.694,258.433,"[[66.3,2900],[75.6,2984],[88.4,3068],[95,3150],[97.5,3234],[100,3318],[100,3402],[100,3484],[100,3567],[100,3651],[100,3735],[100,3818],[100,3903],[100,3985],[100,4068],[100,4151],[100,4235],[100,4319],[100,4402],[100,4484],[100,4568],[100,4652],[100,4735],[100,4818],[100,4902],[100,4985],[100,5068],[100,5152],[100,5236],[100,5319],[100,5402],[100,5485],[100,5569],[100,5653],[100,5735],[100,5819],[100,5902],[100,5986],[100,6069],[100,6153],[100,6236],[100,6319],[100,6402],[100,6486],[100,6569],[100,6652],[100,6736],[100,6819],[100,6903],[100,6987],[100,7070],[100,7153],[100,7236],[100,7320],[100,7403],[100,7486],[100,7570],[100,7653],[100,7737],[100,7820],[100,7903],[100,7987],[100,8069],[100,8153],[100,8237],[100,8321],[100,8404],[100,8487],[100,8571],[100,8654],[100,8736],[100,8820],[100,8904],[100,8987],[100,9070],[100,9154],[100,9237],[100,9321],[100,9404],[100,9488],[100,9570],[100,9654],[100,9737],[100,9821],[100,9904],[100,9987],[100,10071],[100,10154],[100,10238],[100,10321],[100,10406],[100,10488],[100,10571],[100,10655],[100,10738],[100,10821],[100,10904],[100,10988],[100,11071],[100,11154],[100,11238],[100,11322],[100,11405],[100,11488],[100,11573],[100,11643],[100,11722]]",1,0,258.433,260.584,98.28125,1.375,"[{""rating"":98.28125,""responseTime"":1.375}]",space,1.603,,260.584,Not at all,0,260.591,,,[],,0,4,4,4,1,audio/Narrative7Situation4.wav,audio/Narrative8Situation4.wav,audio/Narrative5Situation4.wav,audio/Narrative6Situation4.wav,3,3,1,2,,,,,,,,,,,,,,,,,,,,,,,,,,,,,,,,,,,,,,,
,,,,,,663043f63dbecb9fd3c400e8,2024-05-13_12h06.46.359,group3.1-3.2-social-tom,2023.2.2,MacIntel,58.82352941,65c5074098b851296ff0b7ed,66423a6bb2db17389601cd55,,,,,,,,,,,,,,,,,,,,,,,,,,,,,260.591,1,audio/Narrative7Situation5.wav,265.603,,265.603,274.091,"[[98.4,3739],[98.6,3817],[98.6,3902],[98.8,3985],[98.8,4068],[98.8,4151],[98.8,4235],[98.8,4318],[98.9,4402],[99.5,4485],[100,4569],[100,4651],[100,4736],[100,4819],[100,4901],[100,4985],[100,5068],[100,5152],[100,5235],[100,5318],[100,5402],[100,5486],[100,5569],[100,5652],[100,5736],[100,5819],[100,5901],[100,5985],[100,6069],[100,6153],[100,6236],[100,6319],[100,6403],[100,6485],[100,6569],[100,6653],[100,6736],[100,6819],[100,6903],[100,6986],[100,7070],[100,7152],[100,7236],[100,7320],[100,7402],[100,7486],[100,7570],[100,7653],[100,7736],[100,7820],[100,7904],[100,7987],[100,8070],[100,8153],[100,8237],[100,8320],[100,8396],[100,8470]]",1,0,274.092,278.526,50,2.942,"[{""rating"":50,""responseTime"":2.9420000000000073}]",space,3.889,,278.527,Partially,50,278.533,,,[],,0,5,5,5,1,audio/Narrative7Situation5.wav,audio/Narrative8Situation5.wav,audio/Narrative5Situation5.wav,audio/Narrative6Situation5.wav,5,2,5,2,,,,,,,,,,,,,,,,,,,,,,,,,,,,,,,,,,,,,,,
,,,,,,663043f63dbecb9fd3c400e8,2024-05-13_12h06.46.359,group3.1-3.2-social-tom,2023.2.2,MacIntel,58.82352941,65c5074098b851296ff0b7ed,66423a6bb2db17389601cd55,,,,,,,,,,,,,,,,,,,,,,,,,,,,,278.534,1,audio/Narrative7Situation6.wav,281.544,,281.544,291.532,"[[999,2],[999,83],[999,165],[999,249],[999,328],[999,401],[999,483],[999,566],[999,649],[999,733],[999,816],[999,899],[999,983],[999,1067],[999,1149],[999,1233],[999,1317],[999,1399],[999,1483],[999,1567],[999,1649],[999,1733],[999,1817],[999,1899],[96.7,1983],[97.3,2067],[97.8,2149],[98.3,2233],[98.6,2324],[99.1,2406],[99.5,2483],[99.7,2567],[100,2649],[100,2733],[100,2817],[100,2899],[100,2983],[100,3067],[100,3151],[100,3233],[100,3317],[100,3401],[100,3483],[100,3567],[100,3651],[100,3733],[100,3817],[100,3901],[100,3985],[100,4067],[100,4151],[100,4235],[100,4317],[100,4401],[100,4485],[100,4567],[100,4651],[100,4735],[100,4817],[100,4901],[100,4985],[100,5067],[100,5151],[100,5235],[100,5319],[100,5401],[100,5485],[100,5567],[100,5651],[100,5735],[100,5819],[100,5901],[100,5985],[100,6069],[100,6151],[100,6235],[100,6319],[100,6403],[100,6485],[100,6567],[100,6651],[100,6735],[100,6819],[100,6901],[100,6985],[100,7069],[100,7151],[100,7235],[100,7319],[100,7403],[100,7485],[100,7569],[100,7653],[100,7737],[100,7819],[100,7901],[100,7985],[100,8069],[100,8153],[100,8237],[100,8319],[100,8403],[100,8487],[100,8569],[100,8653],[100,8737],[100,8820],[100,8903],[100,8987],[100,9069],[100,9153],[100,9237],[100,9320],[100,9403],[100,9487],[100,9569],[100,9653],[100,9738],[100,9820],[100,9889],[100,9970]]",1,0,291.532,293.349,99.21875,1.331,"[{""rating"":99.21875,""responseTime"":1.3310000000000173}]",space,1.268,,293.349,Definitely yes,100,293.356,,,[],,0,6,6,6,1,audio/Narrative7Situation6.wav,audio/Narrative8Situation6.wav,audio/Narrative5Situation6.wav,audio/Narrative6Situation6.wav,3,2,3,2,,,,,,,,,,,,,,,,,,,,,,,,,,,,,,,,,,,,,,,
,,,,,,663043f63dbecb9fd3c400e8,2024-05-13_12h06.46.359,group3.1-3.2-social-tom,2023.2.2,MacIntel,58.82352941,65c5074098b851296ff0b7ed,66423a6bb2db17389601cd55,,,,,,,,,,,,,,,,,,,,,,,,,,,,,293.357,1,audio/Narrative7Situation7.wav,298.368,,298.368,315.527,"[[97.8,4901],[94.4,4985],[90.6,5069],[87.2,5151],[84.2,5235],[82.5,5319],[82.2,5401],[82.2,5485],[82.2,5569],[82,5653],[82,5735],[82.2,5819],[82.7,5903],[87.7,5985],[93.4,6069],[96.3,6151],[96.9,6235],[96.9,6319],[96.9,6403],[97,6486],[97.7,6569],[98.4,6653],[99.2,6736],[99.8,6819],[100,6903],[100,6986],[100,7069],[100,7153],[100,7236],[100,7319],[100,7403],[100,7486],[100,7569],[100,7653],[100,7736],[100,7820],[100,7903],[100,7986],[100,8072],[100,8153],[100,8236],[100,8319],[100,8403],[100,8486],[100,8569],[100,8653],[100,8736],[100,8820],[100,8903],[100,8988],[100,9070],[100,9153],[100,9238],[100,9320],[100,9404],[100,9486],[100,9572],[100,9654],[100,9738],[100,9820],[100,9904],[100,9988],[100,10070],[100,10154],[100,10238],[100,10322],[100,10403],[100,10488],[100,10572],[100,10654],[100,10738],[100,10822],[100,10904],[100,10988],[100,11072],[100,11154],[100,11238],[100,11322],[100,11406],[100,11488],[100,11572],[100,11656],[100,11738],[100,11822],[100,11906],[100,11990],[100,12072],[100,12156],[100,12238],[100,12322],[100,12406],[100,12488],[100,12572],[100,12656],[100,12740],[100,12822],[100,12906],[100,12990],[100,13072],[100,13156],[100,13238],[100,13322],[100,13406],[100,13490],[100,13572],[100,13656],[100,13740],[100,13822],[100,13906],[100,13988],[100,14072],[100,14156],[100,14240],[100,14322],[100,14406],[100,14490],[100,14574],[100,14656],[100,14740],[100,14824],[100,14906],[100,14990],[100,15074],[100,15156],[100,15240],[100,15324],[100,15406],[100,15490],[100,15574],[100,15658],[100,15740],[100,15824],[100,15906],[100,15990],[100,16074],[100,16156],[100,16240],[100,16324],[100,16408],[100,16490],[100,16574],[100,16658],[100,16740],[100,16824],[100,16908],[100,16992],[100,17067],[100,17141]]",1,0,315.527,317.361,99.6875,1.292,"[{""rating"":99.6875,""responseTime"":1.29200000000003}]",space,1.29,,317.361,Not at all,0,317.367,,,[],,0,7,7,7,1,audio/Narrative7Situation7.wav,audio/Narrative8Situation7.wav,audio/Narrative5Situation7.wav,audio/Narrative6Situation7.wav,5,3,4,5,,,,,,,,,,,,,,,,,,,,,,,,,,,,,,,,,,,,,,,
,,,,,,663043f63dbecb9fd3c400e8,2024-05-13_12h06.46.359,group3.1-3.2-social-tom,2023.2.2,MacIntel,58.82352941,65c5074098b851296ff0b7ed,66423a6bb2db17389601cd55,,,,,,,,,,,,,,,,,,,,,,,,,,,,,317.368,1,audio/Narrative7Situation8.wav,319.378,,319.378,329.39,"[[99.8,4901],[99.8,4985],[99.8,5069],[99.8,5151],[99.8,5235],[99.8,5319],[99.8,5401],[100,5485],[100,5569],[100,5651],[100,5735],[100,5819],[100,5903],[100,5985],[100,6069],[100,6153],[100,6235],[100,6319],[100,6403],[100,6486],[100,6569],[100,6653],[100,6735],[100,6819],[100,6903],[100,6985],[100,7069],[100,7153],[100,7235],[100,7319],[100,7403],[100,7486],[100,7569],[100,7653],[100,7736],[100,7819],[100,7903],[100,7986],[100,8069],[100,8153],[100,8236],[100,8322],[100,8403],[100,8486],[100,8571],[100,8653],[100,8736],[100,8821],[100,8903],[100,8986],[100,9071],[100,9153],[100,9238],[100,9321],[100,9403],[100,9488],[100,9571],[100,9653],[100,9738],[100,9821],[100,9905],[100,9973]]",1,0,329.39,332.402,99.84375,2.422,"[{""rating"":99.84375,""responseTime"":2.4220000000000255}]",space,2.468,,332.402,Partially,50,332.408,,,[],,0,8,8,8,1,audio/Narrative7Situation8.wav,audio/Narrative8Situation8.wav,audio/Narrative5Situation8.wav,audio/Narrative6Situation8.wav,2,3,3,5,,,,,,,,,,,,,,,,,,,,,,,,,,,,,,,,,,,,,,,
,,,,,,663043f63dbecb9fd3c400e8,2024-05-13_12h06.46.359,group3.1-3.2-social-tom,2023.2.2,MacIntel,58.82352941,65c5074098b851296ff0b7ed,66423a6bb2db17389601cd55,,,,,,,,,,,,,,,,,,,,,,,,,,,,,332.408,1,audio/Narrative7Situation9.wav,334.42,,334.42,343.059,"[[99.4,5068],[98.8,5151],[98.6,5235],[98.6,5318],[98.6,5400],[98.8,5485],[98.9,5568],[99.2,5651],[99.5,5734],[100,5818],[100,5901],[100,5984],[100,6068],[100,6152],[100,6235],[100,6317],[100,6401],[100,6485],[100,6567],[100,6651],[100,6735],[100,6818],[100,6901],[100,6985],[100,7069],[100,7152],[100,7235],[100,7319],[100,7402],[100,7485],[100,7568],[100,7652],[100,7736],[100,7819],[100,7902],[100,7985],[100,8069],[100,8152],[100,8236],[100,8319],[100,8402],[100,8486],[100,8557],[100,8639]]",1,0,343.059,344.574,99.21875,1.043,"[{""rating"":99.21875,""responseTime"":1.0429999999999495}]",space,0.969,,344.574,Not at all,0,344.58,,,[],,0,9,9,9,1,audio/Narrative7Situation9.wav,audio/Narrative8Situation9.wav,audio/Narrative5Situation9.wav,audio/Narrative6Situation9.wav,2,3,3,4,,,,,,,,,,,,,,,,,,,,,,,,,,,,,,,,,,,,,,,
,,,,,,663043f63dbecb9fd3c400e8,2024-05-13_12h06.46.359,group3.1-3.2-social-tom,2023.2.2,MacIntel,58.82352941,65c5074098b851296ff0b7ed,66423a6bb2db17389601cd55,,,,,,,,,,,,,,,,,,,,,,,,,,,,,344.581,1,audio/Narrative8Situation1.wav,349.593,,349.593,365.534,"[[95.6,2317],[90.6,2400],[89.8,2484],[89.7,2566],[87.7,2650],[85,2734],[84.8,2817],[84.8,2901],[84.8,2985],[84.8,3068],[84.8,3151],[84.8,3234],[84.8,3317],[84.8,3401],[84.8,3484],[84.8,3567],[84.8,3651],[84.8,3734],[84.8,3817],[84.8,3901],[84.8,3984],[88.1,4067],[96.3,4151],[100,4235],[100,4317],[100,4401],[100,4484],[100,4569],[100,4652],[100,4735],[100,4818],[100,4902],[100,4985],[100,5069],[100,5152],[100,5236],[100,5318],[100,5402],[100,5485],[100,5569],[100,5652],[100,5735],[100,5819],[100,5902],[100,5985],[100,6069],[100,6152],[100,6235],[100,6319],[100,6403],[100,6486],[100,6569],[100,6653],[100,6736],[100,6819],[100,6902],[100,6986],[100,7069],[100,7152],[100,7236],[100,7319],[100,7403],[100,7485],[100,7569],[100,7653],[100,7737],[100,7819],[100,7903],[100,7986],[100,8069],[100,8153],[100,8237],[100,8320],[100,8403],[100,8488],[100,8570],[100,8653],[100,8736],[100,8820],[100,8904],[100,8987],[100,9070],[100,9154],[100,9237],[100,9320],[100,9404],[100,9487],[100,9570],[100,9655],[100,9738],[100,9821],[100,9903],[100,9987],[100,10071],[100,10154],[100,10237],[100,10321],[100,10404],[100,10487],[100,10571],[100,10655],[100,10737],[100,10821],[100,10904],[100,10988],[100,11071],[100,11154],[100,11239],[100,11321],[100,11405],[100,11488],[100,11572],[100,11655],[100,11738],[100,11822],[100,11906],[100,11988],[100,12071],[100,12155],[100,12239],[100,12321],[100,12405],[100,12489],[100,12572],[100,12655],[100,12739],[100,12822],[100,12905],[100,12990],[100,13072],[100,13156],[100,13239],[100,13322],[100,13406],[100,13489],[100,13572],[100,13656],[100,13739],[100,13822],[100,13906],[100,13990],[100,14073],[100,14155],[100,14239],[100,14323],[100,14406],[100,14489],[100,14573],[100,14656],[100,14740],[100,14823],[100,14906],[100,14990],[100,15073],[100,15157],[100,15240],[100,15323],[100,15406],[100,15490],[100,15573],[100,15657],[100,15740],[100,15823],[100,15891]]",1,0,365.534,367.751,99.53125,1.444,"[{""rating"":99.53125,""responseTime"":1.4440000000000168}]",space,1.668,,367.751,Not at all,0,367.756,,,[],,0,10,10,10,1,audio/Narrative8Situation1.wav,audio/Narrative7Situation1.wav,audio/Narrative6Situation1.wav,audio/Narrative5Situation1.wav,5,2,2,5,,,,,,,,,,,,,,,,,,,,,,,,,,,,,,,,,,,,,,,
,,,,,,663043f63dbecb9fd3c400e8,2024-05-13_12h06.46.359,group3.1-3.2-social-tom,2023.2.2,MacIntel,58.82352941,65c5074098b851296ff0b7ed,66423a6bb2db17389601cd55,,,,,,,,,,,,,,,,,,,,,,,,,,,,,367.756,1,audio/Narrative8Situation2.wav,370.77,,370.77,380.908,"[[99.4,1650],[99.4,1733],[99.4,1817],[99.4,1900],[99.4,1983],[99.4,2067],[99.4,2151],[99.4,2233],[99.4,2316],[99.4,2400],[99.4,2483],[99.4,2567],[99.4,2650],[99.4,2733],[99.4,2817],[99.4,2900],[97.7,2983],[89.4,3067],[79.8,3151],[69.1,3233],[62.3,3317],[59.5,3401],[57.8,3483],[56.1,3567],[54.4,3651],[54.1,3733],[54.1,3817],[54.1,3901],[54.1,3983],[52.2,4067],[50.9,4151],[50.8,4233],[50.6,4317],[50.5,4400],[50.3,4483],[50.2,4567],[50,4651],[50,4735],[50,4817],[50,4901],[50,4985],[50,5067],[50,5151],[50,5235],[50,5317],[50,5401],[46.6,5485],[37.7,5567],[30.5,5651],[26.3,5735],[24.4,5819],[24.4,5901],[24.4,5985],[24.4,6067],[24.4,6151],[24.4,6235],[24.4,6317],[24.4,6401],[24.4,6485],[24.4,6569],[24.4,6651],[24.4,6735],[24.4,6819],[24.4,6901],[24.4,6985],[24.4,7069],[24.4,7151],[24.4,7235],[24.4,7319],[24.4,7403],[24.4,7485],[24.4,7569],[24.4,7653],[24.4,7735],[24.4,7819],[24.4,7903],[24.4,7985],[24.4,8069],[24.4,8153],[24.4,8235],[24.4,8319],[24.4,8403],[24.4,8485],[24.4,8569],[24.4,8653],[24.4,8735],[24.4,8819],[24.4,8903],[24.4,8985],[24.4,9069],[24.4,9153],[24.4,9237],[24.4,9319],[24.4,9403],[24.4,9487],[24.4,9569],[24.4,9653],[24.4,9737],[24.4,9819],[24.4,9903],[24.4,9987],[24.4,10054],[24.4,10137]]",1,0,380.908,383.025,23.125,1.492,"[{""rating"":23.125,""responseTime"":1.4920000000000186}]",space,1.568,,383.025,Partially,50,383.032,,,[],,0,11,11,11,1,audio/Narrative8Situation2.wav,audio/Narrative7Situation2.wav,audio/Narrative6Situation2.wav,audio/Narrative5Situation2.wav,3,3,3,3,,,,,,,,,,,,,,,,,,,,,,,,,,,,,,,,,,,,,,,
,,,,,,663043f63dbecb9fd3c400e8,2024-05-13_12h06.46.359,group3.1-3.2-social-tom,2023.2.2,MacIntel,58.82352941,65c5074098b851296ff0b7ed,66423a6bb2db17389601cd55,,,,,,,,,,,,,,,,,,,,,,,,,,,,,383.032,1,audio/Narrative8Situation3.wav,387.044,,387.044,409.438,"[[60.8,1399],[60.8,1483],[59.7,1567],[57.3,1649],[55,1733],[52.7,1819],[51.9,1899],[51.7,1983],[51.3,2067],[50.9,2151],[50.8,2233],[50.8,2317],[50.8,2399],[50.8,2483],[50.8,2569],[50.8,2649],[50.8,2733],[50.8,2817],[50.8,2901],[50.8,2983],[50.8,3067],[50.8,3151],[50.8,3233],[55.5,3317],[60.5,3401],[63,3483],[63.6,3567],[63.6,3651],[63.6,3735],[63.6,3817],[63.6,3901],[63.6,3985],[63.6,4067],[63.6,4151],[63.6,4235],[63.9,4317],[65.9,4406],[69.5,4489],[74.5,4570],[80.3,4653],[85.2,4735],[86.4,4817],[86.4,4901],[86.4,4985],[86.4,5067],[86.4,5151],[86.4,5235],[86.4,5319],[86.4,5403],[86.4,5485],[86.4,5569],[86.4,5651],[86.4,5738],[86.4,5819],[86.4,5901],[86.4,5985],[86.4,6069],[86.4,6151],[86.4,6235],[86.4,6319],[86.4,6403],[86.4,6485],[86.4,6569],[86.4,6651],[86.4,6735],[86.4,6819],[86.4,6901],[86.4,6985],[86.4,7069],[86.4,7153],[86.4,7235],[89.2,7319],[96.9,7403],[100,7485],[100,7569],[100,7653],[100,7735],[100,7819],[100,7903],[100,7987],[100,8069],[100,8153],[100,8237],[100,8319],[100,8403],[100,8487],[100,8569],[100,8653],[100,8735],[100,8819],[100,8903],[100,8987],[100,9069],[100,9153],[100,9237],[100,9319],[100,9403],[100,9487],[100,9570],[100,9653],[100,9738],[100,9820],[100,9903],[100,9988],[100,10070],[100,10153],[100,10237],[100,10320],[100,10403],[100,10488],[100,10570],[100,10655],[100,10738],[100,10820],[100,10903],[100,10988],[100,11070],[100,11153],[100,11238],[100,11320],[100,11403],[100,11489],[100,11572],[100,11655],[100,11737],[100,11822],[100,11905],[100,11989],[100,12072],[100,12156],[100,12239],[100,12322],[100,12405],[100,12489],[100,12572],[100,12655],[100,12739],[100,12822],[100,12905],[100,12989],[100,13072],[100,13156],[100,13239],[100,13322],[100,13406],[100,13488],[100,13572],[100,13656],[100,13739],[100,13822],[100,13906],[100,13990],[100,14072],[100,14156],[100,14239],[100,14322],[100,14406],[100,14489],[100,14572],[100,14656],[100,14740],[100,14822],[100,14906],[100,14990],[100,15074],[100,15156],[100,15240],[100,15322],[100,15406],[100,15490],[100,15574],[100,15656],[100,15740],[100,15824],[100,15906],[100,15990],[100,16072],[100,16156],[100,16240],[100,16324],[100,16406],[100,16490],[100,16574],[100,16656],[100,16740],[100,16824],[100,16906],[100,16990],[100,17074],[100,17158],[100,17240],[100,17324],[100,17408],[100,17490],[100,17574],[100,17656],[100,17740],[100,17824],[100,17908],[100,17990],[100,18074],[100,18158],[100,18240],[100,18324],[100,18411],[100,18490],[100,18574],[100,18658],[100,18742],[100,18824],[100,18908],[100,18992],[100,19074],[100,19158],[100,19242],[100,19324],[100,19408],[100,19492],[100,19576],[100,19658],[100,19742],[100,19824],[100,19908],[100,19992],[100,20074],[100,20158],[100,20242],[100,20326],[100,20408],[100,20492],[100,20576],[100,20661],[100,20742],[100,20826],[100,20908],[100,20992],[100,21076],[100,21158],[100,21242],[100,21326],[100,21410],[100,21492],[100,21576],[100,21660],[100,21742],[100,21826],[100,21910],[100,21992],[100,22077],[100,22160],[100,22242],[100,22310],[100,22393]]",1,0,409.439,411.355,99.84375,1.308,"[{""rating"":99.84375,""responseTime"":1.3079999999999927}]",space,1.369,,411.355,Not at all,0,411.361,,,[],,0,12,12,12,1,audio/Narrative8Situation3.wav,audio/Narrative7Situation3.wav,audio/Narrative6Situation3.wav,audio/Narrative5Situation3.wav,4,8,5,3,,,,,,,,,,,,,,,,,,,,,,,,,,,,,,,,,,,,,,,
,,,,,,663043f63dbecb9fd3c400e8,2024-05-13_12h06.46.359,group3.1-3.2-social-tom,2023.2.2,MacIntel,58.82352941,65c5074098b851296ff0b7ed,66423a6bb2db17389601cd55,,,,,,,,,,,,,,,,,,,,,,,,,,,,,411.362,1,audio/Narrative8Situation4.wav,414.373,,414.373,428.53,"[[99.7,2483],[99.4,2567],[99.2,2651],[99.1,2735],[99.1,2819],[99.1,2901],[99.1,2983],[99.4,3067],[99.7,3151],[100,3235],[100,3317],[100,3401],[100,3485],[100,3567],[100,3651],[100,3735],[100,3819],[100,3901],[100,3985],[100,4069],[100,4151],[100,4235],[100,4317],[100,4401],[100,4485],[100,4567],[100,4653],[100,4735],[100,4819],[100,4901],[100,4985],[100,5069],[100,5151],[100,5237],[100,5319],[100,5403],[100,5485],[100,5569],[100,5653],[100,5735],[100,5819],[100,5903],[100,5985],[100,6069],[100,6153],[100,6235],[100,6319],[100,6403],[100,6485],[100,6571],[100,6653],[100,6735],[100,6819],[100,6903],[100,6987],[100,7069],[100,7153],[100,7237],[100,7319],[100,7403],[100,7487],[100,7569],[100,7653],[100,7738],[100,7822],[100,7903],[100,7987],[100,8071],[100,8153],[100,8237],[100,8321],[100,8403],[100,8488],[100,8569],[100,8653],[100,8738],[100,8819],[100,8903],[100,8988],[100,9071],[100,9153],[100,9238],[100,9321],[100,9403],[100,9488],[100,9571],[100,9654],[100,9738],[100,9821],[100,9904],[100,9988],[100,10071],[100,10154],[100,10238],[100,10321],[100,10404],[100,10488],[100,10572],[100,10653],[100,10738],[100,10822],[100,10903],[100,10988],[100,11072],[100,11154],[100,11238],[100,11322],[100,11404],[100,11488],[100,11572],[100,11656],[100,11738],[100,11822],[100,11906],[100,11988],[100,12072],[100,12154],[100,12238],[100,12322],[100,12406],[100,12488],[100,12572],[100,12656],[100,12738],[100,12822],[100,12906],[100,12990],[100,13072],[100,13156],[100,13240],[100,13322],[100,13406],[100,13488],[100,13572],[100,13656],[100,13740],[100,13824],[100,13906],[100,13988],[100,14065],[100,14141]]",1,0,428.531,433.716,99.375,2.925,"[{""rating"":99.375,""responseTime"":2.9250000000000114}]",space,4.636,,433.717,Definitely yes,100,433.722,,,[],,0,13,13,13,1,audio/Narrative8Situation4.wav,audio/Narrative7Situation4.wav,audio/Narrative6Situation4.wav,audio/Narrative5Situation4.wav,3,3,2,1,,,,,,,,,,,,,,,,,,,,,,,,,,,,,,,,,,,,,,,
,,,,,,663043f63dbecb9fd3c400e8,2024-05-13_12h06.46.359,group3.1-3.2-social-tom,2023.2.2,MacIntel,58.82352941,65c5074098b851296ff0b7ed,66423a6bb2db17389601cd55,,,,,,,,,,,,,,,,,,,,,,,,,,,,,433.723,1,audio/Narrative8Situation5.wav,435.734,,435.734,443.988,"[[99.5,3567],[99.7,3651],[99.8,3734],[99.8,3817],[99.8,3901],[99.8,3985],[99.8,4067],[100,4151],[100,4235],[100,4317],[100,4401],[100,4485],[100,4567],[100,4651],[100,4735],[100,4817],[100,4901],[100,4985],[100,5067],[100,5151],[100,5235],[100,5317],[100,5401],[100,5485],[100,5567],[100,5653],[100,5735],[100,5819],[100,5901],[100,5985],[100,6069],[100,6151],[100,6235],[100,6319],[100,6401],[100,6485],[100,6569],[100,6651],[100,6735],[100,6819],[100,6903],[100,6985],[100,7069],[100,7151],[100,7235],[100,7319],[100,7401],[100,7485],[100,7569],[100,7651],[100,7735],[100,7819],[100,7903],[100,7987],[100,8069],[100,8149],[100,8220]]",1,0,443.989,446.389,99.6875,1.361,"[{""rating"":99.6875,""responseTime"":1.36099999999999}]",space,1.851,,446.389,Definitely yes,100,446.393,,,[],,0,14,14,14,1,audio/Narrative8Situation5.wav,audio/Narrative7Situation5.wav,audio/Narrative6Situation5.wav,audio/Narrative5Situation5.wav,2,5,2,5,,,,,,,,,,,,,,,,,,,,,,,,,,,,,,,,,,,,,,,
,,,,,,663043f63dbecb9fd3c400e8,2024-05-13_12h06.46.359,group3.1-3.2-social-tom,2023.2.2,MacIntel,58.82352941,65c5074098b851296ff0b7ed,66423a6bb2db17389601cd55,,,,,,,,,,,,,,,,,,,,,,,,,,,,,446.393,1,audio/Narrative8Situation6.wav,448.406,,448.406,454.86,"[[999,2],[999,83],[999,165],[999,250],[999,323],[999,404],[999,483],[999,567],[999,649],[999,733],[999,817],[999,901],[999,983],[999,1065],[999,1149],[999,1233],[999,1317],[999,1399],[999,1483],[999,1567],[999,1649],[999,1733],[999,1817],[999,1899],[999,1983],[999,2067],[999,2151],[999,2233],[999,2317],[999,2401],[999,2483],[81.9,2567],[81.9,2651],[81.9,2733],[81.9,2817],[81.9,2901],[81.9,2984],[81.9,3067],[81.9,3151],[81.9,3233],[81.9,3317],[81.9,3401],[81.9,3483],[81.9,3567],[81.9,3651],[81.9,3734],[81.9,3817],[81.9,3901],[81.9,3984],[81.9,4067],[81.9,4151],[81.9,4233],[81.9,4317],[81.9,4401],[81.9,4485],[81.9,4568],[81.9,4651],[81.9,4734],[81.9,4818],[81.9,4901],[81.9,4984],[81.9,5068],[81.9,5151],[81.9,5235],[81.9,5318],[81.9,5401],[81.9,5485],[81.9,5568],[81.9,5651],[81.9,5735],[81.9,5818],[81.9,5901],[81.9,5985],[81.9,6067],[80,6151],[62.8,6235],[54.5,6319],[53,6390]]",1,0,454.861,458.911,47.96875,2.126,"[{""rating"":47.96875,""responseTime"":2.1259999999999764}]",space,3.503,,458.912,Definitely yes,100,458.915,,,[],,0,15,15,15,1,audio/Narrative8Situation6.wav,audio/Narrative7Situation6.wav,audio/Narrative6Situation6.wav,audio/Narrative5Situation6.wav,2,3,2,3,,,,,,,,,,,,,,,,,,,,,,,,,,,,,,,,,,,,,,,
,,,,,,663043f63dbecb9fd3c400e8,2024-05-13_12h06.46.359,group3.1-3.2-social-tom,2023.2.2,MacIntel,58.82352941,65c5074098b851296ff0b7ed,66423a6bb2db17389601cd55,,,,,,,,,,,,,,,,,,,,,,,,,,,,,458.916,1,audio/Narrative8Situation7.wav,461.929,,461.929,474.002,"[[999,2],[999,81],[999,167],[999,251],[999,323],[999,400],[999,483],[999,567],[999,651],[999,733],[999,818],[999,900],[999,985],[999,1067],[999,1150],[999,1233],[999,1317],[999,1400],[999,1484],[999,1567],[999,1650],[999,1734],[999,1818],[999,1900],[51.4,1984],[51.1,2068],[50.8,2151],[50.8,2234],[50.8,2317],[50.8,2401],[50.8,2485],[50.8,2567],[50.8,2651],[50.8,2735],[50.9,2818],[51.3,2901],[54.5,2985],[60.9,3068],[66.9,3152],[71.9,3234],[76.9,3318],[78.8,3401],[80.2,3484],[80.2,3568],[80.2,3652],[80.2,3735],[80.2,3818],[80.2,3902],[80.2,3985],[80.2,4068],[80.2,4151],[80.2,4235],[80.2,4319],[80.2,4402],[80.2,4485],[80.2,4569],[80.2,4652],[80.2,4735],[80.2,4819],[80.2,4903],[80.2,4985],[80.2,5069],[80.2,5153],[80.2,5235],[80.2,5319],[80.2,5402],[80.2,5487],[80.2,5569],[80.2,5652],[80.2,5735],[80.2,5819],[80.2,5903],[80.2,5985],[80.2,6069],[80.2,6153],[80.2,6235],[84.2,6319],[91.6,6403],[96.9,6485],[99.1,6569],[100,6653],[100,6737],[100,6819],[100,6903],[100,6987],[100,7069],[100,7153],[100,7237],[100,7319],[100,7403],[100,7485],[100,7569],[100,7653],[100,7737],[100,7819],[100,7903],[100,7987],[100,8069],[100,8153],[100,8237],[100,8319],[100,8405],[100,8488],[100,8569],[100,8653],[100,8737],[100,8821],[100,8903],[100,8987],[100,9071],[100,9153],[100,9237],[100,9322],[100,9405],[100,9488],[100,9571],[100,9653],[100,9738],[100,9821],[100,9905],[100,9988],[100,10071],[100,10155],[100,10238],[100,10322],[100,10403],[100,10488],[100,10572],[100,10655],[100,10738],[100,10821],[100,10905],[100,10988],[100,11073],[100,11155],[100,11240],[100,11321],[100,11405],[100,11488],[100,11573],[100,11655],[100,11738],[100,11822],[100,11905],[100,11980],[100,12057]]",1,0,474.002,477.57,99.84375,2.727,"[{""rating"":99.84375,""responseTime"":2.7270000000000323}]",space,3.015,,477.57,Not at all,0,477.576,,,[],,0,16,16,16,1,audio/Narrative8Situation7.wav,audio/Narrative7Situation7.wav,audio/Narrative6Situation7.wav,audio/Narrative5Situation7.wav,3,5,5,4,,,,,,,,,,,,,,,,,,,,,,,,,,,,,,,,,,,,,,,
,,,,,,663043f63dbecb9fd3c400e8,2024-05-13_12h06.46.359,group3.1-3.2-social-tom,2023.2.2,MacIntel,58.82352941,65c5074098b851296ff0b7ed,66423a6bb2db17389601cd55,,,,,,,,,,,,,,,,,,,,,,,,,,,,,477.577,1,audio/Narrative8Situation8.wav,480.588,,480.588,493.433,"[[99.7,4651],[99.7,4736],[99.5,4819],[99.4,4901],[99.4,4985],[99.4,5069],[99.4,5151],[99.4,5235],[99.4,5319],[99.4,5401],[99.4,5485],[99.4,5569],[99.4,5653],[99.4,5736],[99.4,5819],[99.4,5903],[99.4,5986],[99.4,6069],[99.4,6151],[99.4,6236],[99.4,6319],[99.4,6403],[99.4,6486],[99.4,6570],[99.4,6653],[99.4,6736],[99.4,6820],[99.4,6903],[99.4,6986],[99.4,7071],[99.4,7153],[99.4,7237],[99.4,7319],[99.4,7403],[99.4,7487],[99.4,7570],[99.4,7653],[99.4,7737],[99.4,7820],[99.4,7903],[99.4,7987],[99.4,8070],[99.4,8153],[99.4,8237],[99.4,8320],[99.4,8404],[99.4,8487],[99.4,8570],[99.4,8654],[99.4,8737],[99.4,8820],[99.4,8904],[99.4,8988],[99.4,9071],[99.4,9154],[99.4,9237],[99.4,9321],[99.4,9403],[99.4,9487],[99.4,9571],[99.4,9653],[99.4,9737],[99.4,9821],[99.4,9904],[99.4,9988],[99.4,10072],[99.4,10155],[99.4,10238],[99.4,10321],[99.4,10405],[99.4,10488],[99.4,10572],[99.4,10655],[99.4,10738],[99.4,10822],[99.4,10905],[99.4,10988],[99.4,11072],[99.4,11155],[99.4,11238],[99.4,11322],[99.4,11405],[99.4,11489],[99.4,11572],[99.4,11655],[99.4,11739],[99.4,11821],[99.4,11905],[99.4,11989],[99.4,12072],[99.4,12157],[99.4,12239],[99.4,12322],[99.4,12406],[99.4,12489],[99.4,12572],[99.4,12656],[99.4,12742],[99.4,12809]]",1,0,493.434,496.829,99.84375,1.421,"[{""rating"":99.84375,""responseTime"":1.4210000000000491}]",space,2.853,,496.83,Partially,50,496.836,,,[],,0,17,17,17,1,audio/Narrative8Situation8.wav,audio/Narrative7Situation8.wav,audio/Narrative6Situation8.wav,audio/Narrative5Situation8.wav,3,2,5,3,,,,,,,,,,,,,,,,,,,,,,,,,,,,,,,,,,,,,,,
,,,,,,663043f63dbecb9fd3c400e8,2024-05-13_12h06.46.359,group3.1-3.2-social-tom,2023.2.2,MacIntel,58.82352941,65c5074098b851296ff0b7ed,66423a6bb2db17389601cd55,,,,,,,,,,,,,,,,,,,,,,,,,,,,,496.837,1,audio/Narrative8Situation9.wav,499.848,,499.848,511.169,"[[99.7,5402],[99.7,5485],[99.7,5567],[99.7,5651],[99.7,5735],[99.8,5819],[99.8,5902],[99.8,5985],[99.8,6069],[99.8,6152],[99.8,6234],[99.8,6319],[99.8,6402],[99.8,6485],[99.8,6567],[99.8,6652],[99.8,6735],[99.8,6819],[99.8,6902],[99.8,6985],[99.8,7069],[99.8,7152],[99.8,7235],[99.8,7319],[99.8,7402],[99.8,7485],[99.8,7569],[99.8,7653],[99.8,7735],[99.8,7819],[99.8,7903],[99.8,7985],[99.8,8069],[99.8,8153],[99.8,8235],[99.8,8320],[99.8,8403],[99.8,8485],[99.8,8570],[99.8,8653],[99.8,8735],[99.8,8820],[99.8,8903],[99.8,8987],[99.8,9070],[99.8,9153],[99.8,9235],[99.8,9320],[99.8,9403],[99.8,9487],[99.8,9570],[99.8,9656],[99.8,9737],[99.8,9820],[99.8,9903],[99.8,9987],[99.8,10070],[99.8,10153],[99.8,10237],[99.8,10321],[99.8,10403],[99.8,10487],[99.8,10571],[99.8,10653],[99.8,10737],[99.8,10820],[99.8,10903],[99.8,10988],[99.8,11070],[99.8,11153],[99.8,11230],[99.8,11304]]",1,0,511.169,514.371,99.84375,1.026,"[{""rating"":99.84375,""responseTime"":1.0260000000000673}]",space,2.669,,514.371,Partially,50,522.357,99.84375,7.595,"[{""rating"":99.84375,""responseTime"":7.595000000000027}]",space,0,18,18,18,1,audio/Narrative8Situation9.wav,audio/Narrative7Situation9.wav,audio/Narrative6Situation9.wav,audio/Narrative5Situation9.wav,3,2,4,3,,,7.456,,,,,,,,,,,,,,,,,,,,,,,,,,,,,,,,,,,,
,,,,,,663043f63dbecb9fd3c400e8,2024-05-13_12h06.46.359,group3.1-3.2-social-tom,2023.2.2,MacIntel,58.82352941,65c5074098b851296ff0b7ed,66423a6bb2db17389601cd55,,,,,,,,,,,,,,,,,,,,,,,,,,,527.696,530.278,530.289,2,audio/Narrative13Situation2.wav,530.29,,530.29,560.042,"[[99.7,1989],[99.2,2072],[98.9,2156],[98.9,2239],[99.1,2322],[99.5,2406],[99.7,2489],[99.8,2572],[100,2654],[100,2740],[100,2822],[100,2906],[100,2989],[100,3072],[100,3156],[100,3239],[100,3322],[100,3407],[100,3490],[100,3572],[100,3656],[100,3740],[100,3822],[100,3906],[100,3990],[100,4072],[100,4156],[100,4240],[100,4322],[100,4407],[100,4490],[100,4574],[100,4657],[100,4740],[100,4822],[100,4907],[100,4990],[100,5072],[100,5157],[100,5240],[100,5324],[100,5407],[100,5490],[100,5574],[100,5657],[100,5740],[100,5824],[100,5908],[100,5990],[100,6074],[100,6157],[100,6240],[100,6324],[100,6408],[100,6490],[100,6574],[100,6658],[100,6740],[100,6824],[100,6908],[100,6990],[100,7074],[100,7158],[100,7242],[100,7325],[100,7408],[100,7490],[100,7575],[100,7658],[100,7742],[100,7825],[100,7908],[100,7992],[100,8075],[100,8158],[100,8242],[100,8325],[100,8408],[100,8492],[100,8575],[100,8658],[100,8742],[100,8826],[100,8908],[100,8992],[100,9075],[100,9158],[100,9243],[100,9325],[100,9408],[100,9492],[100,9576],[100,9658],[100,9743],[100,9826],[100,9908],[100,9993],[100,10076],[100,10158],[100,10243],[100,10326],[100,10410],[100,10492],[100,10576],[100,10660],[100,10743],[100,10826],[100,10910],[100,10994],[100,11076],[100,11160],[100,11243],[100,11326],[100,11410],[100,11493],[100,11576],[100,11660],[100,11743],[100,11826],[100,11910],[100,11994],[100,12076],[100,12163],[100,12244],[100,12326],[100,12410],[100,12494],[100,12576],[100,12660],[100,12744],[100,12826],[100,12910],[100,12994],[100,13077],[100,13161],[100,13244],[100,13326],[100,13411],[100,13495],[100,13576],[100,13661],[100,13745],[100,13827],[100,13911],[100,13995],[100,14077],[100,14161],[100,14245],[100,14327],[100,14410],[100,14494],[100,14577],[100,14662],[100,14745],[100,14827],[100,14912],[100,14995],[100,15077],[100,15162],[100,15245],[100,15327],[100,15412],[100,15495],[100,15579],[100,15662],[100,15745],[100,15827],[100,15912],[96.3,15995],[88.3,16080],[79.5,16162],[70.9,16245],[62.2,16329],[58,16412],[55.8,16495],[53.1,16577],[51.6,16663],[50.8,16745],[50.5,16829],[50.5,16912],[50.3,16995],[50,17079],[49.8,17163],[49.8,17245],[49.8,17330],[49.8,17413],[49.8,17495],[49.8,17580],[49.8,17663],[49.8,17745],[49.8,17830],[49.8,17913],[49.8,17995],[49.8,18079],[49.8,18163],[49.8,18247],[49.8,18330],[49.8,18413],[49.8,18497],[49.8,18580],[49.8,18663],[49.8,18747],[49.8,18830],[49.8,18913],[49.7,18997],[46.3,19081],[43.9,19163],[43.1,19245],[42.8,19330],[42.7,19413],[42.5,19497],[42.5,19580],[42.5,19663],[42.5,19748],[42.5,19831],[42.5,19913],[42.5,19997],[42.5,20081],[42.5,20163],[42.5,20247],[42.5,20331],[42.5,20413],[42.5,20498],[42.5,20581],[42.5,20665],[42.5,20747],[42.5,20831],[42.5,20913],[42.5,20998],[42.5,21081],[42.5,21163],[42.5,21248],[42.5,21331],[42.5,21415],[42.5,21498],[42.5,21581],[42.5,21665],[42.5,21748],[42.5,21831],[42.5,21915],[42.5,21998],[42.5,22081],[42.5,22165],[42.5,22249],[42.5,22331],[42.5,22415],[42.5,22499],[42.5,22581],[42.5,22665],[42.5,22749],[42.5,22831],[42.5,22915],[42.5,22999],[42.5,23083],[42.5,23166],[42.5,23249],[42.5,23331],[42.5,23416],[42.5,23499],[42.5,23581],[42.5,23666],[42.5,23749],[42.5,23831],[42.5,23916],[42.5,24000],[42.5,24083],[42.5,24165],[42.5,24250],[42.5,24333],[42.5,24416],[42.5,24499],[42.5,24581],[42.5,24665],[42.5,24749],[42.5,24833],[42.5,24916],[42.5,25000],[42.5,25081],[42.5,25167],[42.5,25250],[42.5,25331],[42.5,25416],[42.5,25500],[42.5,25581],[42.5,25666],[42.5,25750],[42.5,25834],[42.5,25917],[42.5,26000],[42.5,26084],[42.5,26167],[42.5,26250],[42.5,26334],[42.5,26417],[42.5,26500],[42.5,26584],[42.5,26667],[42.5,26750],[42.5,26834],[42.5,26917],[42.5,27002],[42.5,27084],[42.5,27167],[42.5,27250],[42.5,27335],[42.5,27417],[42.5,27500],[42.5,27585],[42.5,27668],[42.5,27752],[42.5,27834],[42.5,27918],[42.5,28000],[42.5,28084],[42.5,28168],[42.5,28250],[42.5,28335],[42.5,28418],[42.5,28503],[42.5,28585],[42.5,28668],[42.5,28750],[42.5,28835],[42.5,28918],[42.5,29002],[42.5,29085],[42.5,29168],[42.5,29252],[42.5,29335],[42.5,29418],[42.5,29502],[42.5,29585],[42.5,29654],[42.5,29735]]",1,0,560.043,560.046,,,[],,,,560.046,Definitely yes,100,560.053,,,[],,0,0,0,0,1,audio/Narrative13Situation2.wav,audio/Narrative13Situation2.wav,audio/Narrative13Situation2.wav,audio/Narrative13Situation2.wav,2,2,2,2,,,,,522.359,527.694,space,4.804,,,,,,,,,,,,,,,,,,,,,,,,,,,,,,,
,,,,,,663043f63dbecb9fd3c400e8,2024-05-13_12h06.46.359,group3.1-3.2-social-tom,2023.2.2,MacIntel,58.82352941,65c5074098b851296ff0b7ed,66423a6bb2db17389601cd55,,,,,,,,,,,,,,,,,,,,,,,,,,,,,560.054,2,audio/Narrative5Situation1.wav,565.061,,565.061,578.352,"[[43.4,327],[46.6,406],[50.8,487],[51.4,571],[51.4,649],[51.4,733],[51.4,815],[51.4,899],[51.4,983],[51.4,1067],[51.4,1149],[51.4,1233],[51.4,1317],[51.4,1400],[51.4,1483],[51.4,1567],[51.4,1650],[51.4,1733],[51.4,1817],[51.4,1899],[51.4,1983],[51.4,2067],[51.4,2150],[53,2233],[61.3,2317],[68.3,2400],[72.8,2487],[76.7,2567],[78.8,2650],[80.6,2736],[81.9,2817],[82.2,2901],[82.2,2983],[82.2,3067],[82.2,3151],[82.2,3234],[82.2,3317],[82.2,3401],[82.2,3484],[82.2,3567],[82.2,3651],[82.2,3734],[82.2,3818],[82.2,3901],[82.2,3984],[82.2,4068],[82.2,4151],[82.2,4234],[82.2,4318],[82.2,4401],[82.2,4484],[82.2,4568],[82.2,4652],[82.2,4735],[82.2,4818],[82.2,4901],[82.2,4985],[82.2,5068],[82.2,5151],[82.2,5235],[82.2,5318],[82.2,5401],[82.2,5485],[82.2,5569],[82.2,5652],[82.2,5735],[82.2,5819],[82.2,5902],[82.2,5985],[82.2,6069],[82.2,6152],[82.5,6235],[88.1,6318],[92,6402],[97.7,6486],[100,6568],[100,6652],[100,6736],[100,6819],[100,6902],[100,6986],[100,7069],[100,7153],[100,7236],[100,7319],[100,7403],[100,7486],[100,7569],[100,7653],[100,7736],[100,7819],[100,7903],[100,7986],[100,8069],[100,8153],[100,8236],[100,8320],[100,8403],[100,8486],[100,8570],[100,8653],[100,8736],[100,8820],[100,8904],[100,8987],[100,9070],[100,9153],[100,9237],[100,9320],[100,9403],[100,9487],[100,9570],[100,9653],[100,9737],[100,9821],[100,9904],[100,9987],[100,10071],[100,10154],[100,10237],[100,10321],[100,10404],[100,10486],[100,10570],[100,10654],[100,10738],[100,10821],[100,10904],[100,10988],[100,11071],[100,11154],[100,11238],[100,11321],[100,11405],[100,11488],[100,11571],[100,11655],[100,11738],[100,11821],[100,11905],[100,11988],[100,12072],[100,12155],[100,12240],[100,12321],[100,12405],[100,12490],[100,12572],[100,12655],[100,12738],[100,12822],[100,12905],[100,12988],[100,13072],[100,13156],[100,13226]]",1,0,578.352,579.985,99.84375,1.243,"[{""rating"":99.84375,""responseTime"":1.2430000000000518}]",space,1.086,,579.985,Not at all,0,585.938,0.3125,5.225,"[{""rating"":0.3124999999999989,""responseTime"":5.225000000000023}]",space,0,1,1,1,1,audio/Narrative7Situation1.wav,audio/Narrative8Situation1.wav,audio/Narrative5Situation1.wav,audio/Narrative6Situation1.wav,2,5,5,2,,,5.42,,,,,,,,,,,,,,,,,,,,,,,,,,,,,,,,,,,,
,,,,,,663043f63dbecb9fd3c400e8,2024-05-13_12h06.46.359,group3.1-3.2-social-tom,2023.2.2,MacIntel,58.82352941,65c5074098b851296ff0b7ed,66423a6bb2db17389601cd55,,,,,,,,,,,,,,,,,,,,,,,,,,,,,585.938,2,audio/Narrative5Situation2.wav,588.94,,588.94,618.404,"[[999,1],[999,89],[999,166],[999,249],[999,328],[999,398],[999,482],[999,566],[999,649],[999,733],[999,816],[999,900],[999,983],[999,1066],[999,1149],[999,1233],[999,1316],[999,1399],[999,1483],[999,1566],[999,1650],[999,1733],[999,1817],[999,1900],[999,1983],[999,2067],[999,2150],[999,2234],[999,2317],[999,2400],[999,2484],[999,2567],[999,2650],[999,2734],[999,2817],[999,2900],[999,2984],[999,3067],[999,3151],[999,3234],[999,3317],[999,3400],[999,3484],[999,3567],[999,3651],[999,3734],[999,3817],[999,3901],[999,3984],[999,4067],[999,4151],[999,4235],[999,4317],[999,4400],[999,4484],[53,4571],[58.8,4651],[63.3,4734],[67.2,4817],[73.1,4901],[82.3,4984],[92.8,5067],[94.2,5152],[94.2,5235],[94.2,5317],[94.2,5401],[96.9,5486],[98.4,5567],[98.6,5651],[99.1,5735],[99.1,5819],[99.1,5902],[99.1,5985],[99.1,6069],[99.1,6152],[99.1,6235],[99.1,6319],[99.1,6402],[99.1,6486],[99.1,6569],[99.1,6653],[99.1,6735],[99.1,6817],[99.1,6902],[99.1,6986],[99.1,7069],[99.1,7152],[99.1,7236],[99.1,7320],[99.1,7402],[99.1,7486],[99.1,7570],[99.1,7653],[99.1,7736],[99.1,7819],[99.1,7903],[99.1,7985],[99.1,8069],[99.1,8153],[99.1,8237],[99.1,8320],[99.1,8403],[99.1,8487],[99.1,8570],[99.1,8653],[99.1,8738],[99.1,8820],[99.1,8903],[99.1,8987],[99.1,9070],[99.1,9153],[99.1,9237],[99.1,9320],[99.1,9403],[99.1,9487],[99.1,9569],[99.1,9653],[99.1,9737],[99.1,9820],[99.1,9903],[99.1,9987],[99.1,10070],[99.1,10153],[99.1,10237],[99.1,10320],[99.1,10403],[99.1,10487],[99.1,10571],[99.1,10653],[99.1,10738],[99.1,10822],[99.1,10905],[99.1,10988],[99.1,11071],[99.1,11153],[99.1,11238],[99.1,11321],[99.1,11403],[100,11488],[100,11571],[100,11653],[100,11739],[100,11822],[100,11903],[100,11988],[100,12071],[100,12155],[100,12238],[100,12322],[100,12405],[100,12488],[100,12571],[100,12655],[100,12739],[100,12822],[100,12905],[100,12989],[100,13072],[100,13155],[100,13238],[100,13322],[100,13406],[100,13489],[100,13572],[100,13656],[100,13739],[100,13822],[100,13906],[100,13989],[100,14072],[100,14156],[100,14239],[100,14323],[100,14406],[100,14489],[100,14573],[100,14656],[100,14739],[100,14823],[100,14906],[100,14990],[100,15073],[100,15156],[100,15240],[100,15325],[100,15406],[100,15490],[100,15573],[100,15656],[100,15740],[100,15823],[100,15906],[100,15990],[100,16074],[100,16157],[100,16239],[100,16323],[100,16407],[100,16490],[100,16573],[100,16657],[100,16740],[100,16823],[100,16907],[100,16991],[100,17074],[100,17157],[100,17241],[100,17324],[100,17407],[100,17490],[100,17574],[100,17658],[100,17740],[100,17824],[100,17908],[100,17991],[100,18074],[100,18158],[100,18241],[100,18324],[100,18408],[100,18491],[100,18575],[100,18658],[100,18741],[100,18825],[100,18908],[100,18991],[100,19075],[100,19158],[100,19241],[100,19325],[100,19409],[100,19492],[100,19575],[100,19659],[100,19742],[100,19825],[100,19908],[100,19991],[100,20078],[100,20158],[100,20242],[100,20325],[100,20408],[100,20492],[100,20576],[100,20659],[100,20742],[100,20825],[100,20910],[100,20993],[100,21076],[100,21159],[100,21243],[100,21326],[100,21409],[100,21493],[100,21576],[100,21659],[100,21743],[100,21826],[100,21910],[100,21992],[100,22076],[100,22160],[100,22243],[100,22326],[100,22410],[100,22493],[100,22576],[100,22660],[100,22744],[100,22827],[100,22910],[100,22994],[100,23077],[100,23160],[100,23243],[100,23327],[100,23410],[100,23493],[100,23577],[100,23660],[100,23744],[100,23827],[100,23911],[100,23994],[100,24077],[100,24160],[100,24244],[100,24326],[100,24410],[100,24494],[100,24578],[100,24661],[100,24744],[100,24828],[100,24911],[100,24994],[100,25078],[100,25161],[100,25245],[100,25327],[100,25411],[100,25495],[100,25578],[100,25661],[100,25745],[100,25828],[100,25911],[100,25995],[100,26078],[100,26162],[100,26244],[100,26328],[100,26412],[100,26495],[100,26578],[100,26661],[100,26744],[100,26828],[100,26912],[100,26995],[100,27078],[100,27162],[100,27246],[100,27328],[100,27412],[100,27497],[100,27579],[100,27662],[100,27745],[100,27829],[100,27912],[100,27996],[100,28079],[100,28163],[100,28246],[100,28328],[100,28412],[100,28496],[100,28579],[100,28663],[100,28746],[100,28829],[100,28913],[100,28996],[100,29080],[100,29163],[100,29247],[100,29329],[100,29397]]",1,0,618.405,623.506,99.84375,2.863,"[{""rating"":99.84375,""responseTime"":2.8630000000000564}]",space,4.552,,623.507,Not at all,0,623.512,,,[],,0,2,2,2,1,audio/Narrative7Situation2.wav,audio/Narrative8Situation2.wav,audio/Narrative5Situation2.wav,audio/Narrative6Situation2.wav,3,3,3,3,,,,,,,,,,,,,,,,,,,,,,,,,,,,,,,,,,,,,,,
,,,,,,663043f63dbecb9fd3c400e8,2024-05-13_12h06.46.359,group3.1-3.2-social-tom,2023.2.2,MacIntel,58.82352941,65c5074098b851296ff0b7ed,66423a6bb2db17389601cd55,,,,,,,,,,,,,,,,,,,,,,,,,,,,,623.513,2,audio/Narrative5Situation3.wav,626.524,,626.524,640.446,"[[99.7,1899],[99.5,1982],[99.5,2067],[99.4,2150],[99.4,2233],[98.9,2317],[93,2400],[85.6,2482],[82.3,2567],[81.1,2650],[81.1,2733],[81.1,2817],[81.1,2900],[81.1,2983],[81.1,3067],[81.1,3150],[81.1,3233],[81.1,3317],[81.1,3400],[81.1,3485],[81.1,3567],[81.1,3652],[81.1,3735],[81.1,3817],[81.1,3900],[81.1,3985],[81.1,4067],[81.1,4150],[81.1,4235],[81.1,4317],[81.1,4400],[81.1,4485],[81.1,4568],[82.2,4652],[84.2,4735],[85.3,4818],[86.1,4902],[86.9,4985],[87.8,5067],[92.7,5152],[95,5235],[96.7,5318],[98.6,5402],[100,5485],[100,5568],[100,5652],[100,5735],[100,5818],[100,5902],[100,5985],[100,6068],[100,6153],[100,6235],[100,6318],[100,6403],[100,6485],[100,6568],[100,6653],[100,6735],[100,6818],[100,6903],[100,6986],[100,7069],[100,7153],[100,7236],[100,7319],[100,7403],[100,7485],[100,7569],[100,7653],[100,7735],[100,7821],[100,7903],[100,7986],[100,8068],[100,8153],[100,8236],[100,8318],[100,8403],[100,8486],[100,8569],[100,8653],[100,8736],[100,8821],[100,8903],[100,8986],[100,9071],[100,9154],[100,9236],[100,9319],[100,9403],[100,9486],[100,9569],[100,9653],[100,9737],[100,9819],[100,9903],[100,9987],[100,10071],[100,10154],[100,10236],[100,10321],[100,10404],[100,10487],[100,10571],[100,10654],[100,10737],[100,10821],[100,10904],[100,10987],[100,11072],[100,11154],[100,11237],[100,11322],[100,11404],[100,11487],[100,11572],[100,11654],[100,11737],[100,11822],[100,11904],[100,11987],[100,12072],[100,12155],[100,12239],[100,12322],[100,12404],[100,12489],[100,12571],[100,12654],[100,12739],[100,12822],[100,12905],[100,12990],[100,13072],[100,13155],[100,13239],[100,13322],[100,13404],[100,13489],[100,13572],[100,13655],[100,13740],[100,13816],[100,13888]]",1,0,640.447,642.332,99.84375,1.144,"[{""rating"":99.84375,""responseTime"":1.1440000000000055}]",space,1.349,,642.332,Definitely yes,100,642.339,,,[],,0,3,3,3,1,audio/Narrative7Situation3.wav,audio/Narrative8Situation3.wav,audio/Narrative5Situation3.wav,audio/Narrative6Situation3.wav,8,4,3,5,,,,,,,,,,,,,,,,,,,,,,,,,,,,,,,,,,,,,,,
,,,,,,663043f63dbecb9fd3c400e8,2024-05-13_12h06.46.359,group3.1-3.2-social-tom,2023.2.2,MacIntel,58.82352941,65c5074098b851296ff0b7ed,66423a6bb2db17389601cd55,,,,,,,,,,,,,,,,,,,,,,,,,,,,,642.339,2,audio/Narrative5Situation4.wav,643.348,,643.348,663.724,"[[99.8,3652],[100,3735],[100,3819],[99.5,3902],[98.8,3985],[98.8,4067],[98.9,4153],[99.4,4235],[99.8,4319],[100,4402],[100,4485],[100,4567],[100,4652],[100,4735],[100,4819],[100,4902],[100,4985],[100,5070],[100,5153],[100,5235],[100,5319],[100,5403],[100,5485],[100,5569],[100,5653],[100,5735],[100,5819],[100,5903],[100,5985],[100,6070],[100,6153],[100,6237],[100,6320],[100,6403],[100,6485],[100,6570],[100,6653],[100,6735],[100,6820],[100,6903],[100,6987],[100,7070],[100,7153],[100,7237],[100,7320],[100,7405],[100,7488],[100,7570],[100,7653],[100,7737],[100,7821],[100,7903],[100,7987],[100,8071],[100,8153],[100,8237],[100,8321],[100,8405],[100,8487],[100,8570],[100,8653],[100,8738],[100,8821],[100,8903],[100,8988],[100,9071],[100,9153],[100,9238],[100,9322],[100,9405],[100,9488],[100,9572],[100,9655],[100,9738],[100,9821],[100,9905],[100,9988],[100,10071],[100,10155],[100,10238],[100,10321],[100,10405],[100,10489],[100,10572],[100,10655],[100,10738],[100,10822],[100,10906],[100,10988],[100,11072],[100,11156],[100,11239],[100,11322],[100,11406],[100,11489],[100,11572],[100,11657],[100,11739],[100,11823],[100,11906],[100,11990],[100,12073],[100,12156],[100,12239],[100,12323],[100,12406],[100,12489],[100,12573],[100,12657],[100,12739],[100,12822],[100,12907],[100,12990],[100,13073],[100,13156],[100,13240],[100,13323],[100,13407],[100,13490],[100,13574],[100,13656],[100,13740],[100,13824],[100,13907],[100,13990],[100,14073],[100,14157],[100,14240],[100,14324],[100,14407],[100,14490],[100,14574],[100,14657],[100,14740],[100,14824],[100,14907],[100,14990],[100,15074],[100,15157],[100,15240],[100,15324],[100,15408],[100,15490],[100,15574],[100,15658],[100,15740],[100,15824],[100,15908],[100,15990],[100,16075],[100,16158],[100,16242],[100,16325],[100,16408],[100,16490],[100,16575],[100,16658],[100,16740],[100,16825],[100,16908],[100,16990],[100,17075],[100,17158],[100,17242],[100,17324],[100,17408],[100,17492],[100,17575],[100,17658],[100,17742],[100,17825],[100,17908],[100,17993],[100,18076],[100,18158],[100,18242],[100,18325],[100,18408],[100,18492],[100,18576],[100,18658],[100,18743],[100,18826],[100,18908],[100,18993],[100,19076],[100,19158],[100,19243],[100,19326],[100,19408],[100,19492],[100,19576],[100,19659],[100,19743],[100,19826],[100,19909],[100,19992],[100,20077],[100,20159],[100,20243],[100,20312]]",1,0,663.725,668.677,99.84375,4.56,"[{""rating"":99.84375,""responseTime"":4.560000000000059}]",space,4.404,,668.678,Partially,50,668.683,,,[],,0,4,4,4,1,audio/Narrative7Situation4.wav,audio/Narrative8Situation4.wav,audio/Narrative5Situation4.wav,audio/Narrative6Situation4.wav,3,3,1,2,,,,,,,,,,,,,,,,,,,,,,,,,,,,,,,,,,,,,,,
,,,,,,663043f63dbecb9fd3c400e8,2024-05-13_12h06.46.359,group3.1-3.2-social-tom,2023.2.2,MacIntel,58.82352941,65c5074098b851296ff0b7ed,66423a6bb2db17389601cd55,,,,,,,,,,,,,,,,,,,,,,,,,,,,,668.684,2,audio/Narrative5Situation5.wav,673.696,,673.696,689.12,"[[99.5,3567],[99.5,3651],[99.5,3735],[99.4,3817],[99.4,3901],[99.4,3985],[99.4,4067],[99.4,4151],[100,4235],[100,4318],[100,4400],[100,4485],[100,4567],[100,4651],[100,4735],[100,4818],[100,4901],[100,4985],[100,5068],[100,5151],[100,5235],[100,5318],[100,5401],[100,5485],[100,5568],[100,5653],[100,5735],[100,5819],[100,5903],[100,5985],[100,6068],[100,6153],[100,6236],[100,6319],[100,6403],[100,6486],[100,6569],[100,6651],[100,6735],[100,6819],[100,6903],[100,6985],[100,7069],[100,7153],[100,7235],[100,7319],[100,7403],[100,7486],[100,7568],[100,7653],[100,7736],[100,7819],[100,7903],[100,7986],[100,8069],[100,8153],[100,8236],[100,8320],[100,8403],[100,8486],[100,8570],[100,8653],[100,8737],[100,8819],[100,8904],[100,8987],[100,9070],[100,9154],[100,9237],[100,9320],[100,9403],[100,9487],[100,9570],[100,9654],[100,9737],[100,9822],[100,9904],[100,9986],[100,10070],[100,10154],[100,10237],[100,10320],[100,10404],[100,10487],[100,10570],[100,10654],[100,10738],[100,10822],[100,10904],[100,10987],[100,11072],[100,11154],[100,11237],[100,11322],[100,11404],[100,11488],[100,11572],[100,11655],[100,11738],[100,11822],[100,11905],[100,11988],[100,12072],[100,12155],[100,12238],[100,12322],[100,12405],[100,12488],[100,12572],[100,12655],[100,12740],[100,12822],[100,12905],[100,12988],[100,13072],[100,13156],[100,13240],[100,13322],[100,13405],[100,13490],[100,13572],[100,13655],[100,13740],[100,13822],[100,13906],[100,13990],[100,14073],[100,14156],[100,14238],[100,14322],[100,14406],[100,14488],[100,14572],[100,14656],[100,14740],[100,14822],[100,14906],[98.4,14990],[67.3,15072],[58.3,15156],[57,15240],[56.9,15319],[56.9,15390]]",1,0,689.121,692.355,49.6875,1.425,"[{""rating"":49.6875,""responseTime"":1.4250000000000682}]",space,2.688,,692.356,Not at all,0,692.361,,,[],,0,5,5,5,1,audio/Narrative7Situation5.wav,audio/Narrative8Situation5.wav,audio/Narrative5Situation5.wav,audio/Narrative6Situation5.wav,5,2,5,2,,,,,,,,,,,,,,,,,,,,,,,,,,,,,,,,,,,,,,,
,,,,,,663043f63dbecb9fd3c400e8,2024-05-13_12h06.46.359,group3.1-3.2-social-tom,2023.2.2,MacIntel,58.82352941,65c5074098b851296ff0b7ed,66423a6bb2db17389601cd55,,,,,,,,,,,,,,,,,,,,,,,,,,,,,692.362,2,audio/Narrative5Situation6.wav,695.373,,695.373,701.061,"[[51.3,4401],[54.7,4485],[57.2,4567],[60.6,4652],[63.9,4735],[68,4817],[68,4901],[68,4984],[68,5068],[68,5151],[68,5234],[68,5318],[57.3,5402],[47.5,5485],[45.2,5568],[45,5640]]",1,0,701.061,704.511,44.53125,1.391,"[{""rating"":44.53125,""responseTime"":1.3909999999999627}]",space,2.899,,704.512,Definitely yes,100,704.517,,,[],,0,6,6,6,1,audio/Narrative7Situation6.wav,audio/Narrative8Situation6.wav,audio/Narrative5Situation6.wav,audio/Narrative6Situation6.wav,3,2,3,2,,,,,,,,,,,,,,,,,,,,,,,,,,,,,,,,,,,,,,,
,,,,,,663043f63dbecb9fd3c400e8,2024-05-13_12h06.46.359,group3.1-3.2-social-tom,2023.2.2,MacIntel,58.82352941,65c5074098b851296ff0b7ed,66423a6bb2db17389601cd55,,,,,,,,,,,,,,,,,,,,,,,,,,,,,704.518,2,audio/Narrative5Situation7.wav,708.529,,708.53,729.579,"[[45.9,1983],[48.3,2067],[50.6,2149],[52,2234],[52.8,2317],[54.1,2399],[54.8,2484],[55.2,2567],[55.2,2649],[55.2,2735],[55.2,2817],[55.2,2901],[55.2,2984],[55.2,3067],[55.2,3149],[55.2,3234],[55.2,3317],[55.2,3399],[55.2,3484],[55.2,3567],[55.2,3651],[55.2,3734],[55.2,3817],[55.2,3901],[55.2,3984],[55.2,4067],[55.2,4151],[55.2,4234],[55.2,4317],[55.2,4401],[55.2,4485],[55.2,4567],[55.2,4651],[55.2,4735],[55.2,4817],[55.2,4901],[55.2,4985],[55.2,5067],[55.2,5151],[55.2,5235],[55.2,5319],[55.2,5402],[55.2,5485],[55.2,5567],[55.2,5652],[55.2,5735],[55.2,5817],[55.2,5902],[55.2,5985],[55.2,6069],[55.2,6152],[55.2,6235],[55.2,6319],[55.2,6401],[55.2,6485],[55.2,6569],[55.2,6652],[55.2,6735],[55.2,6819],[55.2,6903],[55.2,6985],[55.2,7069],[55.2,7153],[55.2,7235],[55.2,7319],[55.2,7403],[55.2,7485],[55.2,7569],[55.2,7652],[55.2,7735],[55.2,7820],[55.2,7903],[55.2,7985],[55.2,8070],[55.2,8153],[55.2,8235],[56.4,8320],[58.4,8402],[60,8486],[61.9,8570],[63.3,8653],[64.2,8739],[65,8820],[65.3,8903],[65.3,8986],[65.3,9070],[65.3,9153],[65.3,9236],[65.3,9320],[65.3,9403],[65.3,9485],[65.3,9570],[65.3,9653],[65.3,9736],[65.3,9821],[65.3,9903],[65.3,9986],[65.3,10070],[65.3,10153],[65.3,10236],[65.3,10320],[65.3,10403],[65.3,10488],[65.3,10571],[65.3,10653],[65.3,10738],[65.3,10821],[65.3,10903],[65.3,10988],[65.3,11071],[65.3,11154],[65.3,11236],[65.3,11321],[65.3,11404],[65.3,11488],[65.3,11571],[65.3,11654],[65.3,11736],[65.3,11821],[65.3,11904],[65.3,11988],[65.3,12072],[65.3,12154],[65.3,12238],[65.3,12322],[65.3,12404],[65.3,12489],[65.3,12572],[65.3,12654],[65.3,12738],[65.3,12822],[65.3,12906],[65.3,12989],[65.3,13071],[65.3,13154],[65.3,13239],[65.3,13322],[65.3,13404],[65.3,13489],[65.3,13572],[65.3,13656],[65.3,13739],[65.3,13822],[65.3,13906],[65.3,13989],[65.3,14072],[65.3,14156],[65.3,14239],[65.3,14322],[65.3,14406],[65.3,14490],[65.3,14572],[65.3,14656],[65.3,14740],[65.3,14822],[65.3,14906],[65.3,14990],[65.3,15072],[65.3,15157],[65.3,15240],[65.3,15322],[65.3,15406],[65.3,15490],[65.3,15572],[65.5,15657],[67.3,15740],[70.5,15822],[73.9,15907],[75.3,15990],[76.6,16072],[76.9,16157],[76.9,16240],[76.9,16325],[76.9,16406],[76.9,16490],[76.9,16574],[76.9,16656],[76.9,16740],[76.9,16824],[76.9,16906],[76.9,16990],[76.9,17074],[76.9,17157],[76.9,17240],[76.9,17324],[76.9,17408],[76.9,17490],[76.9,17574],[76.9,17657],[76.9,17740],[76.9,17822],[76.9,17907],[76.9,17990],[76.9,18074],[76.9,18157],[76.9,18240],[76.9,18325],[76.9,18408],[76.9,18493],[76.9,18572],[76.9,18658],[76.9,18740],[76.9,18824],[76.9,18908],[76.9,18992],[76.9,19075],[76.9,19158],[76.9,19242],[76.9,19325],[76.9,19408],[76.9,19492],[76.9,19575],[76.9,19658],[76.9,19740],[76.9,19826],[76.9,19907],[76.9,19990],[76.9,20075],[76.9,20158],[76.9,20243],[76.9,20325],[76.9,20408],[76.9,20492],[76.9,20575],[76.9,20658],[77.3,20743],[78.3,20825],[81.6,20908],[83,20980]]",1,0,729.579,731.574,87.8125,1.421,"[{""rating"":87.8125,""responseTime"":1.4210000000000491}]",space,1.452,,731.574,Not at all,0,731.58,,,[],,0,7,7,7,1,audio/Narrative7Situation7.wav,audio/Narrative8Situation7.wav,audio/Narrative5Situation7.wav,audio/Narrative6Situation7.wav,5,3,4,5,,,,,,,,,,,,,,,,,,,,,,,,,,,,,,,,,,,,,,,
,,,,,,663043f63dbecb9fd3c400e8,2024-05-13_12h06.46.359,group3.1-3.2-social-tom,2023.2.2,MacIntel,58.82352941,65c5074098b851296ff0b7ed,66423a6bb2db17389601cd55,,,,,,,,,,,,,,,,,,,,,,,,,,,,,731.58,2,audio/Narrative5Situation8.wav,734.592,,734.592,743.413,"[[84.8,1817],[75.9,1899],[69.2,1984],[67.7,2067],[67.7,2151],[67.7,2234],[67.7,2317],[67.7,2401],[67.7,2484],[67.7,2567],[67.7,2651],[67.7,2734],[67.7,2817],[67.7,2901],[67.7,2985],[67.7,3067],[67.7,3151],[67.7,3234],[67.7,3317],[67.7,3401],[67.7,3485],[67.7,3567],[67.7,3651],[67.7,3735],[67.7,3817],[67.7,3899],[67.7,3985],[67.7,4067],[67.7,4151],[67.7,4235],[67.7,4317],[67.7,4401],[67.7,4485],[67.7,4567],[67.7,4652],[67.7,4735],[67.7,4818],[67.7,4902],[67.7,4985],[67.7,5068],[67.7,5152],[67.7,5235],[67.7,5317],[67.7,5402],[67.7,5485],[67.7,5568],[67.7,5652],[67.7,5735],[67.7,5818],[67.7,5902],[67.7,5985],[67.7,6068],[67.7,6152],[69.1,6235],[72.8,6320],[75,6402],[76.1,6485],[77.2,6570],[77.7,6652],[78.3,6735],[78.8,6818],[78.9,6903],[79.2,6985],[79.2,7068],[79.2,7153],[79.2,7236],[79.2,7320],[79.2,7403],[79.2,7485],[79.2,7570],[79.2,7652],[79.2,7735],[79.2,7820],[79.2,7903],[79.2,7985],[79.2,8070],[79.2,8153],[79.2,8236],[79.2,8320],[79.2,8403],[79.2,8486],[79.2,8570],[79.2,8653],[79.2,8730],[79.2,8802]]",1,0,743.414,745.263,66.875,1.243,"[{""rating"":66.875,""responseTime"":1.2430000000001655}]",space,1.302,,745.264,Not at all,0,745.267,,,[],,0,8,8,8,1,audio/Narrative7Situation8.wav,audio/Narrative8Situation8.wav,audio/Narrative5Situation8.wav,audio/Narrative6Situation8.wav,2,3,3,5,,,,,,,,,,,,,,,,,,,,,,,,,,,,,,,,,,,,,,,
,,,,,,663043f63dbecb9fd3c400e8,2024-05-13_12h06.46.359,group3.1-3.2-social-tom,2023.2.2,MacIntel,58.82352941,65c5074098b851296ff0b7ed,66423a6bb2db17389601cd55,,,,,,,,,,,,,,,,,,,,,,,,,,,,,745.268,2,audio/Narrative5Situation9.wav,748.282,,748.282,787.852,"[[67,4751],[67,4834],[67,4917],[67,5001],[67,5084],[67,5167],[67,5251],[67,5334],[67,5417],[67,5501],[67,5584],[67,5667],[67,5751],[67,5835],[67,5918],[67,6001],[67,6085],[67,6168],[67,6251],[67,6335],[67.7,6418],[70.8,6502],[72.7,6584],[74.7,6668],[76.6,6752],[77.7,6835],[78.1,6918],[78.3,7002],[78.3,7085],[78.3,7168],[78.3,7251],[78.3,7335],[78.3,7419],[78.3,7502],[78.3,7585],[78.3,7669],[78.3,7751],[78.3,7835],[78.3,7919],[80.3,8002],[93,8085],[100,8169],[100,8252],[100,8335],[100,8418],[100,8502],[100,8586],[100,8669],[100,8752],[100,8836],[100,8919],[100,9002],[100,9086],[100,9169],[100,9253],[100,9335],[100,9420],[100,9503],[100,9586],[100,9669],[100,9753],[100,9836],[100,9920],[100,10003],[100,10086],[100,10169],[100,10253],[100,10337],[100,10420],[100,10503],[100,10586],[100,10671],[100,10753],[100,10836],[100,10920],[100,11004],[100,11087],[100,11170],[100,11254],[100,11337],[100,11420],[100,11507],[100,11587],[100,11671],[100,11753],[100,11837],[100,11921],[100,12004],[100,12088],[100,12171],[100,12254],[100,12337],[100,12421],[100,12505],[100,12588],[100,12671],[100,12754],[100,12838],[100,12921],[100,13004],[100,13088],[100,13171],[100,13254],[100,13338],[100,13421],[100,13505],[100,13588],[100,13672],[100,13755],[100,13838],[100,13921],[100,14005],[100,14089],[100,14172],[100,14255],[100,14339],[100,14422],[100,14505],[100,14589],[100,14672],[100,14756],[100,14839],[100,14922],[100,15006],[100,15089],[100,15172],[100,15256],[100,15340],[100,15422],[100,15506],[100,15589],[100,15672],[100,15756],[100,15840],[100,15923],[100,16006],[100,16089],[100,16173],[100,16256],[100,16339],[100,16423],[100,16506],[100,16589],[100,16673],[100,16757],[100,16840],[100,16923],[100,17007],[100,17090],[100,17173],[100,17256],[100,17340],[100,17423],[100,17506],[100,17590],[100,17673],[100,17757],[100,17840],[100,17924],[100,18007],[100,18089],[100,18173],[100,18257],[100,18340],[100,18423],[100,18507],[100,18590],[100,18673],[100,18757],[100,18841],[100,18924],[100,19007],[100,19091],[100,19175],[100,19256],[100,19340],[100,19425],[100,19507],[100,19591],[100,19674],[100,19759],[100,19840],[100,19924],[100,20008],[100,20091],[100,20174],[100,20258],[100,20342],[100,20425],[100,20507],[100,20591],[100,20675],[100,20760],[100,20841],[100,20925],[100,21009],[100,21091],[100,21175],[100,21259],[100,21342],[100,21424],[100,21508],[100,21592],[100,21675],[100,21758],[100,21842],[100,21925],[100,22008],[100,22092],[100,22176],[100,22259],[100,22342],[100,22426],[100,22509],[100,22592],[100,22675],[100,22759],[100,22842],[100,22925],[100,23009],[100,23093],[100,23176],[100,23259],[100,23343],[100,23426],[100,23509],[100,23593],[100,23676],[100,23760],[100,23843],[100,23926],[100,24010],[100,24093],[100,24177],[100,24260],[100,24343],[100,24427],[100,24510],[100,24594],[100,24677],[100,24760],[100,24843],[100,24927],[100,25010],[100,25093],[100,25177],[100,25260],[100,25343],[100,25427],[100,25511],[100,25594],[100,25676],[100,25761],[100,25844],[100,25927],[100,26010],[100,26094],[100,26178],[100,26261],[100,26344],[100,26428],[100,26511],[100,26594],[100,26678],[100,26761],[100,26844],[100,26927],[100,27011],[100,27095],[100,27178],[100,27261],[100,27345],[100,27428],[100,27511],[100,27595],[100,27678],[100,27761],[100,27845],[100,27928],[100,28012],[100,28095],[100,28179],[100,28262],[100,28345],[100,28428],[100,28512],[100,28595],[100,28678],[100,28762],[100,28846],[100,28929],[100,29012],[100,29096],[100,29179],[100,29262],[100,29345],[100,29429],[100,29512],[100,29595],[100,29679],[100,29763],[100,29846],[100,29929],[100,30013],[100,30096],[100,30179],[100,30262],[100,30346],[100,30430],[100,30513],[100,30596],[100,30680],[100,30762],[100,30846],[100,30931],[100,31013],[100,31096],[100,31180],[100,31263],[100,31346],[100,31430],[100,31513],[100,31597],[100,31680],[100,31763],[100,31847],[100,31930],[100,32013],[100,32097],[100,32180],[100,32264],[100,32347],[100,32430],[100,32514],[100,32597],[100,32680],[100,32764],[100,32847],[100,32930],[100,33014],[100,33097],[100,33181],[100,33264],[100,33348],[100,33431],[100,33514],[100,33597],[100,33681],[100,33765],[100,33848],[100,33931],[100,34014],[100,34098],[100,34181],[100,34266],[100,34348],[100,34431],[100,34515],[100,34598],[100,34682],[100,34765],[100,34848],[100,34932],[100,35015],[100,35098],[100,35182],[100,35266],[100,35348],[100,35432],[100,35515],[100,35599],[100,35681],[100,35766],[100,35849],[100,35932],[100,36015],[100,36099],[100,36182],[100,36265],[100,36350],[100,36432],[100,36515],[100,36599],[100,36683],[100,36766],[100,36849],[100,36933],[100,37016],[100,37099],[100,37182],[100,37266],[100,37349],[100,37433],[100,37516],[100,37600],[100,37683],[100,37766],[100,37849],[100,37933],[100,38016],[100,38100],[100,38183],[100,38267],[100,38349],[100,38433],[100,38517],[100,38599],[100,38683],[100,38767],[100,38851],[100,38934],[100,39017],[100,39100],[100,39184],[100,39267],[100,39350],[100,39435],[100,39509]]",1,0,787.852,789.168,99.6875,0.99,"[{""rating"":99.6875,""responseTime"":0.9900000000000091}]",space,0.777,,789.168,Definitely yes,100,789.174,,,[],,0,9,9,9,1,audio/Narrative7Situation9.wav,audio/Narrative8Situation9.wav,audio/Narrative5Situation9.wav,audio/Narrative6Situation9.wav,2,3,3,4,,,,,,,,,,,,,,,,,,,,,,,,,,,,,,,,,,,,,,,
,,,,,,663043f63dbecb9fd3c400e8,2024-05-13_12h06.46.359,group3.1-3.2-social-tom,2023.2.2,MacIntel,58.82352941,65c5074098b851296ff0b7ed,66423a6bb2db17389601cd55,,,,,,,,,,,,,,,,,,,,,,,,,,,,,789.174,2,audio/Narrative6Situation1.wav,791.186,,791.186,817.78,"[[99.4,9902],[99.4,9987],[99.4,10069],[99.2,10152],[99.4,10237],[99.4,10320],[99.4,10403],[99.4,10485],[99.4,10570],[99.4,10653],[99.4,10737],[99.4,10819],[99.4,10903],[99.4,10987],[99.4,11070],[99.4,11153],[99.4,11237],[99.4,11320],[99.4,11403],[99.4,11487],[99.4,11570],[99.4,11653],[99.4,11737],[99.4,11820],[99.4,11904],[99.4,11987],[99.4,12072],[99.4,12154],[99.4,12237],[99.4,12320],[99.4,12404],[99.4,12487],[99.4,12571],[99.4,12654],[99.4,12738],[99.4,12821],[99.4,12905],[99.4,12987],[99.4,13071],[99.4,13154],[99.4,13237],[99.4,13321],[99.4,13404],[99.4,13487],[99.4,13571],[99.4,13655],[99.4,13737],[99.4,13821],[99.4,13905],[99.4,13990],[99.4,14071],[99.4,14154],[99.4,14238],[99.4,14321],[99.4,14405],[99.4,14488],[99.4,14572],[99.4,14655],[99.4,14738],[99.4,14822],[99.4,14905],[99.4,14990],[99.4,15072],[99.4,15156],[99.4,15240],[99.4,15323],[99.4,15405],[99.4,15490],[99.4,15572],[99.4,15655],[99.4,15740],[99.4,15822],[99.4,15905],[99.4,15990],[99.4,16073],[99.4,16156],[99.4,16240],[99.4,16322],[99.4,16406],[99.4,16490],[99.4,16572],[99.4,16656],[99.4,16740],[99.4,16822],[99.4,16906],[84.4,17573],[83.9,17740],[83.1,17823],[83,17908],[82.3,17990],[82.3,18073],[82.3,18158],[82.3,18240],[82.3,18323],[82.3,18408],[82.3,18490],[82.3,18573],[82.3,18656],[82.3,18740],[82.3,18824],[82.3,18908],[82.3,18990],[82.3,19074],[82.3,19158],[82.3,19240],[82.3,19324],[82.3,19408],[82.3,19491],[82.3,19573],[82.3,19658],[82.3,19741],[82.3,19824],[82.3,19908],[82.3,19991],[82.3,20074],[82.3,20158],[82.3,20241],[82.3,20325],[82.3,20408],[82.3,20491],[82.3,20575],[82.3,20658],[82.3,20741],[82.3,20824],[82.3,20908],[82.3,20991],[82.3,21074],[82.3,21158],[82.3,21241],[82.3,21325],[83.8,21408],[87.5,21492],[96.3,21574],[100,21658],[100,21742],[100,21827],[100,21909],[100,21992],[100,22075],[100,22159],[100,22242],[100,22325],[100,22409],[100,22492],[100,22575],[100,22659],[100,22742],[100,22827],[100,22909],[100,22993],[100,23077],[100,23159],[100,23242],[100,23327],[100,23409],[100,23492],[100,23577],[100,23659],[100,23743],[100,23827],[100,23909],[100,23993],[100,24077],[100,24159],[100,24243],[100,24327],[100,24409],[100,24493],[100,24577],[100,24660],[100,24742],[100,24827],[100,24910],[100,24993],[100,25077],[100,25160],[100,25245],[100,25327],[100,25410],[100,25493],[100,25577],[100,25660],[100,25745],[100,25827],[100,25910],[100,25995],[100,26077],[100,26159],[100,26243],[100,26327],[100,26410],[100,26487],[100,26560]]",1,0,817.78,819.415,69.0625,1.198,"[{""rating"":69.0625,""responseTime"":1.1980000000000928}]",space,1.1,,819.415,Not at all,0,819.42,,,[],,0,10,10,10,1,audio/Narrative8Situation1.wav,audio/Narrative7Situation1.wav,audio/Narrative6Situation1.wav,audio/Narrative5Situation1.wav,5,2,2,5,,,,,,,,,,,,,,,,,,,,,,,,,,,,,,,,,,,,,,,
,,,,,,663043f63dbecb9fd3c400e8,2024-05-13_12h06.46.359,group3.1-3.2-social-tom,2023.2.2,MacIntel,58.82352941,65c5074098b851296ff0b7ed,66423a6bb2db17389601cd55,,,,,,,,,,,,,,,,,,,,,,,,,,,,,819.421,2,audio/Narrative6Situation2.wav,822.433,,822.433,850.947,"[[69.2,2317],[69.2,2400],[69.2,2485],[69.2,2567],[69.2,2650],[69.2,2735],[69.2,2817],[69.2,2900],[69.2,2985],[69.2,3067],[69.2,3150],[69.2,3234],[69.2,3318],[69.2,3402],[69.2,3485],[69.2,3568],[69.2,3652],[69.2,3735],[69.2,3817],[69.2,3902],[69.2,3985],[69.2,4068],[69.2,4153],[69.2,4235],[69.2,4318],[69.2,4402],[69.2,4485],[69.2,4568],[69.2,4652],[69.2,4735],[69.2,4818],[69.2,4903],[69.2,4985],[69.2,5068],[69.2,5153],[69.2,5235],[69.2,5320],[69.4,5403],[69.5,5485],[70,5570],[71.1,5653],[72.8,5735],[74.5,5818],[76.3,5903],[78.8,5986],[80.6,6068],[81.3,6153],[81.3,6235],[81.3,6320],[81.3,6403],[81.3,6488],[81.3,6568],[81.3,6653],[81.3,6736],[81.3,6820],[81.3,6903],[81.3,6986],[81.3,7070],[81.3,7153],[81.3,7236],[81.3,7320],[81.3,7403],[81.3,7485],[81.3,7570],[81.3,7653],[81.3,7736],[81.3,7820],[81.3,7903],[81.3,7986],[81.3,8070],[81.3,8153],[81.3,8236],[81.3,8321],[81.3,8403],[81.3,8488],[81.3,8571],[81.3,8653],[81.3,8738],[81.3,8821],[81.3,8903],[81.3,8988],[81.3,9072],[86.4,9153],[89.8,9238],[93.6,9321],[97,9405],[100,9488],[100,9571],[100,9654],[100,9739],[100,9822],[100,9903],[100,9988],[100,10072],[100,10154],[100,10238],[100,10322],[100,10404],[100,10488],[100,10572],[100,10654],[100,10739],[100,10821],[100,10905],[100,10989],[100,11072],[100,11154],[100,11239],[100,11322],[100,11404],[100,11489],[100,11572],[100,11655],[100,11739],[100,11822],[100,11905],[100,11988],[100,12072],[100,12155],[100,12239],[100,12322],[100,12405],[100,12489],[100,12572],[100,12655],[100,12740],[100,12822],[100,12905],[100,12990],[100,13072],[100,13155],[100,13240],[100,13322],[100,13407],[100,13490],[100,13572],[100,13657],[100,13740],[100,13822],[100,13908],[100,13990],[100,14073],[100,14157],[100,14240],[100,14323],[100,14407],[100,14490],[100,14573],[100,14657],[100,14740],[100,14823],[100,14907],[100,14990],[100,15073],[100,15158],[100,15240],[100,15322],[100,15407],[100,15490],[100,15572],[100,15657],[100,15740],[100,15823],[100,15908],[100,15991],[100,16074],[100,16158],[100,16240],[100,16324],[100,16408],[100,16490],[100,16573],[100,16658],[100,16740],[100,16824],[100,16908],[100,16991],[100,17073],[100,17158],[100,17241],[100,17324],[100,17408],[100,17490],[100,17574],[100,17658],[100,17741],[100,17824],[100,17908],[100,17990],[100,18074],[100,18158],[100,18241],[100,18324],[100,18408],[100,18490],[100,18576],[100,18658],[100,18743],[100,18826],[100,18908],[100,18991],[100,19076],[100,19158],[100,19243],[100,19326],[100,19409],[100,19493],[100,19574],[100,19659],[100,19743],[100,19827],[100,19908],[100,19993],[100,20076],[100,20159],[100,20243],[100,20327],[100,20409],[100,20493],[100,20577],[100,20659],[100,20743],[100,20826],[100,20911],[100,20994],[100,21077],[100,21159],[100,21243],[100,21327],[100,21409],[100,21494],[100,21577],[100,21659],[100,21744],[100,21827],[100,21911],[100,21994],[100,22077],[100,22161],[100,22244],[100,22327],[100,22411],[100,22494],[100,22577],[100,22661],[100,22745],[100,22827],[100,22911],[100,22995],[100,23077],[100,23161],[100,23244],[100,23327],[100,23411],[100,23494],[100,23577],[100,23661],[100,23744],[100,23827],[100,23912],[100,23995],[100,24077],[100,24161],[100,24245],[100,24327],[100,24411],[100,24495],[100,24578],[100,24661],[100,24745],[100,24828],[100,24912],[100,24995],[100,25078],[100,25162],[100,25245],[100,25328],[100,25412],[100,25495],[100,25578],[100,25663],[100,25745],[100,25828],[100,25912],[100,25995],[100,26078],[100,26163],[100,26245],[100,26328],[100,26413],[100,26495],[100,26578],[100,26663],[100,26745],[100,26828],[100,26913],[100,26995],[100,27080],[100,27163],[100,27246],[100,27330],[100,27413],[100,27495],[100,27580],[100,27663],[100,27746],[100,27830],[100,27912],[100,27996],[100,28080],[100,28168],[100,28245],[100,28330],[100,28413],[100,28498]]",1,0,850.947,857.316,100,5.88,"[{""rating"":99.375,""responseTime"":4.711999999999989},{""rating"":100,""responseTime"":5.8799999999999955}]",space,5.84,,857.317,Definitely yes,100,857.323,,,[],,0,11,11,11,1,audio/Narrative8Situation2.wav,audio/Narrative7Situation2.wav,audio/Narrative6Situation2.wav,audio/Narrative5Situation2.wav,3,3,3,3,,,,,,,,,,,,,,,,,,,,,,,,,,,,,,,,,,,,,,,
,,,,,,663043f63dbecb9fd3c400e8,2024-05-13_12h06.46.359,group3.1-3.2-social-tom,2023.2.2,MacIntel,58.82352941,65c5074098b851296ff0b7ed,66423a6bb2db17389601cd55,,,,,,,,,,,,,,,,,,,,,,,,,,,,,857.323,2,audio/Narrative6Situation3.wav,862.335,,862.335,874.964,"[[100,2567],[100,2650],[100,2735],[100,2817],[99.8,2901],[96.3,2985],[95.9,3067],[95.9,3151],[95.9,3233],[95.9,3318],[95.9,3401],[95.9,3485],[95.9,3568],[94.8,3651],[79.7,3735],[69.4,3817],[65.3,3901],[65.3,3985],[65.3,4068],[65.3,4152],[65.3,4235],[65.3,4318],[65.3,4402],[65.3,4485],[65.3,4568],[65.3,4652],[65.3,4735],[65.3,4820],[65.3,4901],[65.3,4985],[65.3,5068],[65.3,5152],[65.3,5235],[65.3,5319],[65.3,5402],[65.3,5485],[65.3,5569],[65.3,5652],[65.3,5736],[65.3,5818],[65.3,5902],[65.3,5986],[65.3,6069],[65.3,6152],[65.3,6236],[65.3,6319],[65.3,6402],[65.3,6486],[65.3,6570],[67,6652],[68.6,6736],[69.1,6820],[70.5,6902],[74.5,6986],[76.3,7069],[78.1,7153],[79.1,7236],[79.5,7319],[79.5,7403],[79.5,7487],[79.5,7570],[79.5,7653],[79.5,7737],[79.5,7820],[79.5,7903],[79.5,7986],[79.5,8070],[79.5,8153],[79.5,8236],[79.5,8320],[79.5,8404],[79.5,8486],[79.5,8570],[79.5,8654],[79.5,8736],[79.5,8820],[79.5,8903],[79.5,8987],[79.5,9070],[79.5,9153],[79.5,9237],[79.5,9322],[79.5,9404],[79.5,9487],[81.4,9570],[82.8,9654],[83.9,9737],[84.7,9822],[84.8,9904],[85,9987],[85.3,10072],[85.8,10155],[87.2,10238],[87.3,10322],[87.7,10405],[88.6,10487],[90.3,10570],[91.7,10654],[92.7,10740],[93.6,10820],[94.2,10904],[94.2,10988],[94.2,11072],[94.2,11155],[94.2,11238],[94.2,11322],[94.2,11405],[94.2,11488],[94.2,11572],[94.2,11656],[94.2,11740],[94.2,11822],[94.2,11905],[94.2,11990],[94.2,12072],[94.2,12154],[94.2,12238],[94.2,12322],[94.2,12405],[95.5,12490],[96.1,12562]]",1,0,874.965,877.043,97.65625,1.538,"[{""rating"":97.65625,""responseTime"":1.538000000000011}]",space,1.531,,877.043,Not at all,0,877.05,,,[],,0,12,12,12,1,audio/Narrative8Situation3.wav,audio/Narrative7Situation3.wav,audio/Narrative6Situation3.wav,audio/Narrative5Situation3.wav,4,8,5,3,,,,,,,,,,,,,,,,,,,,,,,,,,,,,,,,,,,,,,,
,,,,,,663043f63dbecb9fd3c400e8,2024-05-13_12h06.46.359,group3.1-3.2-social-tom,2023.2.2,MacIntel,58.82352941,65c5074098b851296ff0b7ed,66423a6bb2db17389601cd55,,,,,,,,,,,,,,,,,,,,,,,,,,,,,877.051,2,audio/Narrative6Situation4.wav,879.06,,879.06,891.666,"[[97.3,1817],[96.7,1901],[96.7,1984],[96.9,2068],[96.9,2152],[96.7,2234],[96.7,2318],[95,2401],[89.2,2484],[83.4,2568],[79.2,2651],[77.7,2735],[77.7,2817],[77.7,2902],[77.7,2985],[77.7,3068],[77.7,3151],[77.7,3235],[77.7,3318],[77.7,3401],[77.7,3485],[77.7,3569],[77.7,3652],[77.7,3734],[77.7,3818],[77.7,3902],[77.7,3985],[77.7,4068],[77.7,4152],[77.7,4235],[77.7,4319],[77.7,4403],[77.8,4486],[77.8,4569],[77.8,4652],[77.8,4735],[77.8,4819],[77.8,4902],[77.8,4985],[77.8,5069],[77.8,5152],[77.8,5236],[77.8,5319],[77.8,5403],[77.8,5485],[77.8,5569],[77.8,5653],[77.8,5736],[77.8,5819],[77.8,5902],[77.8,5987],[77.8,6070],[77.8,6153],[77.8,6236],[77.8,6320],[77.8,6403],[77.8,6486],[77.8,6570],[77.8,6653],[77.8,6736],[77.8,6820],[77.8,6903],[77.8,6987],[77.8,7070],[77.8,7153],[77.8,7237],[77.8,7320],[77.8,7403],[77.8,7487],[77.8,7570],[77.8,7653],[77.8,7737],[77.8,7820],[77.8,7904],[77.8,7988],[77.8,8071],[77.8,8154],[77.8,8237],[77.8,8320],[77.8,8404],[77.8,8487],[77.8,8570],[77.8,8654],[77.8,8738],[77.8,8821],[77.8,8904],[77.8,8988],[77.8,9071],[77.8,9154],[77.8,9237],[77.8,9321],[77.8,9405],[77.8,9488],[77.8,9571],[77.8,9655],[77.8,9737],[77.8,9821],[77.8,9905],[77.8,9988],[77.8,10071],[77.8,10155],[77.8,10239],[77.8,10321],[77.8,10405],[78.1,10488],[78.3,10571],[78.6,10654],[78.6,10738],[78.8,10822],[78.8,10905],[78.8,10988],[78.8,11072],[78.8,11156],[78.8,11238],[78.8,11322],[78.8,11405],[78.8,11489],[78.8,11572],[78.8,11655],[78.8,11739],[77.7,11822],[68.4,11905],[60.5,11989],[56.1,12072],[54.1,12155],[52.8,12240],[51.9,12322],[51.6,12406],[51.6,12489],[51.6,12557]]",1,0,891.667,893.834,63.4375,1.76,"[{""rating"":63.4375,""responseTime"":1.759999999999991}]",space,1.618,,893.834,Partially,50,893.84,,,[],,0,13,13,13,1,audio/Narrative8Situation4.wav,audio/Narrative7Situation4.wav,audio/Narrative6Situation4.wav,audio/Narrative5Situation4.wav,3,3,2,1,,,,,,,,,,,,,,,,,,,,,,,,,,,,,,,,,,,,,,,
,,,,,,663043f63dbecb9fd3c400e8,2024-05-13_12h06.46.359,group3.1-3.2-social-tom,2023.2.2,MacIntel,58.82352941,65c5074098b851296ff0b7ed,66423a6bb2db17389601cd55,,,,,,,,,,,,,,,,,,,,,,,,,,,,,893.841,2,audio/Narrative6Situation5.wav,895.852,,895.852,903.821,"[[63.9,1899],[64.1,1983],[64.2,2067],[64.4,2149],[64.4,2233],[64.4,2317],[64.4,2401],[64.4,2484],[64.4,2567],[64.4,2649],[64.4,2734],[68.6,2817],[75.9,2901],[79.8,2984],[81.7,3067],[83,3149],[84.5,3235],[85.2,3317],[85.2,3401],[85.2,3485],[85.2,3567],[85.2,3651],[85.2,3734],[85.2,3817],[85.2,3901],[85.2,3985],[85.2,4067],[85.2,4151],[85.2,4235],[85.2,4317],[85.2,4401],[85.2,4485],[85.2,4567],[85.2,4651],[85.2,4735],[85.2,4817],[85.2,4902],[85.2,4984],[85.2,5067],[85.2,5152],[85.5,5235],[85.6,5317],[85.8,5402],[86.1,5485],[86.1,5567],[86.3,5652],[86.3,5735],[86.3,5820],[86.3,5901],[86.3,5985],[86.3,6069],[86.4,6152],[86.4,6235],[86.6,6319],[86.6,6402],[86.6,6485],[86.6,6567],[86.6,6652],[86.6,6735],[86.6,6819],[86.6,6903],[86.6,6985],[86.6,7069],[86.6,7152],[86.6,7235],[86.6,7320],[86.6,7402],[86.6,7485],[86.6,7570],[86.6,7653],[86.6,7735],[86.6,7820],[86.6,7884],[86.9,7969]]",1,0,903.821,905.889,97.1875,1.634,"[{""rating"":97.1875,""responseTime"":1.6340000000000146}]",space,1.537,,905.889,Partially,50,905.892,,,[],,0,14,14,14,1,audio/Narrative8Situation5.wav,audio/Narrative7Situation5.wav,audio/Narrative6Situation5.wav,audio/Narrative5Situation5.wav,2,5,2,5,,,,,,,,,,,,,,,,,,,,,,,,,,,,,,,,,,,,,,,
,,,,,,663043f63dbecb9fd3c400e8,2024-05-13_12h06.46.359,group3.1-3.2-social-tom,2023.2.2,MacIntel,58.82352941,65c5074098b851296ff0b7ed,66423a6bb2db17389601cd55,,,,,,,,,,,,,,,,,,,,,,,,,,,,,905.893,2,audio/Narrative6Situation6.wav,907.907,,907.907,918.995,"[[96.9,1233],[96.6,1316],[95.3,1400],[94.7,1483],[94.2,1566],[94.2,1649],[94.2,1733],[94.2,1816],[94.2,1900],[94.2,1983],[94.2,2066],[94.2,2150],[94.2,2233],[94.2,2317],[94.4,2400],[94.4,2483],[95,2566],[99.1,2649],[100,2734],[100,2817],[100,2900],[100,2984],[100,3067],[100,3151],[100,3234],[100,3317],[100,3401],[100,3484],[100,3571],[100,3650],[100,3734],[100,3817],[100,3900],[100,3988],[100,4067],[100,4151],[100,4234],[100,4317],[100,4400],[100,4483],[100,4568],[100,4651],[100,4735],[100,4818],[100,4901],[100,4985],[100,5068],[100,5151],[100,5235],[100,5318],[100,5402],[100,5485],[100,5568],[100,5652],[100,5735],[100,5818],[100,5902],[100,5985],[100,6068],[100,6152],[100,6235],[100,6319],[100,6402],[100,6486],[100,6569],[100,6652],[100,6735],[100,6819],[100,6902],[100,6985],[100,7069],[100,7152],[100,7236],[100,7319],[100,7403],[100,7486],[100,7569],[100,7655],[100,7736],[100,7819],[100,7903],[100,7986],[100,8070],[100,8153],[100,8236],[100,8320],[100,8403],[100,8486],[100,8570],[100,8653],[100,8735],[100,8820],[100,8904],[100,8987],[100,9070],[100,9153],[100,9237],[100,9319],[100,9403],[100,9487],[100,9570],[100,9653],[100,9737],[100,9819],[100,9903],[100,9987],[100,10070],[100,10154],[100,10237],[100,10320],[100,10404],[100,10487],[100,10570],[100,10654],[100,10738],[100,10821],[100,10903],[100,10980],[100,11054]]",1,0,918.995,920.713,99.53125,1.098,"[{""rating"":99.53125,""responseTime"":1.09800000000007}]",space,1.185,,920.714,Definitely yes,100,920.72,,,[],,0,15,15,15,1,audio/Narrative8Situation6.wav,audio/Narrative7Situation6.wav,audio/Narrative6Situation6.wav,audio/Narrative5Situation6.wav,2,3,2,3,,,,,,,,,,,,,,,,,,,,,,,,,,,,,,,,,,,,,,,
,,,,,,663043f63dbecb9fd3c400e8,2024-05-13_12h06.46.359,group3.1-3.2-social-tom,2023.2.2,MacIntel,58.82352941,65c5074098b851296ff0b7ed,66423a6bb2db17389601cd55,,,,,,,,,,,,,,,,,,,,,,,,,,,,,920.721,2,audio/Narrative6Situation7.wav,925.732,,925.732,950.578,"[[99.5,2650],[99.5,2735],[99.5,2817],[99.5,2900],[99.5,2985],[99.5,3067],[99.5,3150],[99.5,3235],[99.7,3317],[99.7,3402],[99.7,3485],[99.7,3569],[99.7,3650],[99.5,3735],[94.8,3819],[84.8,3902],[81.6,3984],[81.6,4067],[81.6,4152],[81.6,4235],[75,4319],[61.1,4402],[54.1,4485],[49.8,4569],[47.8,4652],[47.8,4735],[47.8,4819],[47.8,4902],[47.8,4985],[48,5069],[48,5153],[48,5235],[48,5319],[48,5403],[48,5485],[48,5570],[48.6,5652],[48.9,5735],[49.1,5820],[49.1,5903],[49.1,5985],[49.1,6070],[49.1,6152],[49.1,6235],[49.1,6320],[49.1,6403],[49.4,6485],[49.8,6570],[50.6,6661],[53.1,6742],[57,6826],[59.8,6904],[62.3,6987],[64.5,7069],[65.3,7153],[65.5,7235],[65.8,7320],[67.3,7403],[69.2,7487],[71.4,7569],[71.9,7653],[71.9,7735],[71.9,7821],[71.9,7903],[71.9,7987],[72.2,8069],[78.6,8153],[88.8,8235],[95.8,8321],[99.4,8403],[100,8487],[100,8571],[100,8653],[100,8737],[100,8821],[100,8903],[100,8988],[100,9071],[100,9153],[100,9238],[100,9321],[100,9404],[100,9488],[100,9571],[100,9654],[100,9738],[100,9821],[100,9904],[100,9988],[100,10071],[100,10154],[100,10238],[100,10322],[100,10404],[100,10489],[100,10572],[100,10654],[100,10738],[100,10822],[100,10904],[100,10988],[100,11071],[100,11154],[100,11239],[100,11322],[100,11406],[100,11489],[100,11572],[100,11654],[100,11738],[100,11822],[100,11906],[100,11989],[100,12072],[100,12156],[100,12239],[100,12322],[100,12406],[100,12490],[100,12572],[100,12656],[100,12740],[100,12822],[100,12906],[100,12990],[100,13072],[100,13156],[100,13240],[100,13322],[100,13406],[100,13490],[100,13572],[100,13657],[100,13739],[100,13824],[100,13907],[100,13990],[100,14072],[100,14157],[100,14240],[100,14322],[100,14407],[100,14490],[100,14574],[100,14657],[100,14740],[100,14824],[100,14907],[100,14990],[100,15074],[100,15157],[100,15240],[100,15324],[100,15408],[100,15490],[100,15574],[100,15658],[100,15740],[100,15824],[100,15907],[100,15990],[100,16075],[100,16158],[100,16240],[100,16324],[100,16408],[100,16490],[100,16575],[100,16658],[100,16740],[100,16825],[100,16911],[100,16990],[100,17075],[100,17158],[100,17242],[100,17325],[100,17408],[100,17492],[100,17575],[100,17658],[100,17742],[100,17825],[100,17908],[100,17990],[100,18075],[100,18158],[100,18240],[100,18325],[100,18408],[100,18492],[100,18575],[100,18658],[100,18742],[100,18825],[100,18908],[100,18993],[100,19076],[100,19158],[100,19242],[100,19326],[100,19408],[100,19492],[100,19576],[100,19660],[100,19743],[100,19826],[100,19910],[100,19993],[100,20075],[100,20160],[100,20243],[100,20327],[100,20408],[100,20493],[100,20577],[100,20660],[100,20743],[100,20827],[100,20910],[100,20993],[100,21077],[100,21163],[100,21243],[100,21326],[100,21411],[100,21494],[100,21577],[100,21660],[100,21744],[100,21827],[100,21910],[100,21994],[100,22077],[100,22161],[100,22244],[100,22327],[100,22411],[100,22493],[100,22577],[100,22661],[100,22744],[100,22827],[100,22911],[100,22994],[100,23077],[100,23161],[100,23245],[100,23327],[100,23411],[100,23494],[100,23577],[100,23661],[100,23744],[100,23827],[100,23912],[100,23995],[100,24077],[100,24162],[100,24244],[100,24327],[100,24412],[100,24495],[100,24577],[100,24662],[100,24742],[100,24812]]",1,0,950.58,952.662,99.6875,1.174,"[{""rating"":99.6875,""responseTime"":1.1739999999999782}]",space,1.535,,952.663,Definitely yes,100,952.666,,,[],,0,16,16,16,1,audio/Narrative8Situation7.wav,audio/Narrative7Situation7.wav,audio/Narrative6Situation7.wav,audio/Narrative5Situation7.wav,3,5,5,4,,,,,,,,,,,,,,,,,,,,,,,,,,,,,,,,,,,,,,,
,,,,,,663043f63dbecb9fd3c400e8,2024-05-13_12h06.46.359,group3.1-3.2-social-tom,2023.2.2,MacIntel,58.82352941,65c5074098b851296ff0b7ed,66423a6bb2db17389601cd55,,,,,,,,,,,,,,,,,,,,,,,,,,,,,952.667,2,audio/Narrative6Situation8.wav,957.681,,957.681,964.535,"[[99.4,1483],[99.2,1567],[99.1,1649],[99.1,1732],[99.1,1817],[99.1,1900],[99.1,1983],[99.1,2067],[99.1,2150],[99.1,2233],[99.1,2317],[99.1,2400],[97.7,2483],[89.7,2567],[83.6,2650],[81.4,2735],[81.1,2817],[80.9,2899],[80.9,2983],[80.9,3067],[80.9,3150],[80.9,3233],[80.9,3317],[80.9,3400],[80.9,3483],[80.9,3567],[80.9,3650],[80.6,3733],[74.7,3817],[66.7,3901],[60,3985],[55.5,4067],[50.2,4150],[47.5,4235],[45.9,4317],[45.6,4401],[45.6,4485],[45.6,4568],[45.6,4651],[45.6,4735],[45.6,4818],[45.6,4901],[45.6,4985],[45.6,5067],[45.6,5151],[45.6,5235],[45.6,5317],[45.6,5402],[45.6,5485],[45.6,5568],[45.6,5651],[45.6,5735],[45.6,5818],[45.6,5901],[45.6,5985],[45.6,6068],[45.6,6152],[45.6,6235],[45.6,6318],[45.6,6402],[45.6,6485],[45.6,6568],[45.6,6652],[42.8,6735],[34.8,6807]]",1,0,964.536,966.735,0.15625,1.724,"[{""rating"":0.15625000000000222,""responseTime"":1.7239999999999327}]",space,1.654,,966.736,Not at all,0,966.742,,,[],,0,17,17,17,1,audio/Narrative8Situation8.wav,audio/Narrative7Situation8.wav,audio/Narrative6Situation8.wav,audio/Narrative5Situation8.wav,3,2,5,3,,,,,,,,,,,,,,,,,,,,,,,,,,,,,,,,,,,,,,,
,,,,,,663043f63dbecb9fd3c400e8,2024-05-13_12h06.46.359,group3.1-3.2-social-tom,2023.2.2,MacIntel,58.82352941,65c5074098b851296ff0b7ed,66423a6bb2db17389601cd55,,,,,,,,,,,,,,,,,,,,,,,,,,,,,966.743,2,audio/Narrative6Situation9.wav,970.754,,970.754,980.708,"[[38,1566],[34.5,1649],[32.5,1732],[31.4,1817],[31.1,1899],[31.1,1984],[31.1,2067],[31.1,2149],[27.5,2234],[23.1,2317],[19.4,2400],[17,2484],[16.6,2567],[16.6,2650],[16.6,2734],[16.6,2817],[16.6,2899],[16.6,2984],[16.6,3067],[16.6,3150],[16.6,3234],[16.6,3317],[16.6,3400],[16.6,3484],[16.6,3567],[13.3,3650],[3,3734]]",1,0,980.708,982.576,0.3125,1.178,"[{""rating"":0.3124999999999989,""responseTime"":1.1779999999999973}]",space,1.337,,982.576,Definitely yes,100,982.582,,,[],,0,18,18,18,1,audio/Narrative8Situation9.wav,audio/Narrative7Situation9.wav,audio/Narrative6Situation9.wav,audio/Narrative5Situation9.wav,3,2,4,3,,,,,,,,,,,,,,,,,,,,,,,,,,,,,,,,,,,,,,,
,,,,,,663043f63dbecb9fd3c400e8,2024-05-13_12h06.46.359,group3.1-3.2-social-tom,2023.2.2,MacIntel,58.82352941,65c5074098b851296ff0b7ed,66423a6bb2db17389601cd55,,,,,,,,,,,,,,,,,,,,,,,,,,,,,,,,,,,,,,,,,,,,,,,,,,,,,,,,,,,,,,,,,,,,,,,,982.582,984.328,space,1.224,,984.329,994.665,space,10.007,,,,,,,,,,,,,,,,,,,,,,,,,,
