exp_question,consent.started,consent.stopped,consentResponse.keys,consentResponse.rt,consentResponse.duration,participantID,date,expName,psychopyVersion,OS,frameRate,STUDY_ID,SESSION_ID,opening1.started,opening1.stopped,keyEndingOpening1.keys,keyEndingOpening1.rt,keyEndingOpening1.duration,volumeAdjust.started,volumeAdjust.stopped,endingAdjust.keys,endingAdjust.rt,endingAdjust.duration,opening2.started,opening2.stopped,keyEndingOpening.keys,keyEndingOpening.rt,keyEndingOpening.duration,mouse.x,mouse.y,mouse.leftButton,mouse.midButton,mouse.rightButton,mouse.time,instructionLoop.thisRepN,instructionLoop.thisTrialN,instructionLoop.thisN,instructionLoop.thisIndex,instructionLoop.ran,readyForAudio.started,readyForAudio.stopped,fixation.started,run,audio_played,fixation.stopped,endPractice.keys,audioPre.started,audioPre.stopped,continuousResponses_audio,continuousSlider.response,continuousSlider.rt,intRating.started,intRating.stopped,intQuestionSlider.response,intQuestionSlider.rt,intQuestionSlider.history,confirmResponse.keys,confirmResponse.rt,confirmResponse.duration,catchQuestion.started,catch_label,catch_value,catchQuestion.stopped,catchQuestionSlider.response,catchQuestionSlider.rt,catchQuestionSlider.history,confirmResponse_2.keys,audioRunLoop.thisRepN,audioRunLoop.thisTrialN,audioRunLoop.thisN,audioRunLoop.thisIndex,audioRunLoop.ran,conditions1_1,conditions2_1,conditions1_2,conditions2_2,dur1_1,dur2_1,dur1_2,dur2_2,endPractice.rt,endPractice.duration,confirmResponse_2.rt,confirmResponse_2.duration,runIntervalBreak.started,runIntervalBreak.stopped,endingBreakKey.keys,endingBreakKey.rt,endingBreakKey.duration,connection.started,connection.stopped,connectionEnding.keys,connectionEnding.rt,connectionEnding.duration,readyForText.started,readyForText.stopped,textPre.started,run_dup,textPre.stopped,continuousResponses_text,textRunLoop.thisRepN,textRunLoop.thisTrialN,textRunLoop.thisN,textRunLoop.thisIndex,textRunLoop.ran,text1_1,text1_2,text2_1,text2_2,runBreakText.started,runBreakText.stopped,endingBreakKey_2.keys,endingBreakKey_2.rt,endingBreakKey_2.duration,ending.started,ending.stopped,endingEnding.keys,endingEnding.rt,endingEnding.duration
social,0.0008,30.0878,y,29.77,,66318eecf4b2dd2836d910d8,2024-05-13_08h30.50.719,group3.1-3.2-social-tom,2023.2.2,Win32,60.24096386,65c5074098b851296ff0b7ed,6642321feed2cd5eea14b3fd,,,,,,,,,,,,,,,,,,,,,,,,,,,,,,,,,,,,,,,,,,,,,,,,,,,,,,,,,,,,,,,,,,,,,,,,,,,,,,,,,,,,,,,,,,,,,,,,,,,,,,,,,,
,,,,,,66318eecf4b2dd2836d910d8,2024-05-13_08h30.50.719,group3.1-3.2-social-tom,2023.2.2,Win32,60.24096386,65c5074098b851296ff0b7ed,6642321feed2cd5eea14b3fd,30.088,36.9378,space,6.8041,,,,,,,,,,,,,,,,,,,,,,,,,,,,,,,,,,,,,,,,,,,,,,,,,,,,,,,,,,,,,,,,,,,,,,,,,,,,,,,,,,,,,,,,,,,,,,,,,,,,,,
,,,,,,66318eecf4b2dd2836d910d8,2024-05-13_08h30.50.719,group3.1-3.2-social-tom,2023.2.2,Win32,60.24096386,65c5074098b851296ff0b7ed,6642321feed2cd5eea14b3fd,,,,,,36.9379,48.721,space,11.4534,,,,,,,,,,,,,,,,,,,,,,,,,,,,,,,,,,,,,,,,,,,,,,,,,,,,,,,,,,,,,,,,,,,,,,,,,,,,,,,,,,,,,,,,,,,,,,,,,
,,,,,,66318eecf4b2dd2836d910d8,2024-05-13_08h30.50.719,group3.1-3.2-social-tom,2023.2.2,Win32,60.24096386,65c5074098b851296ff0b7ed,6642321feed2cd5eea14b3fd,,,,,,,,,,,48.7263,60.1379,space,11.3839,,[],[],[],[],[],[],0,0,0,0,1,,,,,,,,,,,,,,,,,,,,,,,,,,,,,,,,,,,,,,,,,,,,,,,,,,,,,,,,,,,,,,,,,,,,,,,,,,,,,,,,
,,,,,,66318eecf4b2dd2836d910d8,2024-05-13_08h30.50.719,group3.1-3.2-social-tom,2023.2.2,Win32,60.24096386,65c5074098b851296ff0b7ed,6642321feed2cd5eea14b3fd,,,,,,,,,,,60.1437,90.7041,space,30.4835,,[],[],[],[],[],[],1,0,1,0,1,,,,,,,,,,,,,,,,,,,,,,,,,,,,,,,,,,,,,,,,,,,,,,,,,,,,,,,,,,,,,,,,,,,,,,,,,,,,,,,,
,,,,,,66318eecf4b2dd2836d910d8,2024-05-13_08h30.50.719,group3.1-3.2-social-tom,2023.2.2,Win32,60.24096386,65c5074098b851296ff0b7ed,6642321feed2cd5eea14b3fd,,,,,,,,,,,90.71,125.4205,space,34.6754,,[],[],[],[],[],[],2,0,2,0,1,,,,,,,,,,,,,,,,,,,,,,,,,,,,,,,,,,,,,,,,,,,,,,,,,,,,,,,,,,,,,,,,,,,,,,,,,,,,,,,,
,,,,,,66318eecf4b2dd2836d910d8,2024-05-13_08h30.50.719,group3.1-3.2-social-tom,2023.2.2,Win32,60.24096386,65c5074098b851296ff0b7ed,6642321feed2cd5eea14b3fd,,,,,,,,,,,125.427,149.0203,space,23.5655,,[],[],[],[],[],[],3,0,3,0,1,,,,,,,,,,,,,,,,,,,,,,,,,,,,,,,,,,,,,,,,,,,,,,,,,,,,,,,,,,,,,,,,,,,,,,,,,,,,,,,,
,,,,,,66318eecf4b2dd2836d910d8,2024-05-13_08h30.50.719,group3.1-3.2-social-tom,2023.2.2,Win32,60.24096386,65c5074098b851296ff0b7ed,6642321feed2cd5eea14b3fd,,,,,,,,,,,149.0262,163.7202,space,14.6765,,[],[],[],[],[],[],4,0,4,0,1,,,,,,,,,,,,,,,,,,,,,,,,,,,,,,,,,,,,,,,,,,,,,,,,,,,,,,,,,,,,,,,,,,,,,,,,,,,,,,,,
,,,,,,66318eecf4b2dd2836d910d8,2024-05-13_08h30.50.719,group3.1-3.2-social-tom,2023.2.2,Win32,60.24096386,65c5074098b851296ff0b7ed,6642321feed2cd5eea14b3fd,,,,,,,,,,,,,,,,,,,,,,,,,,,163.7273,166.3036,166.3176,1,audio/Narrative13Situation2.wav,168.3205,,168.3206,198.0763,"[[51.8,338],[51.8,421],[51.4,1005],[50.9,1088],[50.6,1172],[50.4,1255],[50.3,1338],[50.3,1419],[50.2,1505],[50.2,1588],[50.2,1666],[50.2,1754],[50.2,1838],[49.9,1922],[49.9,1999],[49.9,2088],[49.9,2171],[49.9,2252],[49.9,2338],[50,2416],[50.1,2505],[50.1,2588],[50.1,2665],[50.1,2753],[50.1,2838],[50.1,2915],[49.9,3005],[49.9,3082],[49.5,3172],[48.6,3255],[47.6,3339],[45.7,3422],[44,3505],[40.9,3589],[35.4,3672],[18.9,4338],[26,4421],[26.3,4505],[26.3,4582],[26.3,4671],[23.6,4755],[17.4,4838],[14.7,4922],[13.6,5006],[12.4,5088],[11.7,5172],[11.7,5249],[11.7,5338],[11.7,5421],[11.7,5505],[11.7,5588],[9.8,5671],[7.9,5755],[5.8,5838],[4.4,5922],[3.8,6005],[2,6088],[1,6171],[0.4,6255],[0.3,6340],[0.3,6416],[0.3,6505],[0.3,6588],[0.3,6665],[0.2,6755],[0.2,6837],[0.2,6921],[0.2,7005],[0.2,7088],[0.2,7165],[0.2,7249],[0.2,7332],[0.2,7423],[0.2,7499],[0.2,7582],[0.2,7671],[0.2,7754],[0.2,7832],[0.2,7921],[0.2,7999],[0.2,8082],[0.2,8171],[0.2,8249],[0.2,8338],[0.2,8421],[0.3,8499],[3.5,8589],[5.3,8672],[7.3,8755],[11,8838],[14.5,8922],[19.2,9006],[23,9088],[25.8,9172],[28.6,9255],[58.1,9505],[62.9,9589],[64.7,9672],[64.9,9749],[64.8,9838],[64.8,9916],[66.3,10006],[70.7,10088],[72.3,10172],[75.2,10255],[76.3,10338],[76.5,10415],[76.5,10504],[76.5,10582],[76.5,10665],[76.5,10755],[76.5,10835],[77.2,10922],[77.8,11006],[77.8,11082],[81.5,11172],[87,11255],[90.6,11338],[92.6,11422],[94.2,11505],[96.1,11589],[98.6,11672],[100,11755],[100,11838],[100,11921],[100,11999],[100,12088],[100,12176],[100,12249],[100,12338],[100,12421],[100,12499],[100,12588],[100,12672],[100,12749],[100,12838],[100,12921],[100,13005],[100,13088],[100,13171],[100,13249],[100,13332],[100,13416],[100,13499],[100,13587],[100,13665],[100,13749],[100,13832],[100,13916],[100,14005],[100,14082],[100,14165],[100,14255],[100,14332],[100,14415],[100,14499],[100,14582],[100,14665],[100,14754],[100,14832],[100,14919],[100,15005],[100,15082],[100,15171],[100,15255],[100,15338],[100,15415],[100,15499],[100,15588],[100,15672],[98.5,15756],[94.1,15838],[84,15921],[71,16006],[61.8,16089],[54.9,16173],[42.6,16257],[30.4,16338],[22,16422],[16.8,16505],[10.2,16588],[7.7,16672],[7.7,16749],[7.7,16838],[7.5,16919],[5.2,17005],[3.8,17089],[2.8,17172],[1.7,17257],[0.4,17339]]",1,0,198.0766,220.0927,0,17.3221,"[{""rating"":1.9791666666666652,""responseTime"":14.015500000000003},{""rating"":0,""responseTime"":17.322100000023823}]",space,21.4627,,220.0979,Partially,50,220.1008,,,[],,0,0,0,0,1,audio/Narrative13Situation2.wav,audio/Narrative13Situation2.wav,audio/Narrative13Situation2.wav,audio/Narrative13Situation2.wav,2,2,2,2,,,,,,,,,,,,,,,,,,,,,,,,,,,,,,,,,,,,,,,
,,,,,,66318eecf4b2dd2836d910d8,2024-05-13_08h30.50.719,group3.1-3.2-social-tom,2023.2.2,Win32,60.24096386,65c5074098b851296ff0b7ed,6642321feed2cd5eea14b3fd,,,,,,,,,,,,,,,,,,,,,,,,,,,,,220.101,1,audio/Narrative7Situation1.wav,222.8533,space,222.8534,278.7531,"[[999,0],[999,82],[999,172],[999,249],[999,332],[999,416],[999,505],[999,585],[999,666],[999,749],[999,832],[999,921],[999,1004],[999,1082],[999,1171],[999,1249],[999,1338],[999,1422],[999,1503],[999,1588],[999,1672],[38.1,1756],[38.3,1838],[38.9,1922],[42.9,2006],[43.8,2088],[43.8,2172],[43.8,2249],[42.2,2339],[41.1,2422],[41.1,2503],[41,2588],[41,2672],[40.5,2756],[39.5,2839],[39.1,2922],[37.1,3005],[34.6,3089],[28.8,3172],[18.6,3255],[0.1,3839],[0.4,3922],[1.4,4006],[1.6,4089],[0.3,4173],[3.1,14594],[6.8,14672],[6.8,14749],[6.8,14837],[6.8,14916],[7.2,15005],[9.3,15088],[10.2,15173],[12.4,15256],[12.8,15338],[12.8,15421],[12.8,15505],[12.8,15582],[12.8,15666],[12.8,15753],[12.8,15832],[12.8,15916],[14.5,16005],[16,16089],[19.2,16172],[33.3,17005],[33.6,17088],[31.4,18422],[32.9,18508],[34.5,18590],[34.6,18666],[34.8,18755],[36.5,18839],[38.8,18922],[41.6,19005],[43.6,19088],[44.2,19166],[44.2,19255],[44.2,19338],[44.8,19421],[44.9,19502],[44.9,19589],[44.9,19671],[44.9,19754],[44.9,19838],[44.9,19916],[44.9,19999],[44.9,20086],[44.9,20171],[44.9,20249],[44.9,20332],[44.9,20419],[44.9,20499],[45.6,20589],[47.5,20673],[47.7,20749],[48.1,20838],[48.4,20921],[48.4,20999],[48.8,21088],[48.9,21171],[45.6,21256],[31.8,21338],[0.7,37344],[2.1,37422],[4.1,37505],[6.9,37588],[10.1,37673],[13.3,37755],[15.5,37839],[17.1,37921],[18.4,38005],[28,38422],[29.3,38505],[29.8,38588],[29.8,38666],[30.8,38755],[33,38839],[34.6,38921],[36,39005],[37.4,39089],[39.1,39172],[40.3,39255],[41.9,39339],[43.1,39422],[44,39505],[45.1,39588],[45.8,39672],[46.1,39755],[46.4,39832],[46.9,39921],[47.4,40005],[48.2,40089],[49.3,40172],[49.7,40255],[50,40338],[50.2,40416],[50.2,40499],[50.2,40582],[50.2,40671],[50.2,40754],[50.3,40832],[50.3,40921],[50.3,40999],[50.3,41082],[50.3,41171],[50.3,41254],[50.3,41332],[50.3,41421],[50.3,41505],[50.3,41588],[50.3,41671],[50.3,41749],[50.3,41838],[50.3,41916],[50.3,41999],[50.3,42088],[50.3,42165],[50.3,42249],[50.3,42338],[50.3,42416],[50.3,42499],[50.3,42582],[50.3,42666],[50.3,42755],[50.3,42838],[50.3,42916],[50.3,43004],[50.3,43082],[50.3,43172],[50.3,43254],[50.3,43338],[50.3,43416],[50.3,43505],[52.6,43595],[59.5,43673],[64.8,43756],[66.8,43839],[72.5,43922],[77.4,44006],[78.2,44089],[78.3,44166],[82,44255],[84.8,44338],[87.2,44422],[88.6,44505],[90.7,44588],[92.8,44672],[92.9,44749],[92.9,44840],[94.6,44922],[98.1,45005],[100,45089],[100,45172],[100,45249],[100,45332],[100,45416],[100,45499],[100,45588],[100,45671],[100,45749],[100,45840],[100,45916],[100,46005],[99.5,46089],[97.5,46172],[92.4,46255],[89.5,46338],[69.2,46755],[65.1,46839],[63.4,46922],[62.9,47005],[60.6,47089],[58.3,47172],[57,47255],[54.5,47338],[52.9,47422],[52.2,47505],[51.8,47588],[50.9,47671],[50.4,47755],[49.9,47832],[49.6,47921],[49.5,47999],[49.5,48088],[49.5,48171],[49.5,48252],[49.6,48332],[49.8,48419],[50,48499],[50.2,48588],[50.2,48666],[50.2,48749],[50.2,48832],[50.2,48916],[50.2,48999],[50.2,49088],[50.2,49166],[50.2,49249],[50.2,49338],[50.2,49421],[50.2,49499],[50.2,49588],[50.2,49671],[50.2,49749],[50.2,49838],[50.2,49921],[50.2,49999],[50.2,50082],[50.2,50172],[50.2,50249],[50.2,50338],[50.2,50416],[50.2,50499],[50.2,50588],[50.2,50671],[50.2,50754],[50.2,50832],[50.2,50916],[50.2,50999],[50.2,51088],[50.2,51171],[50.2,51255],[50.2,51332],[50.2,51421],[50.2,51505],[50.2,51582],[50.2,51666],[50.2,51754],[50.2,51838],[50.2,51921],[50.2,51999],[50.2,52082],[50.2,52166],[50.2,52249],[50.2,52332],[50.2,52423],[50.2,52505],[50.2,52582],[50.2,52671],[50.2,52749],[50.2,52837],[50.2,52921],[50.2,52999],[50.2,53087],[50.2,53171],[50.2,53249],[50.2,53332],[50.2,53416],[50.2,53508],[50.2,53582],[50.2,53671],[50.2,53749],[50.2,53838],[50.2,53916],[50.2,53999],[50.2,54085],[50.2,54172],[50.2,54249],[50.2,54332],[50.2,54421],[50.2,54504],[50.2,54590],[50.2,54666],[50.2,54754],[50.2,54838],[50.2,54922],[50.2,54999],[50.2,55082],[50.2,55166],[50.2,55255],[50.2,55332],[50.2,55415],[50.2,55499],[50.2,55588],[50.2,55671],[50.2,55754],[50.2,55832]]",1,0,278.7532,292.7028,74.58333333,11.2562,"[{""rating"":74.58333333333333,""responseTime"":11.25620000004767}]",space,13.4015,,292.7028,Partially,50,292.7042,,,[],,0,1,1,1,1,audio/Narrative7Situation1.wav,audio/Narrative8Situation1.wav,audio/Narrative5Situation1.wav,audio/Narrative6Situation1.wav,2,5,5,2,2.7279,,,,,,,,,,,,,,,,,,,,,,,,,,,,,,,,,,,,,,
,,,,,,66318eecf4b2dd2836d910d8,2024-05-13_08h30.50.719,group3.1-3.2-social-tom,2023.2.2,Win32,60.24096386,65c5074098b851296ff0b7ed,6642321feed2cd5eea14b3fd,,,,,,,,,,,,,,,,,,,,,,,,,,,,,292.7043,1,audio/Narrative7Situation2.wav,295.7059,,295.7059,303.2088,"[[999,0],[999,86],[999,169],[999,252],[999,335],[999,417],[999,496],[999,583],[999,669],[999,753],[999,830],[999,913],[999,996],[999,1086],[999,1169],[35.8,1252],[36.4,1336],[37,1420],[37.3,1502],[37.3,1585],[37.3,1663],[37.3,1746],[35.9,1836],[29.3,1919],[22.5,2002],[16,2086],[12.8,2169],[12.8,2246],[13.9,2335],[14.2,2420],[14.2,2502],[11.6,2586],[9.4,2669],[9.4,2746],[10.3,2836],[26.5,2919],[53.9,3420],[49.2,3503],[48.2,3586],[47.9,3669],[47.9,3752],[47.9,3836],[47.9,3913],[48.9,4002],[49,4084],[49.4,4169],[49.8,4252],[49.9,4335],[49.9,4413],[49.9,4496],[49.9,4586],[49.9,4669],[49.9,4752],[50,4830],[50,4916],[50.1,5002],[54.6,5086],[58.6,5169],[62.7,5253],[67.5,5336],[75.5,5420],[85.4,5502],[91.6,5586],[92.4,5663],[92.4,5746],[95,5838],[99,5920],[100,6002],[100,6086],[100,6169],[100,6250],[100,6330],[100,6420],[100,6497],[100,6580],[100,6669],[100,6746],[100,6830],[100,6922],[100,6996],[100,7080],[100,7163],[100,7246],[100,7333],[100,7413],[100,7502]]",1,0,303.2089,311.6751,100,6.0999,"[{""rating"":97.8125,""responseTime"":4.715300000071522},{""rating"":100,""responseTime"":6.099900000095374}]",space,7.9205,,311.6751,Not at all,0,311.6776,,,[],,0,2,2,2,1,audio/Narrative7Situation2.wav,audio/Narrative8Situation2.wav,audio/Narrative5Situation2.wav,audio/Narrative6Situation2.wav,3,3,3,3,,,,,,,,,,,,,,,,,,,,,,,,,,,,,,,,,,,,,,,
,,,,,,66318eecf4b2dd2836d910d8,2024-05-13_08h30.50.719,group3.1-3.2-social-tom,2023.2.2,Win32,60.24096386,65c5074098b851296ff0b7ed,6642321feed2cd5eea14b3fd,,,,,,,,,,,,,,,,,,,,,,,,,,,,,311.6778,1,audio/Narrative7Situation3.wav,319.6916,,319.6917,328.9584,"[[50.8,2084],[51.1,2166],[51.1,2250],[51.1,2327],[51,2417],[50.1,2500],[49.9,2577],[49.9,2661],[49.9,2744],[49.9,2833],[49.9,2911],[49.9,2994],[49.6,3082],[42.7,3167],[20.9,3333],[8.3,3417],[1.8,3500],[7.8,7167],[49.5,7750],[50.5,7833],[50.6,7914],[50.6,7999],[50.6,8083],[50.5,8167],[50.3,8244],[50.2,8327],[50.2,8416],[50.2,8494],[50.2,8577],[50.2,8660],[50.2,8744],[50.2,8833],[50.2,8910],[50.2,8999],[50.2,9083],[50.2,9160],[50.2,9244]]",1,0,328.9586,338.975,49.89583333,6.9881,"[{""rating"":49.895833333333336,""responseTime"":6.988100000023849}]",space,9.4667,,338.975,Partially,50,338.982,,,[],,0,3,3,3,1,audio/Narrative7Situation3.wav,audio/Narrative8Situation3.wav,audio/Narrative5Situation3.wav,audio/Narrative6Situation3.wav,8,4,3,5,,,,,,,,,,,,,,,,,,,,,,,,,,,,,,,,,,,,,,,
,,,,,,66318eecf4b2dd2836d910d8,2024-05-13_08h30.50.719,group3.1-3.2-social-tom,2023.2.2,Win32,60.24096386,65c5074098b851296ff0b7ed,6642321feed2cd5eea14b3fd,,,,,,,,,,,,,,,,,,,,,,,,,,,,,338.9821,1,audio/Narrative7Situation4.wav,341.9911,,341.9911,353.7359,"[[47.6,1584],[32.3,1667],[0.5,9590],[0.5,9667],[0.3,9750],[0.2,9834],[0.1,9917],[0.1,9999],[0.1,10078]]",1,0,353.736,358.1751,0,1.0968,"[{""rating"":0,""responseTime"":1.0967999999523386}]",space,3.8833,,358.1751,Definitely yes,100,358.1775,,,[],,0,4,4,4,1,audio/Narrative7Situation4.wav,audio/Narrative8Situation4.wav,audio/Narrative5Situation4.wav,audio/Narrative6Situation4.wav,3,3,1,2,,,,,,,,,,,,,,,,,,,,,,,,,,,,,,,,,,,,,,,
,,,,,,66318eecf4b2dd2836d910d8,2024-05-13_08h30.50.719,group3.1-3.2-social-tom,2023.2.2,Win32,60.24096386,65c5074098b851296ff0b7ed,6642321feed2cd5eea14b3fd,,,,,,,,,,,,,,,,,,,,,,,,,,,,,358.1775,1,audio/Narrative7Situation5.wav,363.1915,,363.1917,371.6859,"[[5.3,669],[2.8,751],[0.6,833]]",1,0,371.686,379.8525,0,7.1926,"[{""rating"":0.9375000000000022,""responseTime"":6.242999999999995},{""rating"":0,""responseTime"":7.192600000023845}]",space,7.6102,,379.8526,Partially,50,379.8547,,,[],,0,5,5,5,1,audio/Narrative7Situation5.wav,audio/Narrative8Situation5.wav,audio/Narrative5Situation5.wav,audio/Narrative6Situation5.wav,5,2,5,2,,,,,,,,,,,,,,,,,,,,,,,,,,,,,,,,,,,,,,,
,,,,,,66318eecf4b2dd2836d910d8,2024-05-13_08h30.50.719,group3.1-3.2-social-tom,2023.2.2,Win32,60.24096386,65c5074098b851296ff0b7ed,6642321feed2cd5eea14b3fd,,,,,,,,,,,,,,,,,,,,,,,,,,,,,379.8548,1,audio/Narrative7Situation6.wav,382.8577,,382.8578,392.8247,"[[0.9,2416],[6.1,2501],[13.9,2584],[19.8,2667],[35.2,3167],[35.8,3250],[39.6,3334],[44.6,3417],[49.2,3500],[53,3584],[57.3,3667],[62.7,3750],[66.7,3834],[68.9,3917],[71.1,4000],[72,4083],[72.6,4167],[72.9,4244],[73.9,4334],[74,4415],[74,4500],[74.1,4577],[76.1,4667],[77.9,4750],[81.1,4828],[87.3,4917],[94.1,5000],[100,5085],[100,5333],[100,5411],[100,5500],[100,5583],[100,5666],[100,5749],[100,5827],[100,5917],[100,5994],[100,6083],[100,6161],[100,6252],[100,6333],[100,6415],[100,6499],[100,6577],[100,6661],[100,6744],[100,6833],[100,6911],[100,6994],[100,7083],[100,7161],[100,7244],[100,7332],[100,7415],[100,7494],[100,7577],[100,7661],[100,7744],[100,7833],[100,7911],[100,8000],[100,8083],[100,8161],[100,8250],[100,8335],[100,8411],[100,8500],[100,8577],[100,8667],[100,8747],[100,8833],[100,8911],[100,9000],[100,9077],[100,9161],[100,9244],[100,9327],[100,9415],[100,9494],[100,9577],[100,9668],[100,9744],[100,9830],[100,9917]]",1,0,392.8249,397.0415,100,2.3121,"[{""rating"":99.27083333333333,""responseTime"":1.2360000000000468},{""rating"":100,""responseTime"":2.312100000023861}]",space,3.6707,,397.0415,Partially,50,397.0427,,,[],,0,6,6,6,1,audio/Narrative7Situation6.wav,audio/Narrative8Situation6.wav,audio/Narrative5Situation6.wav,audio/Narrative6Situation6.wav,3,2,3,2,,,,,,,,,,,,,,,,,,,,,,,,,,,,,,,,,,,,,,,
,,,,,,66318eecf4b2dd2836d910d8,2024-05-13_08h30.50.719,group3.1-3.2-social-tom,2023.2.2,Win32,60.24096386,65c5074098b851296ff0b7ed,6642321feed2cd5eea14b3fd,,,,,,,,,,,,,,,,,,,,,,,,,,,,,397.0428,1,audio/Narrative7Situation7.wav,402.0525,,402.0525,419.2254,"[[999,6],[999,82],[999,173],[999,249],[999,332],[999,421],[999,499],[999,590],[3.5,2672],[8.6,2756],[10.6,2839],[13.6,2922],[18,3005],[22,3090],[27,3172],[31.3,3255],[35.9,3339],[41,3422],[48.1,3505],[51.9,3589],[52.1,3672],[52.5,3755],[52.7,3838],[53.2,3922],[54.1,4005],[54.3,4090],[54.3,4171],[54.3,4255],[55.4,5172],[55.7,5255],[55.8,5338],[55.8,5416],[57.3,5505],[59.7,5592],[60.3,5674],[61.5,5756],[63.2,5839],[64,5921],[64.3,6005],[64.3,6082],[64.3,6166],[64.3,6255],[64.3,6332],[64.3,6416],[64.3,6504],[64.3,6583],[66.1,6672],[66.6,6749],[67.3,6839],[67.9,6921],[68.2,7000],[68.9,7090],[69,7171],[69.9,7255],[70.5,7338],[71.7,7422],[72.4,7505],[72.4,7589],[73.5,7672],[74.3,7757],[74.4,7840],[74.6,7921],[74.9,7999],[75.1,8082],[75.2,8166],[75.4,8254],[75.4,8338],[75.9,8416],[76,8499],[76,8582],[76,8671],[76.3,8750],[76.5,8847],[76.9,8921],[76.9,9004],[77.2,9090],[77.9,9173],[78,9255],[78,9332],[78.1,9422],[78.1,9499],[78.1,9582],[78.1,9666],[78.1,9755],[78.1,9832],[77.9,9923],[77.8,10006],[77.8,10083],[77.5,10172],[77.2,10249],[77,10333],[77,10419],[77,10499],[77,10589],[77,10671],[77,10750],[76.6,10839],[76.1,10922],[75.8,11004],[73.4,11090],[38.6,12255],[44.4,12338],[43.6,12590],[37.6,12672],[27.3,12755],[5.5,13422],[9.6,13505],[10.6,13588],[10.6,13666],[10.8,13755],[13.6,13839],[22.8,13922],[41.9,14255],[41.9,14332],[41.9,14420],[42,14499],[42.9,14590],[48.9,14672],[51.7,14756],[52.7,14839],[53.3,14922],[55.3,15005],[59.3,15090],[62.9,15172],[67.8,15256],[71.1,15338],[73.6,15424],[75.8,15507],[77,15590],[79.5,15671],[82.9,15755],[84.9,15839],[84.9,15916],[84.9,16005],[84.9,16082],[84.9,16166],[84.9,16249],[84.9,16333],[84.9,16421],[84.9,16507],[85,16590],[85.5,16672],[87.2,16756],[89.6,16839],[92.6,16922],[95.5,17005]]",1,0,419.2255,428.4096,100,6.7829,"[{""rating"":97.39583333333333,""responseTime"":6.032800000071518},{""rating"":100,""responseTime"":6.782899999976166}]",space,8.6182,,428.4096,Not at all,0,428.4121,,,[],,0,7,7,7,1,audio/Narrative7Situation7.wav,audio/Narrative8Situation7.wav,audio/Narrative5Situation7.wav,audio/Narrative6Situation7.wav,5,3,4,5,,,,,,,,,,,,,,,,,,,,,,,,,,,,,,,,,,,,,,,
,,,,,,66318eecf4b2dd2836d910d8,2024-05-13_08h30.50.719,group3.1-3.2-social-tom,2023.2.2,Win32,60.24096386,65c5074098b851296ff0b7ed,6642321feed2cd5eea14b3fd,,,,,,,,,,,,,,,,,,,,,,,,,,,,,428.4124,1,audio/Narrative7Situation8.wav,430.4245,,430.4245,440.4581,"[[11.4,83],[11.4,161],[11.4,244],[11.4,327],[11.3,415],[7.2,500],[3.3,583],[0.3,667],[1.7,2250],[14,2337],[25.9,2418],[53.2,3333],[51,3417],[49,3500],[47.5,3583],[47.4,3666],[47.4,3750],[48.3,3833],[50.1,3917],[50.2,3994],[50.2,4077],[50.2,4166],[50.6,4250],[50.9,4327],[50.9,4410],[50.9,4494],[50.9,4583],[50.9,4665],[50.9,4744],[53.3,4833],[57,4917],[57.9,5000],[59.5,5083],[60.9,5167],[62.5,5250],[64.4,5333],[65.7,5416],[68.4,5500],[70.8,5583],[74.6,5666],[78.4,5750],[82.9,5833],[92.9,6667],[93.3,6744],[94.1,6827],[96.7,6917],[98.3,7000],[99.2,7083],[99.6,7167],[100,7250],[100,7333],[100,7410],[100,7494],[100,7577],[100,7661],[100,7749],[100,7827],[100,7915],[100,7993],[100,8080],[100,8161],[100,8244],[100,8327],[100,8416],[100,8500],[100,8583],[100,8666],[100,8749],[100,8827],[100,8910],[100,8994],[100,9077],[100,9166],[100,9247],[100,9333],[100,9410],[100,9500],[100,9583],[100,9660],[100,9744],[100,9827],[100,9916],[100,9994]]",1,0,440.4583,449.4083,100,6.6501,"[{""rating"":97.60416666666667,""responseTime"":2.3870000000000005},{""rating"":100,""responseTime"":6.650100000023826}]",space,8.4079,,449.4083,Not at all,0,449.4148,,,[],,0,8,8,8,1,audio/Narrative7Situation8.wav,audio/Narrative8Situation8.wav,audio/Narrative5Situation8.wav,audio/Narrative6Situation8.wav,2,3,3,5,,,,,,,,,,,,,,,,,,,,,,,,,,,,,,,,,,,,,,,
,,,,,,66318eecf4b2dd2836d910d8,2024-05-13_08h30.50.719,group3.1-3.2-social-tom,2023.2.2,Win32,60.24096386,65c5074098b851296ff0b7ed,6642321feed2cd5eea14b3fd,,,,,,,,,,,,,,,,,,,,,,,,,,,,,449.415,1,audio/Narrative7Situation9.wav,451.4248,,451.4249,460.0735,"[[999,0],[999,83],[999,165],[54.2,249],[53.3,333],[51.4,416],[44.1,499],[3.1,1416],[15.3,1499],[43,1666],[47.8,1750],[54.6,1832],[58.4,1916],[60.8,2000],[64.9,2083],[72.3,2166],[92.8,2666],[92.8,2749],[95.1,2833],[98.9,2916],[100,2999],[100,3077],[100,3166],[100,3253],[100,3327],[100,3415],[100,3499],[100,3577],[100,3665],[100,3749],[100,3826],[100,3910],[100,3999],[100,4077],[100,4165],[100,4249],[100,4326],[100,4416],[100,4493],[100,4577],[100,4666],[100,4749],[100,4826],[100,4915],[100,4999],[100,5080],[100,5165],[100,5243],[100,5326],[100,5410],[100,5493],[100,5582],[100,5666],[100,5743],[100,5826],[100,5915],[100,5999],[100,6083],[100,6160],[100,6243],[100,6332],[100,6416],[100,6493],[100,6576],[100,6660],[100,6743],[100,6832],[100,6910],[100,6993],[100,7083],[100,7160],[100,7243],[100,7326],[100,7410],[100,7499],[100,7586],[100,7660],[100,7743],[100,7826],[100,7915],[100,7993],[100,8082],[100,8165],[100,8243],[100,8326],[100,8413],[100,8493],[100,8582]]",1,0,460.0736,464.7082,100,3.2308,"[{""rating"":97.08333333333333,""responseTime"":2.1269999999999527},{""rating"":100,""responseTime"":3.2307999999522963}]",space,4.0831,,464.7082,Partially,50,464.7102,,,[],,0,9,9,9,1,audio/Narrative7Situation9.wav,audio/Narrative8Situation9.wav,audio/Narrative5Situation9.wav,audio/Narrative6Situation9.wav,2,3,3,4,,,,,,,,,,,,,,,,,,,,,,,,,,,,,,,,,,,,,,,
,,,,,,66318eecf4b2dd2836d910d8,2024-05-13_08h30.50.719,group3.1-3.2-social-tom,2023.2.2,Win32,60.24096386,65c5074098b851296ff0b7ed,6642321feed2cd5eea14b3fd,,,,,,,,,,,,,,,,,,,,,,,,,,,,,464.7103,1,audio/Narrative8Situation1.wav,469.7246,,469.7246,485.6519,"[[999,5],[999,83],[999,160],[999,244],[999,330],[999,417],[999,493],[999,583],[2.8,5084],[35.9,5582],[38.1,5667],[41.1,5750],[45.1,5833],[47.3,5918],[47.5,5997],[47.9,6083],[49,6166],[49.4,6249],[49.6,6333],[49.8,6417],[49.8,6493],[49.8,6577],[49.8,6660],[49.8,6750],[49.8,6827],[49.8,6917],[49.8,6999],[49.8,7077],[49.8,7166],[49.8,7249],[49.8,7327],[49.8,7417],[49.8,7493],[49.8,7582],[49.8,7666],[49.8,7743],[49.8,7832],[49.8,7919],[49.8,7993],[49.8,8083],[48.3,8167],[40,8249],[20.3,8418],[9,8500],[4.2,9583],[21.7,9666],[44.4,9750],[68.6,9833],[100,10249],[100,10917],[100,10999],[100,11084],[100,11168],[100,11251],[100,11327],[100,11417],[100,11493],[100,11577],[100,11660],[100,11743],[100,11833],[100,11910],[100,11999],[100,12083],[100,12160],[100,12252],[100,12333],[100,12410],[100,12493],[100,12577],[100,12660],[100,12743],[100,12833],[100,12910],[100,12999],[100,13077],[100,13160],[100,13243],[100,13334],[100,13410],[100,13493],[100,13582],[100,13660],[100,13748],[100,13833],[100,13917],[100,13993],[100,14083],[100,14164],[100,14243],[100,14332],[100,14410],[100,14494],[100,14582],[100,14665],[100,14750],[100,14830],[100,14916],[100,14993],[100,15083],[100,15160],[100,15243],[100,15327],[100,15417],[100,15493],[100,15582],[100,15660],[100,15749],[100,15827],[100,15917]]",1,0,485.6519,492.6251,100,5.3511,"[{""rating"":99.375,""responseTime"":3.1141999999284735},{""rating"":100,""responseTime"":3.91729999995232},{""rating"":100,""responseTime"":5.351099999904648}]",space,6.4449,,492.6252,Not at all,0,492.627,,,[],,0,10,10,10,1,audio/Narrative8Situation1.wav,audio/Narrative7Situation1.wav,audio/Narrative6Situation1.wav,audio/Narrative5Situation1.wav,5,2,2,5,,,,,,,,,,,,,,,,,,,,,,,,,,,,,,,,,,,,,,,
,,,,,,66318eecf4b2dd2836d910d8,2024-05-13_08h30.50.719,group3.1-3.2-social-tom,2023.2.2,Win32,60.24096386,65c5074098b851296ff0b7ed,6642321feed2cd5eea14b3fd,,,,,,,,,,,,,,,,,,,,,,,,,,,,,492.6271,1,audio/Narrative8Situation2.wav,495.6352,,495.6352,505.7743,"[[0.8,2256],[3.6,2339],[3.6,2416],[3.6,2506],[3.6,2583],[2.9,2672],[2.2,2757],[1.1,2840],[0.2,2922]]",1,0,505.7744,509.1741,0,1.0356,"[{""rating"":0,""responseTime"":1.0355999999046617}]",space,2.8588,,509.1743,Partially,50,509.1761,,,[],,0,11,11,11,1,audio/Narrative8Situation2.wav,audio/Narrative7Situation2.wav,audio/Narrative6Situation2.wav,audio/Narrative5Situation2.wav,3,3,3,3,,,,,,,,,,,,,,,,,,,,,,,,,,,,,,,,,,,,,,,
,,,,,,66318eecf4b2dd2836d910d8,2024-05-13_08h30.50.719,group3.1-3.2-social-tom,2023.2.2,Win32,60.24096386,65c5074098b851296ff0b7ed,6642321feed2cd5eea14b3fd,,,,,,,,,,,,,,,,,,,,,,,,,,,,,509.1762,1,audio/Narrative8Situation3.wav,513.1852,,513.1852,535.5744,"[[0.9,4588],[2,4672],[2,4749],[2,4838],[2,4916],[2,5005],[2,5089],[2,5166],[2,5254],[2,5338],[5.3,5422],[9.8,5506],[12,5589],[14.4,5672],[17,5756],[20.3,5839],[24.6,5922],[29.2,6006],[33.3,6091],[37.5,6173],[41.7,6256],[44.7,6339],[47.5,6423],[49.7,6506],[50.4,6589],[50.7,6671],[50.7,6749],[50.7,6839],[50.7,6921],[50.7,6999],[50.7,7090],[50.7,7172],[50.7,7249],[50.7,7337],[50.7,7416],[50.7,7499],[50.7,7587],[50.7,7672],[50.7,7749],[50.6,7838],[50.6,7916],[50.5,8005],[50.4,8083],[50.4,8166],[50.4,8256],[50.4,8338],[50.4,8416],[50.4,8499],[50.4,8583],[50.4,8666],[50.4,8756],[50.4,8833],[50.4,8916],[50.4,9004],[50.4,9088],[50.4,9166],[50.4,9255],[50.4,9333],[50.4,9421],[50.4,9499],[50.4,9583],[50.4,9671],[50.4,9755],[50.4,9838],[50.4,9923],[50.4,9999],[50.4,10082],[50.4,10171],[50.4,10249],[50.4,10338],[50.4,10422],[50.4,10499],[50.4,10588],[50.4,10666],[50.4,10749],[50.4,10838],[50.4,10916],[50.4,11004],[50.4,11088],[50.4,11172],[50.4,11249],[50.4,11333],[50.4,11422],[50.4,11499],[50.4,11583],[50.4,11666],[50.4,11755],[50.4,11836],[50.4,11921],[50.4,12005],[50.4,12082],[50.4,12172],[50.4,12252],[50.4,12333],[50.4,12416],[50.4,12499],[50.4,12583],[50.4,12666],[50.4,12749],[50.4,12832],[50.4,12922],[50.4,13005],[50.4,13088],[50.4,13166],[50.4,13255],[50.5,13338],[54.8,13422],[58.2,13505],[59.7,13589],[61,13672],[62.5,13755],[65.3,13839],[67.4,13922],[69,14005],[70.3,14089],[71.1,14172],[72.1,14256],[72.9,14338],[73.4,14422],[74.6,14506],[75.1,14583],[75.3,14666],[76,14755],[76.3,14836],[76.3,14922],[76.3,14999],[76.4,15088],[76.4,15172],[76.4,15249],[76.4,15338],[76.4,15416],[76.4,15499],[76.4,15589],[76.4,15666],[76.4,15749],[76.4,15841],[76.4,15916],[76.4,15999],[76.4,16082],[76.4,16166],[76.4,16249],[76.4,16336],[76.4,16416],[76.4,16499],[76.4,16589],[76.4,16666],[76.4,16749],[76.4,16833],[76.4,16916],[76.4,17000],[76.4,17088],[76.4,17166],[76.4,17255],[76.4,17332],[76.4,17416],[76.4,17499],[76.4,17583],[76.4,17672],[76.4,17749],[76.4,17833],[76.3,17922],[76.3,18000],[76.3,18088],[76.3,18166],[76.3,18255],[76.3,18338],[76.3,18422],[76.3,18499],[76.3,18582],[76.3,18672],[76.3,18749],[76.3,18833],[79.1,18922],[82.2,19006],[82.4,19088],[82.5,19172],[85.8,19256],[89.5,19339],[92.7,19421],[94.7,19505],[96.1,19589],[96.7,19672],[97.6,19755],[98.3,19839],[99.1,19922],[99.7,20005],[100,20088],[100,20172],[100,20249],[100,20338],[100,20422],[100,20499],[100,20588],[100,20666],[100,20754],[100,20832],[100,20916],[100,21004],[100,21082],[100,21166],[100,21249],[100,21339],[100,21416],[100,21506],[100,21582],[100,21666],[100,21754],[100,21832],[100,21916],[100,22005],[100,22082],[100,22166],[100,22249],[100,22339]]",1,0,535.5745,542.7077,99.47916667,4.376,"[{""rating"":99.47916666666667,""responseTime"":4.375999999999976}]",space,6.6011,,542.7077,Not at all,0,542.71,,,[],,0,12,12,12,1,audio/Narrative8Situation3.wav,audio/Narrative7Situation3.wav,audio/Narrative6Situation3.wav,audio/Narrative5Situation3.wav,4,8,5,3,,,,,,,,,,,,,,,,,,,,,,,,,,,,,,,,,,,,,,,
,,,,,,66318eecf4b2dd2836d910d8,2024-05-13_08h30.50.719,group3.1-3.2-social-tom,2023.2.2,Win32,60.24096386,65c5074098b851296ff0b7ed,6642321feed2cd5eea14b3fd,,,,,,,,,,,,,,,,,,,,,,,,,,,,,542.7101,1,audio/Narrative8Situation4.wav,545.7182,,545.7182,559.9017,"[[999,5],[999,83],[999,166],[999,250],[999,333],[999,416],[999,505],[1.9,3423],[18.9,3506],[34.7,3590],[38.5,3673],[42,3756],[44,3839],[44.8,3923],[47.4,4006],[47.7,4083],[48.8,4172],[49.3,4255],[49.7,4339],[49.9,4423],[49.9,4505],[49.9,4586],[50,4672],[50,4756],[50,4833],[50,4916],[50,4999],[50,5083],[50,5166],[50,5249],[50,5338],[50,5423],[50,5506],[50,5583],[50,5672],[50,5749],[50,5838],[50,5916],[50,6005],[50,6089],[50,6166],[50,6250],[50,6339],[50,6416],[50,6500],[50,6588],[50,6666],[50,6749],[50,6833],[50,6923],[50,7005],[50,7083],[50.7,7172],[53,7255],[55.2,7340],[57.7,7424],[59.9,7506],[63.2,7589],[67,7666],[68.8,7756],[70.5,7839],[71.7,7923],[73.5,8005],[75.2,8089],[75.9,8172],[76.1,8249],[76.1,8333],[76.1,8423],[76.1,8503],[76.1,8583],[76.1,8672],[76.1,8755],[76.1,8833],[76.1,8916],[76.1,9000],[76.1,9089],[76.1,9172],[76.1,9250],[76.1,9339],[76.3,9416],[78,9506],[78,9583],[79.1,9672],[84.6,9756],[91.8,9839],[95.7,9923],[96.9,10005],[98.1,10089],[99.4,10173],[100,10255],[100,10338],[100,10416],[100,10500],[100,10586],[100,10666],[100,10752],[100,10833],[100,10923],[100,11005],[100,11089],[100,11166],[100,11249],[100,11333],[100,11416],[100,11499],[100,11583],[100,11671],[100,11758],[100,11833],[100,11916],[100,12002],[100,12088],[100,12172],[100,12249],[100,12333],[100,12416],[100,12499],[100,12583],[100,12671],[100,12750],[100,12833],[100,12923],[100,12999],[100,13083],[100,13166],[100,13255],[100,13333],[100,13423],[100,13499],[100,13583],[100,13671],[100,13749],[100,13839],[100,13923],[100,13999],[100,14088],[100,14166]]",1,0,559.9018,564.2908,100,2.7017,"[{""rating"":98.85416666666667,""responseTime"":1.6496000000238382},{""rating"":100,""responseTime"":2.7017000000477083}]",space,3.8486,,564.2908,Definitely yes,100,564.293,,,[],,0,13,13,13,1,audio/Narrative8Situation4.wav,audio/Narrative7Situation4.wav,audio/Narrative6Situation4.wav,audio/Narrative5Situation4.wav,3,3,2,1,,,,,,,,,,,,,,,,,,,,,,,,,,,,,,,,,,,,,,,
,,,,,,66318eecf4b2dd2836d910d8,2024-05-13_08h30.50.719,group3.1-3.2-social-tom,2023.2.2,Win32,60.24096386,65c5074098b851296ff0b7ed,6642321feed2cd5eea14b3fd,,,,,,,,,,,,,,,,,,,,,,,,,,,,,564.2932,1,audio/Narrative8Situation5.wav,566.3092,,566.3093,574.5567,"[[4.3,4748],[26.1,4832],[45.6,4914],[57.6,4998],[66.8,5081],[99.2,5748],[99.9,5832]]",1,0,574.5568,582.024,100,3.0841,"[{""rating"":99.27083333333333,""responseTime"":2.014499999999998},{""rating"":100,""responseTime"":3.084100000023909}]",space,6.9279,,582.0241,Definitely yes,100,582.0309,,,[],,0,14,14,14,1,audio/Narrative8Situation5.wav,audio/Narrative7Situation5.wav,audio/Narrative6Situation5.wav,audio/Narrative5Situation5.wav,2,5,2,5,,,,,,,,,,,,,,,,,,,,,,,,,,,,,,,,,,,,,,,
,,,,,,66318eecf4b2dd2836d910d8,2024-05-13_08h30.50.719,group3.1-3.2-social-tom,2023.2.2,Win32,60.24096386,65c5074098b851296ff0b7ed,6642321feed2cd5eea14b3fd,,,,,,,,,,,,,,,,,,,,,,,,,,,,,582.0311,1,audio/Narrative8Situation6.wav,584.0349,,584.0349,590.5348,"[[999,0],[999,83],[999,172],[999,249],[999,339],[999,422],[999,500],[0.5,839],[0.5,916],[0.6,1004],[0.6,1083],[0.6,1166],[0.6,1255],[0.6,1333],[0.6,1416],[0.6,1505],[0.6,1583],[0.6,1671],[0.6,1749],[0.6,1836],[7.4,1924],[24.5,2005],[40.5,2091],[56.6,2255],[63.8,2339],[69.7,2422],[70.3,2506],[74.6,2589],[81.7,2672],[83.5,2756],[85.2,2839],[89,2922],[93.1,3009],[93.9,3091],[95,3173],[97.8,3255],[98.6,3339],[100,3422],[100,3499],[100,3588],[100,3666],[100,3754],[100,3839],[100,3916],[100,4005],[100,4090],[100,4172],[100,4255],[100,4339],[100,4416],[100,4505],[100,4589],[100,4671],[100,4755],[100,4833],[100,4919],[100,4999],[100,5083],[100,5166],[100,5249],[100,5338],[100,5421],[100,5505],[100,5588],[100,5666],[100,5755],[100,5833],[100,5916],[100,6005],[100,6083],[100,6172],[100,6256],[100,6340],[100,6422],[100,6499]]",1,0,590.5349,593.9904,100,2.1653,"[{""rating"":98.75,""responseTime"":1.2658999999761136},{""rating"":100,""responseTime"":2.165300000071511}]",space,2.9121,,593.9905,Partially,50,593.9924,,,[],,0,15,15,15,1,audio/Narrative8Situation6.wav,audio/Narrative7Situation6.wav,audio/Narrative6Situation6.wav,audio/Narrative5Situation6.wav,2,3,2,3,,,,,,,,,,,,,,,,,,,,,,,,,,,,,,,,,,,,,,,
,,,,,,66318eecf4b2dd2836d910d8,2024-05-13_08h30.50.719,group3.1-3.2-social-tom,2023.2.2,Win32,60.24096386,65c5074098b851296ff0b7ed,6642321feed2cd5eea14b3fd,,,,,,,,,,,,,,,,,,,,,,,,,,,,,593.9925,1,audio/Narrative8Situation7.wav,597.0013,,597.0013,609.1212,"[[1.8,4010],[9.9,4089],[20.8,4172],[27.5,4255],[32.5,4339],[39.5,4422],[41.9,4506],[44.9,4589],[47.3,4672],[48,4756],[49.1,4839],[49.5,4916],[49.6,5005],[49.7,5089],[49.7,5172],[49.7,5250],[49.7,5341],[49.7,5416],[49.7,5500],[49.7,5583],[49.7,5671],[49.7,5749],[49.7,5839],[49.7,5921],[49.7,6005],[49.7,6089],[49.7,6166],[49.7,6252],[49.7,6337],[49.7,6416],[49.7,6500],[49.7,6588],[49.7,6666],[49.7,6755],[49.7,6839],[49.7,6916],[49.7,7005],[49.7,7089],[49.7,7166],[49.7,7255],[49.7,7333],[49.7,7422],[49.7,7499],[49.7,7583],[49.7,7671],[49.7,7749],[49.7,7833],[49.7,7922],[49.7,7999],[49.7,8083],[49.7,8172],[49.7,8255],[49.7,8333],[49.7,8422],[49.7,8506],[49.7,8590],[49.7,8671],[49.7,8749],[49.7,8839],[49.7,8916],[49.7,9000],[49.7,9088],[49.7,9172],[49.7,9254],[49.7,9338],[49.7,9416],[49.7,9505],[49.7,9588],[49.7,9666],[49.7,9749],[49.7,9839],[49.7,9916],[49.7,10000],[49.7,10083],[49.7,10166],[49.7,10250],[49.7,10338],[49.7,10416],[49.7,10505],[49.7,10583],[49.7,10666],[49.7,10749],[49.7,10833],[49.7,10916],[49.7,11005],[49.7,11088],[49.7,11166],[49.7,11255],[49.7,11337],[49.7,11416],[49.7,11499],[49.7,11583],[49.7,11671],[49.7,11754],[49.7,11839],[49.7,11916],[49.7,12005],[49.7,12083]]",1,0,609.1215,613.441,50.10416667,2.0711,"[{""rating"":50.10416666666667,""responseTime"":2.0711000000238755}]",space,3.7837,,613.441,Definitely yes,100,613.4434,,,[],,0,16,16,16,1,audio/Narrative8Situation7.wav,audio/Narrative7Situation7.wav,audio/Narrative6Situation7.wav,audio/Narrative5Situation7.wav,3,5,5,4,,,,,,,,,,,,,,,,,,,,,,,,,,,,,,,,,,,,,,,
,,,,,,66318eecf4b2dd2836d910d8,2024-05-13_08h30.50.719,group3.1-3.2-social-tom,2023.2.2,Win32,60.24096386,65c5074098b851296ff0b7ed,6642321feed2cd5eea14b3fd,,,,,,,,,,,,,,,,,,,,,,,,,,,,,613.4437,1,audio/Narrative8Situation8.wav,616.4571,,616.4571,629.3065,"[[1.5,6083],[4.5,6167],[10.3,6249],[43.1,6916],[44.6,7000],[46.7,7083],[48.3,7167],[48.4,7244],[48.8,7333],[49.4,7417],[49.5,7499],[49.8,7583],[49.8,7660],[49.8,7747],[49.8,7827],[49.8,7910],[49.8,7994],[49.8,8077],[49.8,8166],[49.8,8249],[50,8333],[50,8410],[50,8499],[50,8582],[50,8667],[50,8750],[50,8827],[50,8919],[50,8999],[50,9083],[50,9166],[50,9249],[50,9333],[50,9415],[50,9494],[50,9577],[50,9666],[50,9750],[50,9833],[50,9910],[50,9994],[50,10083],[50,10160],[50,10248],[50,10333],[50,10410],[50,10499],[50,10582],[50,10660],[50,10743],[50,10833],[50,10910],[50,11001],[50,11077],[50,11166],[50,11244],[50,11327],[50,11416],[50,11494],[50,11577],[50,11667],[50,11743],[50,11827],[50,11915],[50,11994],[50,12077],[50,12167],[50,12249],[50,12332],[50,12416],[50,12493],[50,12582],[50,12667],[50,12749],[50,12833]]",1,0,629.3066,634.0679,49.89583333,3.0946,"[{""rating"":49.895833333333336,""responseTime"":3.0946000000238882}]",space,4.2094,,634.068,Partially,50,634.0697,,,[],,0,17,17,17,1,audio/Narrative8Situation8.wav,audio/Narrative7Situation8.wav,audio/Narrative6Situation8.wav,audio/Narrative5Situation8.wav,3,2,5,3,,,,,,,,,,,,,,,,,,,,,,,,,,,,,,,,,,,,,,,
,,,,,,66318eecf4b2dd2836d910d8,2024-05-13_08h30.50.719,group3.1-3.2-social-tom,2023.2.2,Win32,60.24096386,65c5074098b851296ff0b7ed,6642321feed2cd5eea14b3fd,,,,,,,,,,,,,,,,,,,,,,,,,,,,,634.0699,1,audio/Narrative8Situation9.wav,637.0847,,637.0847,648.4012,"[[0.1,2838],[2.2,2922],[5.8,3005],[9.2,3089],[14.4,3172],[19.8,3255],[27.6,3339],[33.5,3423],[39.7,3507],[44.4,3588],[47.6,3672],[49,3749],[49.9,3839],[49.9,3921],[50.2,3999],[50.3,4089],[50.3,4166],[50.3,4254],[50.3,4332],[50.3,4422],[50.3,4505],[50.3,4588],[50.3,4668],[50.3,4755],[50.3,4838],[50.3,4916],[50.3,4999],[50.3,5082],[50.3,5166],[50.3,5255],[50.3,5332],[50.3,5422],[50.3,5499],[50.3,5582],[50.3,5674],[50.3,5755],[50.3,5832],[50.3,5921],[50.3,5999],[50.3,6088],[50.3,6166],[50.3,6249],[50.3,6338],[50.3,6416],[50.3,6503],[50.3,6583],[50.3,6666],[50.3,6749],[50.3,6840],[50.3,6916],[50.3,7004],[50.3,7082],[50.3,7166],[50.3,7254],[50.3,7338],[50.3,7419],[50.3,7505],[50.3,7583],[50.3,7666],[50.3,7752],[50.3,7838],[50.3,7919],[50.3,8005],[50.3,8082],[50.3,8166],[50.3,8249],[50.3,8332],[50.3,8416],[50.3,8504],[50.3,8583],[50.3,8671],[50.3,8749],[50.3,8832],[50.3,8916],[50.3,9005],[50.3,9082],[50.3,9169],[50.3,9254],[50.3,9338],[50.3,9422],[50.3,9499],[50.3,9588],[50.3,9666],[50.3,9749],[50.3,9833],[50.3,9921],[50.3,10005],[50.3,10088],[50.3,10166],[50.3,10254],[50.3,10338],[50.3,10422],[50.3,10499],[50.3,10588],[50.3,10668],[50.3,10749],[50.3,10838],[50.3,10921],[50.3,10999],[50.3,11082],[50.3,11166],[50.3,11255]]",1,0,648.4013,651.1071,50.10416667,1.1773,"[{""rating"":50.10416666666667,""responseTime"":1.1772999999523108}]",space,2.1665,,651.1071,Partially,50,662.5571,49.58333333,7.3308,"[{""rating"":49.583333333333336,""responseTime"":7.330799999952319}]",space,0,18,18,18,1,audio/Narrative8Situation9.wav,audio/Narrative7Situation9.wav,audio/Narrative6Situation9.wav,audio/Narrative5Situation9.wav,3,2,4,3,,,10.9171,,,,,,,,,,,,,,,,,,,,,,,,,,,,,,,,,,,,
,,,,,,66318eecf4b2dd2836d910d8,2024-05-13_08h30.50.719,group3.1-3.2-social-tom,2023.2.2,Win32,60.24096386,65c5074098b851296ff0b7ed,6642321feed2cd5eea14b3fd,,,,,,,,,,,,,,,,,,,,,,,,,,,668.2067,670.7897,670.8029,2,audio/Narrative13Situation2.wav,670.803,,670.8031,700.5509,"[[999,0],[999,70],[999,153],[999,237],[999,320],[999,406],[999,488],[999,570],[999,653],[999,731],[999,814],[999,897],[999,981],[999,1064],[999,1147],[999,1237],[999,1314],[999,1403],[999,1487],[999,1570],[1.3,5821],[2.8,5904],[4.3,5987],[5.6,6070],[6.4,6153],[7.1,6237],[9.8,6320],[12.5,6403],[14.7,6487],[16.1,6570],[18.1,6654],[21,6736],[23.6,6821],[25.7,6904],[28.9,6987],[30.8,7069],[33.3,7153],[36.4,7237],[39.7,7320],[41.7,7403],[43.6,7487],[44.1,7570],[44.1,7647],[44.1,7736],[44.1,7821],[44.1,7904],[44.6,7987],[45.7,8073],[46.1,8154],[47.1,8237],[48.1,8320],[50.6,8403],[53.6,8487],[56.4,8570],[57.1,8653],[57.1,8735],[58.2,8821],[62.3,8904],[64.3,8987],[65.8,9070],[68.2,9153],[70.8,9237],[71.7,9314],[72.2,9403],[74,9487],[77.1,9570],[79.2,9654],[80.5,9736],[81.6,9821],[82.1,9903],[82.1,9986],[82.1,10065],[82.1,10153],[82.5,10231],[85.5,10322],[86.9,10403],[87.3,10486],[87.6,10570],[88.9,10654],[89.8,10737],[90,10821],[90,10900],[90.6,10987],[91.9,11069],[93,11153],[93.2,11237],[94,11321],[94.7,11403],[94.9,11486],[95.4,11570],[96.1,11654],[97.2,11736],[97.6,11814],[98.2,11904],[98.6,11981],[99.3,12070],[99.7,12153],[99.9,12237],[100,12320],[100,12397],[100,12489],[100,12571],[100,12647],[100,12736],[100,12814],[100,12897],[100,12986],[100,13064],[100,13147],[100,13236],[100,13319],[100,13397],[100,13486],[100,13573],[100,13647],[100,13731],[100,13814],[100,13897],[100,13981],[100,14070],[100,15903],[100,15981],[100,16069],[100,16147],[100,16237],[100,16320],[100,16403],[100,16481],[100,16570],[100,16647],[100,16736],[100,16814],[100,16898],[100,16987],[100,17070],[100,17152],[100,17236],[100,17320],[100,17397],[100,17486],[100,17564],[100,17647],[100,17736],[100,17819],[100,17905],[100,17988],[100,18064],[100,18147],[100,18231],[100,18314],[100,18397],[100,18486],[100,18564],[100,18647],[100,18736],[100,18814],[100,18902],[100,18987],[100,19064],[100,19147],[100,19230],[100,19314],[100,19397],[100,19481],[100,19570],[100,19647],[100,19737],[100,19819],[100,19897],[100,19985],[100,20071],[100,20147],[100,20236],[93.9,20320],[78.3,20404],[46.4,21070],[47.2,21153],[47.5,21236],[46.7,21322],[43.9,21404],[37.3,21487],[28.8,21570],[22.1,21654],[18.2,21737],[15.6,21820],[12.2,21903],[10.1,21987],[8.5,22071],[6.5,22155],[4.6,22237],[2.4,22323],[0.4,22404]]",1,0,700.5511,700.5578,,,[],,,,700.5578,Partially,50,700.5585,,,[],,0,0,0,0,1,audio/Narrative13Situation2.wav,audio/Narrative13Situation2.wav,audio/Narrative13Situation2.wav,audio/Narrative13Situation2.wav,2,2,2,2,,,,,662.5627,668.2014,space,5.1089,,,,,,,,,,,,,,,,,,,,,,,,,,,,,,,
,,,,,,66318eecf4b2dd2836d910d8,2024-05-13_08h30.50.719,group3.1-3.2-social-tom,2023.2.2,Win32,60.24096386,65c5074098b851296ff0b7ed,6642321feed2cd5eea14b3fd,,,,,,,,,,,,,,,,,,,,,,,,,,,,,700.5586,2,audio/Narrative5Situation1.wav,705.5676,,705.5676,718.8733,"[[1,9761],[5.5,9838],[10.9,9922],[15.8,10006],[19.5,10089],[22,10172],[24.5,10255],[28.2,10339],[31,10422],[34.1,10505],[36.1,10589],[37.8,10672],[40.4,10755],[41.9,10839],[43,10922],[44.8,11006],[46.3,11089],[46.9,11172],[47.7,11256],[49.3,11339],[50.5,11423],[52.3,11506],[54.4,11592],[56.4,11673],[57.8,11756],[60.7,11838],[69,12422],[68.6,12505],[68.6,12588],[68.6,12673],[69.1,12757],[69.7,12838],[70.2,12922],[71,13006],[72.2,13089],[72.9,13172],[73.1,13255]]",1,0,718.8734,728.6385,74.79166667,6.455,"[{""rating"":74.79166666666667,""responseTime"":6.455000000000041}]",space,9.2255,,728.6385,Not at all,0,736.3727,0.208333333,5.1542,"[{""rating"":0.2083333333333326,""responseTime"":5.154199999928551}]",space,0,1,1,1,1,audio/Narrative7Situation1.wav,audio/Narrative8Situation1.wav,audio/Narrative5Situation1.wav,audio/Narrative6Situation1.wav,2,5,5,2,,,7.2008,,,,,,,,,,,,,,,,,,,,,,,,,,,,,,,,,,,,
,,,,,,66318eecf4b2dd2836d910d8,2024-05-13_08h30.50.719,group3.1-3.2-social-tom,2023.2.2,Win32,60.24096386,65c5074098b851296ff0b7ed,6642321feed2cd5eea14b3fd,,,,,,,,,,,,,,,,,,,,,,,,,,,,,736.3729,2,audio/Narrative5Situation2.wav,739.3841,,739.3841,768.8672,"[[3.9,22505],[17.1,22589],[28.5,22672],[34.4,22757],[36,22839],[41.8,22922],[46.6,23006],[48.8,23089],[49.4,23166],[50,23256],[50,23339],[50.1,23416],[50.1,23504],[50.1,23583],[50.1,23666],[50.2,23749],[50.2,23832],[50.2,23921],[50.2,23999],[50.2,24083],[50.2,24171],[50.2,24249],[50.2,24333],[50.2,24421],[50.2,24505],[50.2,24583],[50.2,24666],[50.2,24757],[50.2,24833],[50.2,24916],[50.2,24999],[50.2,25082],[50.2,25172],[50.2,25249],[50.2,25338],[50.2,25419],[50.2,25505],[50.2,25588],[50.2,25666],[50.2,25749],[50.2,25837],[50.2,25916],[50.2,26003],[50.2,26088],[50.2,26166],[50.2,26249],[50.2,26333],[50.2,26422],[50.2,26499],[50.2,26588],[50.2,26672],[50.2,26749],[50.2,26838],[50.2,26916],[50.2,26999],[50.2,27083],[50.2,27166],[50.2,27256],[50.2,27339],[50.2,27416],[50.2,27505],[50.2,27588],[50.2,27666],[50.2,27756],[50.2,27833],[50.2,27916],[50.2,28005],[50.2,28090],[50.2,28169],[50.2,28249],[50.2,28333],[50.2,28416],[50.2,28499],[50.2,28582],[50.2,28672],[50.2,28749],[50.2,28832],[50.2,28916],[50.2,29005],[50.2,29088],[50.2,29166],[50.2,29249],[50.2,29333],[50.2,29422]]",1,0,768.8673,772.6564,50.3125,2.0181,"[{""rating"":50.31250000000001,""responseTime"":2.0181000000238782}]",space,3.2522,,772.6564,Partially,50,772.6588,,,[],,0,2,2,2,1,audio/Narrative7Situation2.wav,audio/Narrative8Situation2.wav,audio/Narrative5Situation2.wav,audio/Narrative6Situation2.wav,3,3,3,3,,,,,,,,,,,,,,,,,,,,,,,,,,,,,,,,,,,,,,,
,,,,,,66318eecf4b2dd2836d910d8,2024-05-13_08h30.50.719,group3.1-3.2-social-tom,2023.2.2,Win32,60.24096386,65c5074098b851296ff0b7ed,6642321feed2cd5eea14b3fd,,,,,,,,,,,,,,,,,,,,,,,,,,,,,772.659,2,audio/Narrative5Situation3.wav,775.6671,,775.6671,789.5728,"[[0.1,673],[4.3,3089],[7.5,3172],[9.5,3255],[39.1,3922],[37.5,4005],[37.4,4088],[37.3,4169],[39.1,4255],[42,4339],[44,4423],[44.7,4505],[45.7,4589],[46.9,4672],[47.3,4756],[48.5,4839],[49.1,4924],[49.5,5005],[49.6,5083],[49.6,5166],[49.7,5255],[49.7,5339],[49.7,5416],[49.7,5505],[49.7,5583],[49.7,5672],[49.7,5749],[50.4,5839],[53.3,5922],[55.4,6005],[57.9,6091],[61,6174],[62.8,6255],[63.8,6339],[65,6422],[66.1,6506],[67.3,6589],[68.5,6672],[69.7,6756],[70.8,6839],[72.1,6922],[72.6,7005],[72.7,7083],[73.1,7174],[73.3,7249],[73.3,7333],[73.6,7423],[74.5,7506],[74.5,7586],[74.8,7672],[75.2,7756],[75.6,7839],[76.1,7922],[77.4,8005],[78.1,8089],[79,8173],[79.7,8250],[80.7,8342],[81.4,8423],[82.8,8506],[85.7,8589],[88.2,8672],[90.3,8756],[91.7,8839],[93.4,8923],[96,9340],[97.5,9422],[98.1,9500],[98.3,9589],[98.6,9672],[99.8,9756],[100,9839],[100,9916],[100,9999],[100,10083],[100,10166],[100,10249],[100,10333],[100,10416],[100,10505],[100,10583],[100,10666],[100,10755],[100,10833],[100,10922],[100,11003],[100,11083],[100,11172],[100,11255],[100,11333],[100,11416],[100,11507],[100,11589],[100,11671],[100,11749],[100,11833],[100,11922],[100,12005],[100,12088],[100,12172],[100,12249],[100,12333],[100,12419],[100,12499],[100,12583],[100,12671],[100,12749],[100,12833],[100,12916],[100,13000],[100,13083],[100,13171],[100,13249],[100,13333],[100,13422],[100,13500],[100,13583],[100,13673],[100,13755],[100,13833]]",1,0,789.573,803.4894,73.85416667,11.0105,"[{""rating"":73.85416666666667,""responseTime"":11.010499999999979}]",space,13.3849,,803.4895,Definitely yes,100,803.4913,,,[],,0,3,3,3,1,audio/Narrative7Situation3.wav,audio/Narrative8Situation3.wav,audio/Narrative5Situation3.wav,audio/Narrative6Situation3.wav,8,4,3,5,,,,,,,,,,,,,,,,,,,,,,,,,,,,,,,,,,,,,,,
,,,,,,66318eecf4b2dd2836d910d8,2024-05-13_08h30.50.719,group3.1-3.2-social-tom,2023.2.2,Win32,60.24096386,65c5074098b851296ff0b7ed,6642321feed2cd5eea14b3fd,,,,,,,,,,,,,,,,,,,,,,,,,,,,,803.4914,2,audio/Narrative5Situation4.wav,804.5002,,804.5003,824.9064,"[[73.1,589],[71.3,672],[71.3,749],[71.3,833],[71.1,916],[71.1,999],[71.1,1084],[71.1,1166],[64.9,1256],[0.1,3666],[0.1,3749],[0.1,3833],[0.1,3922],[0.1,3999],[0.1,4083],[0.1,4166],[0.3,9256],[7.2,9339],[11.6,9422],[14,9506],[17.3,9590],[21,9672],[25,9755],[28.5,9839],[31.3,9923],[34.9,10006],[38.3,10088],[41.7,10172],[43.6,10256],[45.3,10339],[46.3,10422],[47.4,10506],[48.2,10589],[48.3,10672],[48.4,10754],[48.6,10839],[48.8,10916],[49,11000],[49,11090],[49.1,11172],[49.2,11255],[49.2,11333],[49.4,11416],[49.5,11505],[49.5,11583],[49.5,11666],[49.5,11754],[49.5,11833],[49.5,11916],[49.5,12004],[49.5,12088],[49.5,12172],[49.5,12255],[49.6,12339],[49.7,12416],[49.7,12499],[49.8,12583],[49.8,12672],[49.8,12749],[49.8,12838],[49.8,12916],[49.8,13005],[49.8,13086],[49.8,13172],[49.8,13257],[49.8,13341],[49.8,13416],[49.8,13499],[49.8,13583],[49.8,13671],[49.8,13749],[49.8,13833],[49.8,13916],[49.8,13999],[49.8,14088],[49.8,14172],[49.8,14250],[49.8,14333],[49.8,14421],[49.8,14504],[49.8,14589],[49.8,14666],[49.8,14749],[49.8,14833],[49.8,14919],[49.8,14999],[49.8,15088],[49.8,15166],[49.8,15255],[49.8,15338],[49.8,15422],[49.8,15499],[51.9,15589],[54.2,15672],[55.5,15755],[56.6,15838],[57.7,15923],[61.1,16006],[64.7,16089],[67.1,16172],[70,16256],[72,16339],[74.2,16422],[75.3,16505],[76.4,16589],[76.7,16672],[77.2,16755],[78,16838],[79.1,16922],[80.3,17006],[81.6,17089],[82.2,17172],[83.1,17256],[85.2,17339],[86.6,17423],[87.4,17505],[87.7,17589],[88,17666],[88.2,17750],[88.3,17838],[88.3,17922],[88.9,18006],[90.7,18089],[92,18172],[94.1,18256],[95.6,18339],[96.7,18422],[97.2,18500],[97.9,18589],[98.5,18673],[99.3,18756],[99.8,18838],[99.8,18922],[100,19002],[100,19083],[100,19166],[100,19255],[100,19339],[100,19416],[100,19505],[100,19586],[100,19672],[100,19755],[100,19833],[100,19923],[100,20006],[100,20083],[100,20171],[100,20252],[100,20333]]",1,0,824.9065,833.1835,73.22916667,5.1519,"[{""rating"":73.22916666666667,""responseTime"":5.1518999999761945}]",space,7.7417,,833.1835,Partially,50,833.1908,,,[],,0,4,4,4,1,audio/Narrative7Situation4.wav,audio/Narrative8Situation4.wav,audio/Narrative5Situation4.wav,audio/Narrative6Situation4.wav,3,3,1,2,,,,,,,,,,,,,,,,,,,,,,,,,,,,,,,,,,,,,,,
,,,,,,66318eecf4b2dd2836d910d8,2024-05-13_08h30.50.719,group3.1-3.2-social-tom,2023.2.2,Win32,60.24096386,65c5074098b851296ff0b7ed,6642321feed2cd5eea14b3fd,,,,,,,,,,,,,,,,,,,,,,,,,,,,,833.191,2,audio/Narrative5Situation5.wav,838.2002,,838.2002,853.6168,[],1,0,853.6168,862.2237,0,6.6676,"[{""rating"":0.6249999999999978,""responseTime"":5.61720000004766},{""rating"":0,""responseTime"":6.667600000023867}]",space,8.0505,,862.2237,Partially,50,862.2248,,,[],,0,5,5,5,1,audio/Narrative7Situation5.wav,audio/Narrative8Situation5.wav,audio/Narrative5Situation5.wav,audio/Narrative6Situation5.wav,5,2,5,2,,,,,,,,,,,,,,,,,,,,,,,,,,,,,,,,,,,,,,,
,,,,,,66318eecf4b2dd2836d910d8,2024-05-13_08h30.50.719,group3.1-3.2-social-tom,2023.2.2,Win32,60.24096386,65c5074098b851296ff0b7ed,6642321feed2cd5eea14b3fd,,,,,,,,,,,,,,,,,,,,,,,,,,,,,862.225,2,audio/Narrative5Situation6.wav,865.2393,,865.2393,870.9333,"[[1.3,2333],[3.3,2417],[4.8,2499],[6.3,2583],[10.5,2666],[15.9,2750],[19.8,2835],[22.4,2918],[23.6,3000],[25.1,3083],[27.1,3167],[28.8,3249],[30.7,3333],[32.7,3418],[34.4,3500],[37.1,3583],[39.5,3666],[41.5,3750],[42.9,3833],[43.9,3910],[45.5,4001],[46.6,4083],[47.9,4166],[48.4,4249],[49,4333],[49.4,4417],[49.4,4493],[49.4,4582],[49.6,4666],[49.7,4743],[49.7,4832],[49.7,4910],[49.7,4993],[49.7,5077],[49.7,5160],[49.7,5243],[49.7,5327],[49.7,5410],[49.7,5499],[49.7,5582],[49.7,5661]]",1,0,870.9334,874.9557,49.79166667,1.2212,"[{""rating"":49.791666666666664,""responseTime"":1.2212000000475882}]",space,3.4593,,874.9557,Definitely yes,100,874.9574,,,[],,0,6,6,6,1,audio/Narrative7Situation6.wav,audio/Narrative8Situation6.wav,audio/Narrative5Situation6.wav,audio/Narrative6Situation6.wav,3,2,3,2,,,,,,,,,,,,,,,,,,,,,,,,,,,,,,,,,,,,,,,
,,,,,,66318eecf4b2dd2836d910d8,2024-05-13_08h30.50.719,group3.1-3.2-social-tom,2023.2.2,Win32,60.24096386,65c5074098b851296ff0b7ed,6642321feed2cd5eea14b3fd,,,,,,,,,,,,,,,,,,,,,,,,,,,,,874.9575,2,audio/Narrative5Situation7.wav,878.9666,,878.9666,900.0051,"[[1.5,1589],[3.6,1673],[4.3,1755],[4.9,1839],[5.6,1922],[6.4,2005],[7.1,2089],[7.3,2166],[8.9,2256],[11.5,2339],[13.9,2422],[16.3,2506],[17.6,2589],[19.2,2673],[20.8,2756],[22.1,2839],[23.6,2922],[25.5,3005],[27.3,3089],[30.3,3174],[32,3256],[33.4,3340],[34.6,3424],[35.7,3506],[37.1,3589],[38.6,3673],[40.3,3755],[42.4,3839],[44,3923],[45.2,4005],[46.5,4089],[47.8,4173],[48.2,4256],[48.3,4333],[48.4,4424],[48.4,4506],[48.8,4589],[48.8,4666],[48.9,4750],[49.2,4833],[49.3,4916],[49.5,5005],[49.7,5088],[49.9,5174],[49.9,5253],[49.9,5338],[50,5422],[50,5500],[50,5583],[50,5671],[50,5754],[50,5833],[50,5922],[50,6005],[50,6083],[50,6166],[50,6249],[50,6333],[50,6416],[50,6499],[50,6588],[50,6666],[50,6749],[50,6833],[50,6922],[50,7005],[50,7088],[50,7173],[50,7255],[50,7333],[50,7416],[50,7504],[50,7583],[50,7673],[50,7755],[50,7833],[50,7922],[50,8004],[50,8083],[50,8166],[50,8254],[50,8339],[50,8416],[50,8499],[50,8583],[50,8673],[50,8749],[50,8833],[50,8926],[50,8999],[50,9083],[50,9173],[50,9255],[50,9333],[50,9421],[50,9505],[50,9583],[50,9666],[50,9750],[50,9839],[50,9922],[50,10005],[50,10088],[43.8,10173],[30.1,10256],[17.2,10339],[9.2,10422],[2.8,10505]]",1,0,900.0053,906.3892,0,5.1026,"[{""rating"":0.5208333333333315,""responseTime"":4.253599999904736},{""rating"":0,""responseTime"":5.102599999904669}]",space,5.8489,,906.3892,Not at all,0,906.3912,,,[],,0,7,7,7,1,audio/Narrative7Situation7.wav,audio/Narrative8Situation7.wav,audio/Narrative5Situation7.wav,audio/Narrative6Situation7.wav,5,3,4,5,,,,,,,,,,,,,,,,,,,,,,,,,,,,,,,,,,,,,,,
,,,,,,66318eecf4b2dd2836d910d8,2024-05-13_08h30.50.719,group3.1-3.2-social-tom,2023.2.2,Win32,60.24096386,65c5074098b851296ff0b7ed,6642321feed2cd5eea14b3fd,,,,,,,,,,,,,,,,,,,,,,,,,,,,,906.3912,2,audio/Narrative5Situation8.wav,909.4056,,909.4056,918.2552,[],1,0,918.2554,923.3886,0,3.3438,"[{""rating"":0.9375000000000022,""responseTime"":2.411000000000058},{""rating"":0,""responseTime"":3.3437999999523527}]",space,4.584,,923.3887,Definitely yes,100,923.3907,,,[],,0,8,8,8,1,audio/Narrative7Situation8.wav,audio/Narrative8Situation8.wav,audio/Narrative5Situation8.wav,audio/Narrative6Situation8.wav,2,3,3,5,,,,,,,,,,,,,,,,,,,,,,,,,,,,,,,,,,,,,,,
,,,,,,66318eecf4b2dd2836d910d8,2024-05-13_08h30.50.719,group3.1-3.2-social-tom,2023.2.2,Win32,60.24096386,65c5074098b851296ff0b7ed,6642321feed2cd5eea14b3fd,,,,,,,,,,,,,,,,,,,,,,,,,,,,,923.3908,2,audio/Narrative5Situation9.wav,926.3996,,926.3996,965.9555,"[[0.9,1255],[2.6,1339],[2.6,1416],[2.3,1506],[2,1588],[1.8,1672],[1.8,1750],[1.7,1833],[0.8,1923],[1.3,4338],[2.2,4422],[3.1,4506],[4.1,4589],[5.1,4672],[6.7,4755],[8,4839],[9.5,4923],[10.8,5005],[12.3,5089],[13.6,5173],[14.8,5255],[16.6,5339],[18.3,5423],[20.3,5506],[22.3,5589],[22.6,5671],[24.7,5756],[26.9,5839],[29.6,5923],[32.9,6005],[37.1,6089],[38.5,6173],[40.6,6256],[42.6,6339],[44.7,6422],[45.6,6500],[46.3,6589],[46.9,6672],[47.6,6755],[48.2,6839],[48.6,6923],[48.9,7000],[49,7083],[49.3,7172],[49.5,7255],[49.5,7333],[49.7,7422],[49.7,7505],[49.8,7583],[49.9,7666],[49.9,7755],[49.9,7833],[49.9,7916],[49.9,7999],[49.9,8083],[49.9,8172],[49.9,8255],[49.9,8333],[49.9,8416],[49.9,8505],[49.9,8583],[49.9,8671],[49.9,8749],[49.9,8833],[49.9,8919],[49.9,9000],[49.9,9088],[49.9,9172],[49.9,9256],[49.9,9333],[49.9,9420],[49.9,9507],[49.9,9588],[49.9,9671],[49.9,9749],[49.9,9839],[49.9,9922],[49.9,10000],[49.9,10083],[49.9,10172],[49.9,10250],[49.9,10338],[49.9,10416],[49.9,10506],[49.9,10588],[49.9,10666],[49.9,10755],[49.9,10833],[49.9,10922],[49.9,11000],[50,11094],[50.1,11173],[50.3,11257],[50.3,11336],[50.3,11422],[50.3,11499],[50.3,11583],[50.3,11672],[50.3,11757],[50.3,11839],[50.3,11922],[50.3,12000],[50.3,12083],[50.3,12172],[50.3,12249],[50.3,12333],[50.3,12416],[50.3,12499],[50.3,12589],[50.3,12672],[50.3,12750],[50.3,12840],[50.3,12916],[50.3,13000],[50.3,13088],[50.3,13166],[50.3,13250],[50.3,13338],[50.3,13416],[50.3,13499],[50.3,13588],[50.3,13666],[50.3,13755],[50.3,13833],[50.3,13916],[50.3,13999],[50.3,14088],[50.3,14172],[50.3,14249],[50.3,14339],[50.3,14416],[50.3,14500],[50.3,14583],[50.3,14672],[50.3,14755],[50.3,14839],[50.3,14919],[50.3,15000],[50.3,15083],[50.3,15166],[50.3,15249],[50.3,15333],[50.3,15420],[50.3,15499],[50.3,15589],[50.3,15672],[50.3,15749],[50.3,15838],[50.3,15922],[50.3,16006],[50.3,16087],[50.3,16166],[50.3,16254],[50.3,16339],[50.3,16416],[50.3,16500],[50.3,16589],[50.3,16666],[50.3,16750],[50.3,16833],[50.3,16919],[50.3,17002],[50.3,17086],[50.3,17174],[50.3,17249],[50.3,17339],[50.3,17419],[50.3,17500],[50.3,17583],[50.3,17672],[50.3,17749],[50.3,17833],[50.3,17916],[50.3,18000],[50.3,18088],[50.3,18166],[50.3,18257],[50.3,18333],[50.3,18416],[50.3,18500],[50.3,18589],[50.3,18666],[50.3,18754],[50.3,18833],[50.3,18922],[50.3,18999],[50.3,19083],[50.3,19166],[50.3,19255],[50.3,19333],[50.3,19421],[50.3,19505],[50.3,19583],[50.3,19672],[50.3,19749],[50.3,19838],[50.3,19916],[49.1,20006],[45.6,20088],[41.1,20172],[36,20256],[31.6,20339],[25.8,20422],[20.3,20505],[15.9,20589],[11.3,20673],[7.3,20755],[3.9,20839],[0.5,29505],[6.6,29589],[17.9,29673],[27.8,29756],[33,29839],[37.3,29922],[39.8,30006],[41.4,30089],[42.5,30172],[44.5,30255],[46.8,30342],[48.3,30424],[49.6,30505],[50.3,30589],[50.3,30669],[50.3,30749],[50.3,30833],[50.2,30922],[50.2,30999],[50.2,31083],[50.2,31166],[50.2,31249],[50.2,31333],[50.2,31422],[50.2,31505],[50.2,31583],[50.2,31672],[50.2,31749],[50.2,31837],[50.2,31921],[50.2,32005],[50.2,32088],[50.2,32172],[50.2,32254],[50.2,32338],[50.2,32416],[50.2,32499],[50.2,32583],[50.2,32666],[50.2,32756],[50.2,32833],[50.2,32921],[50.2,33003],[50.2,33083],[50.2,33166],[50.2,33252],[50.2,33333],[50.2,33422],[50.2,33505],[50.2,33588],[50.2,33666],[50.2,33754],[50.2,33833],[50.2,33916],[50.2,34005],[50.2,34089],[50.2,34171],[50.2,34255],[51.6,34339],[54.5,34423],[58.1,34506],[64.9,34588],[70.1,34675],[77.3,34757],[84.9,34922],[89.9,35006],[95.7,35089],[100,35172],[100,35255],[100,35339],[100,35419],[98.5,35506],[90.5,35589],[85.6,35672],[76,35758],[65.2,35839],[57.7,35922],[54.3,36005],[53.1,36089],[51.8,36172],[49,36255],[44.3,36338],[39.3,36416],[33,36505],[27.6,36588],[23,36672],[17.8,36757],[1.5,37339],[0.5,37423]]",1,0,965.9556,971.8719,0,3.3821,"[{""rating"":1.3541666666666674,""responseTime"":2.61879999995233},{""rating"":0,""responseTime"":3.3821000000237973}]",space,5.3784,,971.872,Definitely yes,100,971.873,,,[],,0,9,9,9,1,audio/Narrative7Situation9.wav,audio/Narrative8Situation9.wav,audio/Narrative5Situation9.wav,audio/Narrative6Situation9.wav,2,3,3,4,,,,,,,,,,,,,,,,,,,,,,,,,,,,,,,,,,,,,,,
,,,,,,66318eecf4b2dd2836d910d8,2024-05-13_08h30.50.719,group3.1-3.2-social-tom,2023.2.2,Win32,60.24096386,65c5074098b851296ff0b7ed,6642321feed2cd5eea14b3fd,,,,,,,,,,,,,,,,,,,,,,,,,,,,,971.8731,2,audio/Narrative6Situation1.wav,973.8828,,973.8829,1000.4754,"[[3.6,5339],[8.5,5422],[12.2,5505],[17,5589],[25.6,5672],[75.9,6172],[77.6,6257],[78,6339],[81.3,6422],[86.8,6505],[90.8,6589],[93.5,6672],[94.5,6757],[97,6841],[97.6,6923],[98.3,7005],[99.3,7088],[99.8,7172],[100,7257],[100,7338],[100,7422],[100,7505],[100,7589],[100,11005],[100,11088],[100,11172],[98.1,11257],[93.2,11338],[82.1,11422],[69.8,11505],[54.6,11589],[40.1,11672],[27.1,11756],[15.7,11839],[8.1,11922],[6.6,11999],[1.6,12089],[2.8,21588],[3.6,21672],[4.3,21756],[5.6,21838],[7.6,21922],[9.5,22006],[11.4,22089],[13.2,22173],[16.8,22256],[19.6,22339],[24.5,22422],[28.9,22505],[31.3,22589],[33.4,22673],[35.6,22757],[38,22839],[40.2,22922],[41.7,23006],[43.8,23089],[45.6,23172],[47.4,23257],[48,23341],[48.6,23416],[49.1,23505],[49.5,23589],[49.5,23666],[49.6,23757],[49.8,23832],[49.8,23919],[49.8,24002],[49.8,24088],[49.8,24166],[49.8,24256],[49.8,24339],[49.8,24416],[49.8,24499],[49.8,24582],[49.8,24672],[49.8,24749],[49.8,24838],[49.8,24921],[49.8,24999],[49.8,25082],[49.8,25171],[49.8,25249],[49.8,25332],[49.8,25422],[49.8,25499],[49.8,25582],[49.8,25672],[49.8,25757],[49.8,25832],[49.8,25921],[49.8,26005],[49.8,26088],[49.8,26169],[49.8,26256],[49.8,26332],[49.8,26416],[49.8,26499],[49.8,26592]]",1,0,1000.4755,1010.816,49.79166667,1.8236,"[{""rating"":49.791666666666664,""responseTime"":1.82360000002393}]",space,9.7996,,1010.8161,Definitely yes,100,1010.8237,,,[],,0,10,10,10,1,audio/Narrative8Situation1.wav,audio/Narrative7Situation1.wav,audio/Narrative6Situation1.wav,audio/Narrative5Situation1.wav,5,2,2,5,,,,,,,,,,,,,,,,,,,,,,,,,,,,,,,,,,,,,,,
,,,,,,66318eecf4b2dd2836d910d8,2024-05-13_08h30.50.719,group3.1-3.2-social-tom,2023.2.2,Win32,60.24096386,65c5074098b851296ff0b7ed,6642321feed2cd5eea14b3fd,,,,,,,,,,,,,,,,,,,,,,,,,,,,,1010.8239,2,audio/Narrative6Situation2.wav,1013.8326,,1013.8326,1042.3384,"[[1.9,5589],[5.6,5673],[7.2,5755],[8,5839],[10.3,5922],[12.5,6005],[16.8,6089],[21.9,6173],[25.9,6255],[28,6341],[29.2,6423],[30.9,6506],[33.3,6589],[34.8,6672],[35.9,6755],[37.4,6839],[38.5,6922],[39.2,7005],[39.6,7083],[40.2,7172],[41.1,7255],[43.1,7339],[44.5,7422],[45.1,7506],[45.6,7589],[46.3,7666],[46.7,7756],[46.9,7833],[47.1,7916],[47.6,8005],[47.8,8089],[48.3,8173],[48.5,8255],[48.6,8338],[48.8,8422],[49,8507],[49.2,8589],[49.2,8666],[49.2,8749],[49.2,8838],[49.4,8916],[49.4,9003],[49.4,9083],[49.6,9172],[49.6,9255],[49.6,9333],[49.7,9422],[49.7,9499],[49.7,9588],[49.7,9666],[49.7,9749],[49.7,9833],[49.7,9916],[49.7,9999],[49.7,10088],[50.2,10166],[52.5,10255],[53.5,10339],[54,10416],[54.7,10505],[55,10583],[55,10666],[55,10749],[55,10839],[55,10916],[55,11002],[55,11083],[55,11166],[55,11255],[55,11333],[55,11416],[55,11505],[55,11589],[55,11666],[55,11755],[55,11833],[55,11916],[55,11999],[55,12083],[55,12172],[55.1,12250],[56,12339],[56.9,12422],[57.6,12506],[58.1,12589],[58.2,12669],[58.2,12755],[58.2,12833],[58.2,12923],[58.2,13005],[58.2,13088],[58.2,13172],[58.2,13256],[58.2,13338],[58.2,13422],[58.2,13505],[58.2,13583],[58.2,13672],[58.2,13752],[58.2,13838],[58.2,13922],[58.2,13999],[58.2,14090],[58.2,14171],[58.2,14249],[58.2,14338],[58.2,14422],[58.2,14499],[58.2,14589],[58.2,14666],[58.2,14749],[58.2,14838],[58.2,14922],[58.2,14999],[58.2,15083],[58.2,15172],[58.2,15255],[58.2,15333],[58.2,15416],[58.2,15505],[58.2,15583],[58.2,15666],[58.2,15755],[58.2,15839],[58.2,15916],[58.2,16005],[58.2,16083],[58.2,16166],[58.2,16255],[58.2,16333],[58.2,16420],[58.2,16505],[58.2,16589],[58.2,16666],[58.2,16749],[58.2,16833],[58.2,16922],[58.2,16999],[58.2,17087],[58.2,17172],[58.2,17249],[58.2,17332],[58.2,17422],[58.2,17499],[59.3,17594],[61.3,17673],[62.5,17755],[63.8,17839],[64.6,17923],[66.3,18006],[69.5,18089],[71,18173],[72.1,18256],[76,18340],[79.4,18422],[82,18505],[84,18589],[86.7,18672],[89,18755],[89.7,18838],[90.3,18922],[91.4,19005],[92.8,19088],[95,19172],[96.7,19256],[97.8,19339],[98.2,19422],[99.4,19506],[99.7,19583],[100,19672],[100,19755],[100,19838],[100,19922],[100,20004],[100,20088],[100,20166],[100,20249],[100,20333],[100,20416],[100,20499],[100,20586],[100,20666],[100,20749],[100,20833],[100,20916],[100,20999],[100,21088],[100,21166],[100,21255],[100,21338],[100,21422],[100,21499],[100,21591],[100,21675],[100,21749],[100,21833],[100,21922],[100,22005],[100,22083],[100,22166],[100,22249],[100,22338],[100,22421],[100,22505],[100,22583],[100,22666],[100,22755],[100,22838],[100,22916],[100,22999],[100,23083],[100,23166],[100,23255],[100,23339],[100,23416],[100,23505],[100,23583],[100,23672],[100,23754],[100,23838],[100,23924],[100,24006],[100,24086],[100,24172],[100,24255],[100,24333],[100,24422],[100,24504],[100,24589],[100,24669],[100,24749],[100,24838],[100,24919],[100,24999],[100,25088],[100,25166],[100,25249],[100,25339],[100,25422],[100,25499],[100,25586],[100,25672],[100,25755],[100,25833],[100,25916],[100,25999],[100,26083],[100,26166],[100,26249],[100,26339],[100,26421],[100,26499],[100,26583],[100,26666],[100,26757],[100,26833],[100,26922],[100,27005],[100,27083],[100,27171],[100,27253],[100,27333],[100,27422],[100,27500],[100,27583],[100,27669],[100,27749],[100,27833],[100,27921],[100,28005],[100,28088],[100,28171],[100,28258],[100,28338],[100,28422],[100,28505]]",1,0,1042.3385,1047.5658,100,2.81,"[{""rating"":98.54166666666666,""responseTime"":1.9431000000238328},{""rating"":100,""responseTime"":2.8099999999999454}]",space,4.6883,,1047.5659,Partially,50,1047.5677,,,[],,0,11,11,11,1,audio/Narrative8Situation2.wav,audio/Narrative7Situation2.wav,audio/Narrative6Situation2.wav,audio/Narrative5Situation2.wav,3,3,3,3,,,,,,,,,,,,,,,,,,,,,,,,,,,,,,,,,,,,,,,
,,,,,,66318eecf4b2dd2836d910d8,2024-05-13_08h30.50.719,group3.1-3.2-social-tom,2023.2.2,Win32,60.24096386,65c5074098b851296ff0b7ed,6642321feed2cd5eea14b3fd,,,,,,,,,,,,,,,,,,,,,,,,,,,,,1047.5678,2,audio/Narrative6Situation3.wav,1052.5698,,1052.5698,1065.199,"[[6.7,6668],[35.5,6920],[42,7003],[48,7085],[52.5,7168],[84.2,7751],[87.8,7835],[91,7918],[92.9,8001],[95.1,8086],[98.3,8168],[100,8252],[100,8334],[100,8418],[100,8835],[100,8918],[100,9001],[100,9085],[100,9168],[100,9253],[100,9335],[100,9418],[100,9501],[100,9585],[100,9662],[100,9745],[100,9835],[100,9918],[100,9995],[100,10085],[100,10162],[100,10251],[100,10334],[100,10412],[100,10501],[100,10585],[100,10662],[100,10751],[100,10829],[100,10912],[100,11001],[100,11079],[100,11162],[100,11245],[100,11334],[100,11412],[100,11501],[100,11579],[100,11662],[100,11751],[100,11829],[100,11912],[100,11995],[100,12079],[100,12168],[100,12251],[100,12333],[100,12412],[100,12499],[100,12579]]",1,0,1065.1991,1071.4883,100,3.8833,"[{""rating"":98.02083333333333,""responseTime"":1.9179999999998927},{""rating"":100,""responseTime"":3.8833000000713582}]",space,5.7389,,1071.4883,Not at all,0,1071.4906,,,[],,0,12,12,12,1,audio/Narrative8Situation3.wav,audio/Narrative7Situation3.wav,audio/Narrative6Situation3.wav,audio/Narrative5Situation3.wav,4,8,5,3,,,,,,,,,,,,,,,,,,,,,,,,,,,,,,,,,,,,,,,
,,,,,,66318eecf4b2dd2836d910d8,2024-05-13_08h30.50.719,group3.1-3.2-social-tom,2023.2.2,Win32,60.24096386,65c5074098b851296ff0b7ed,6642321feed2cd5eea14b3fd,,,,,,,,,,,,,,,,,,,,,,,,,,,,,1071.4907,2,audio/Narrative6Situation4.wav,1073.505,,1073.5051,1086.1391,"[[0.3,583],[0.4,660],[0.4,743],[0.4,827],[0.4,910],[0.4,993],[0.4,1076],[0.4,1165],[0.4,1249],[0.4,1327],[0.4,1410],[0.4,1493],[0.4,1577],[0.4,1660],[0.4,1749],[0.5,1827],[0.5,1916],[0.5,1993],[0.5,2077],[0.5,2165],[0.5,2249],[0.5,2327]]",1,0,1086.1391,1102.5709,0,14.226,"[{""rating"":0.1041666666666663,""responseTime"":13.509400000095411},{""rating"":0,""responseTime"":14.225999999999885}]",space,15.881,,1102.571,Partially,50,1102.5735,,,[],,0,13,13,13,1,audio/Narrative8Situation4.wav,audio/Narrative7Situation4.wav,audio/Narrative6Situation4.wav,audio/Narrative5Situation4.wav,3,3,2,1,,,,,,,,,,,,,,,,,,,,,,,,,,,,,,,,,,,,,,,
,,,,,,66318eecf4b2dd2836d910d8,2024-05-13_08h30.50.719,group3.1-3.2-social-tom,2023.2.2,Win32,60.24096386,65c5074098b851296ff0b7ed,6642321feed2cd5eea14b3fd,,,,,,,,,,,,,,,,,,,,,,,,,,,,,1102.5737,2,audio/Narrative6Situation5.wav,1104.5822,,1104.5823,1112.5655,"[[1.6,2589],[2.9,2672],[5.6,2756],[7.7,2839],[12.2,2922],[17,3005],[21.4,3089],[24.2,3172],[26.1,3256],[29.7,3338],[33.8,3422],[35.7,3506],[37.8,3589],[40.1,3672],[42.5,3755],[44.7,3839],[46.1,3922],[47.5,4005],[48.4,4089],[48.9,4175],[49,4249],[49.2,4338],[49.2,4422],[49.3,4499],[49.4,4588],[49.5,4672],[49.5,4755],[49.5,4838],[49.5,4922],[49.6,4999],[49.6,5088],[49.7,5172],[49.7,5257],[49.7,5340],[49.7,5421],[49.7,5499],[49.7,5583],[49.7,5671],[49.7,5749],[49.7,5833],[49.7,5916],[49.7,6005],[49.7,6085],[49.7,6166],[49.7,6249],[49.7,6339],[49.7,6416],[49.7,6505],[49.7,6583],[49.7,6666],[49.7,6749],[49.7,6839],[49.7,6921],[49.7,7004],[49.7,7088],[49.7,7172],[49.7,7255],[49.7,7333],[49.7,7423],[49.7,7507],[49.7,7583],[49.7,7672],[49.7,7749],[49.7,7833],[49.7,7921]]",1,0,1112.5655,1115.1879,49.6875,0.8212,"[{""rating"":49.6875,""responseTime"":0.821200000047611}]",space,2.0786,,1115.1879,Partially,50,1115.1889,,,[],,0,14,14,14,1,audio/Narrative8Situation5.wav,audio/Narrative7Situation5.wav,audio/Narrative6Situation5.wav,audio/Narrative5Situation5.wav,2,5,2,5,,,,,,,,,,,,,,,,,,,,,,,,,,,,,,,,,,,,,,,
,,,,,,66318eecf4b2dd2836d910d8,2024-05-13_08h30.50.719,group3.1-3.2-social-tom,2023.2.2,Win32,60.24096386,65c5074098b851296ff0b7ed,6642321feed2cd5eea14b3fd,,,,,,,,,,,,,,,,,,,,,,,,,,,,,1115.1891,2,audio/Narrative6Situation6.wav,1117.1987,,1117.1988,1128.3045,"[[1,1923],[3,2005],[5.9,2089],[11.8,2173],[18.3,2256],[33.9,2506],[38.4,2589],[41.5,2672],[42.9,2755],[45.6,2839],[47.7,2923],[48.4,3005],[48.8,3088],[49.3,3173],[49.6,3249],[49.8,3338],[49.9,3423],[50,3506],[50,3590],[50,3666],[50,3749],[50,3836],[50,3916],[50,4000],[50,4083],[50,4166],[50,4253],[50,4338],[50,4419],[50,4500],[50,4589],[50,4666],[50,4757],[50,4838],[50,4916],[50,5005],[50,5088],[50,5166],[50,5255],[50,5333],[50,5423],[50,5503],[50,5583],[50,5672],[50,5750],[50,5833],[50,5922],[50,5999],[50,6085],[50,6171],[50,6249],[50,6333],[50,6421],[50,6505],[50,6589],[50,6666],[50,6750],[50,6840],[50,6922],[50,7005],[50,7088],[50,7169],[50,7255],[50,7338],[50,7416],[50,7505],[50,7583],[50,7669],[50,7749],[50,7833],[50,7916],[50,7999],[50,8083],[50,8172],[50,8255],[50,8339],[50,8416],[50,8499],[50,8583],[50,8666],[50,8754],[50,8833],[50,8916],[50,9005],[50,9088],[50,9166],[50,9255],[50,9333],[50,9421],[50,9500],[50,9583],[50,9666],[50,9755],[50,9838],[50,9922],[50,10005],[50,10083],[50,10166],[50,10255],[50,10333],[50,10421],[50,10499],[50,10583],[50,10672],[50,10755],[50,10838],[50,10916],[50,11006],[50,11083]]",1,0,1128.3046,1132.3042,50,0.9085,"[{""rating"":50,""responseTime"":0.9085000000000036}]",space,3.4592,,1132.3043,Not at all,0,1132.3124,,,[],,0,15,15,15,1,audio/Narrative8Situation6.wav,audio/Narrative7Situation6.wav,audio/Narrative6Situation6.wav,audio/Narrative5Situation6.wav,2,3,2,3,,,,,,,,,,,,,,,,,,,,,,,,,,,,,,,,,,,,,,,
,,,,,,66318eecf4b2dd2836d910d8,2024-05-13_08h30.50.719,group3.1-3.2-social-tom,2023.2.2,Win32,60.24096386,65c5074098b851296ff0b7ed,6642321feed2cd5eea14b3fd,,,,,,,,,,,,,,,,,,,,,,,,,,,,,1132.3125,2,audio/Narrative6Situation7.wav,1137.3154,,1137.3154,1162.1878,"[[0.3,1006],[0.4,1089],[0.4,1172],[0.4,1250],[0.4,1338],[0.4,1422],[0.4,1506],[0.4,1586],[0.4,1672],[0.4,1749],[0.8,1839],[1.3,1922],[1.3,1999],[1.3,2083],[1.3,2166],[0.7,2255],[0.3,2338],[0.3,2416],[0.3,2505],[0.3,2583],[0.3,2666],[0.3,2755],[0.3,2833],[0.3,2919],[0.3,3005],[0.3,3083],[0.3,3166],[0.3,3255],[0.3,3337],[0.3,3422],[0.3,3499],[0.3,3588],[0.3,3671],[0.3,3755],[0.3,3840],[0.3,3916],[0.3,4005],[0.3,4088],[0.3,4171],[0.3,4255],[0.3,4333],[0.3,4416],[0.3,4499],[0.3,4583],[0.3,4671],[0.3,4755],[0.3,4839],[0.3,4916],[0.3,5004],[0.3,5088],[0.3,5172],[0.3,5255],[0.3,5333],[0.3,5421],[0.3,5499],[0.3,5588],[0.3,5671],[0.3,5752],[0.3,5838],[0.3,5922],[0.3,5999],[0.3,6087],[0.3,6166],[0.3,6249],[0.3,6333],[0.3,6423],[0.3,6505],[0.3,6583],[0.3,6672],[0.3,6755],[0.3,6833],[0.3,6916],[0.3,7005],[3.1,7089],[13.2,7173],[19.9,7256],[28.8,7339],[35.7,7422],[64.3,7672],[73.9,7756],[75.1,7833],[75.2,7916],[79.3,8005],[86.4,8089],[91,8172],[97,8506],[97.5,8590],[98.6,8672],[100,8749],[100,8839],[100,8922],[100,8999],[100,9088],[100,9171],[100,9255],[100,9333],[100,9422],[100,12172],[100,12255],[100,12339],[100,12422],[100,12505],[100,12583],[100,12666],[100,12749],[100,12836],[100,12916],[100,13005],[100,13083],[100,13172],[100,13249],[100,13333],[100,13420],[100,13505],[100,13583],[100,13672],[100,13749],[100,13833],[100,13921],[100,13999],[100,14088],[100,14166],[100,14255],[100,14338],[100,14416],[100,14499],[100,14588],[100,14672],[100,14754],[100,14838],[100,14916],[100,15003],[100,15083],[100,15172],[100,15249],[100,15338],[100,15416],[100,15499],[100,15583],[100,15666],[100,15755],[100,15838],[100,15919],[100,16005],[100,16083],[100,16169],[100,16257],[100,16340],[100,16416],[100,16499],[100,16589],[100,16666],[100,16749],[99.8,16838],[84.8,16922],[9,17255],[1.7,17341],[0.8,17422],[3.2,18256],[21.4,18341],[41.8,18422],[50.8,18506],[56.5,18591],[75.4,18839],[79,18923],[82.6,19006],[85.4,19088],[90.1,19172],[95.3,19255],[98.2,19340],[100,19422],[100,19508],[100,19589],[100,19672],[100,19755],[100,19833],[100,19920],[100,19999],[100,20090],[100,20166],[100,20255],[100,20339],[100,20421],[100,20505],[100,20590],[100,20673],[100,20749],[100,20833],[100,20922],[100,21005],[100,21088],[100,21171],[100,21249],[100,21338],[100,21416],[100,21505],[100,21589],[100,21666],[100,21749],[100,21838],[100,21916],[100,22005],[100,22088],[100,22166],[100,22249],[100,22338],[100,22416],[100,22499],[100,22588],[100,22666],[100,22753],[100,22838],[100,22916],[100,22999],[100,23088],[100,23166],[100,23255],[100,23339],[100,23416],[100,23505],[100,23589],[100,23672],[100,23755],[100,23833],[100,23916],[100,24007],[100,24083],[100,24166],[100,24249],[100,24333],[100,24422],[100,24499],[100,24583],[100,24672],[100,24756],[100,24833]]",1,0,1162.188,1166.9708,100,2.7101,"[{""rating"":99.16666666666667,""responseTime"":1.70900000000006},{""rating"":100,""responseTime"":2.7101000000238855}]",space,4.2393,,1166.9708,Not at all,0,1166.9718,,,[],,0,16,16,16,1,audio/Narrative8Situation7.wav,audio/Narrative7Situation7.wav,audio/Narrative6Situation7.wav,audio/Narrative5Situation7.wav,3,5,5,4,,,,,,,,,,,,,,,,,,,,,,,,,,,,,,,,,,,,,,,
,,,,,,66318eecf4b2dd2836d910d8,2024-05-13_08h30.50.719,group3.1-3.2-social-tom,2023.2.2,Win32,60.24096386,65c5074098b851296ff0b7ed,6642321feed2cd5eea14b3fd,,,,,,,,,,,,,,,,,,,,,,,,,,,,,1166.9719,2,audio/Narrative6Situation8.wav,1171.9819,,1171.982,1178.8318,"[[2.2,1423],[1.6,1506],[0.9,1589],[0.7,1672],[0.7,1755],[0.7,1838],[0.2,1922]]",1,0,1178.8319,1182.7556,0,2.4505,"[{""rating"":1.250000000000001,""responseTime"":1.4832000000476455},{""rating"":0,""responseTime"":2.45049999999992}]",space,3.3995,,1182.7556,Definitely yes,100,1182.7585,,,[],,0,17,17,17,1,audio/Narrative8Situation8.wav,audio/Narrative7Situation8.wav,audio/Narrative6Situation8.wav,audio/Narrative5Situation8.wav,3,2,5,3,,,,,,,,,,,,,,,,,,,,,,,,,,,,,,,,,,,,,,,
,,,,,,66318eecf4b2dd2836d910d8,2024-05-13_08h30.50.719,group3.1-3.2-social-tom,2023.2.2,Win32,60.24096386,65c5074098b851296ff0b7ed,6642321feed2cd5eea14b3fd,,,,,,,,,,,,,,,,,,,,,,,,,,,,,1182.7588,2,audio/Narrative6Situation9.wav,1186.765,,1186.765,1196.6985,[],1,0,1196.6985,1200.3041,0,2.0992,"[{""rating"":0.2083333333333326,""responseTime"":1.2010000000000218},{""rating"":0,""responseTime"":2.099200000047631}]",space,3.0613,,1200.3041,Definitely yes,100,1200.305,,,[],,0,18,18,18,1,audio/Narrative8Situation9.wav,audio/Narrative7Situation9.wav,audio/Narrative6Situation9.wav,audio/Narrative5Situation9.wav,3,2,4,3,,,,,,,,,,,,,,,,,,,,,,,,,,,,,,,,,,,,,,,
,,,,,,66318eecf4b2dd2836d910d8,2024-05-13_08h30.50.719,group3.1-3.2-social-tom,2023.2.2,Win32,60.24096386,65c5074098b851296ff0b7ed,6642321feed2cd5eea14b3fd,,,,,,,,,,,,,,,,,,,,,,,,,,,,,,,,,,,,,,,,,,,,,,,,,,,,,,,,,,,,,,,,,,,,,,,,1200.3051,1202.8151,space,1.9903,,1202.8153,1212.4382,space,9.2838,,,,,,,,,,,,,,,,,,,,,,,,,,
,,,,,,66318eecf4b2dd2836d910d8,2024-05-13_08h30.50.719,group3.1-3.2-social-tom,2023.2.2,Win32,60.24096386,65c5074098b851296ff0b7ed,6642321feed2cd5eea14b3fd,,,,,,,,,,,,,,,,,,,,,,,,,,,,,1215.0305,1,audio/Narrative8Situation9.wav,1217.0316,,,,,,,1248.9109,1254.3541,50.20833333,2.3952,"[{""rating"":50.208333333333336,""responseTime"":2.3952000000479075}]",space,4.9174,,1248.9044,Definitely yes,100,1248.9109,,,[],,,,,,,,,,,2,2,2,2,,,,,,,,,,,,,,,1212.445,1215.0152,1217.0318,3,1248.9044,"[[0.4,589],[0.4,672],[0.4,749],[0.4,833],[0.4,922],[0.1,1006],[3.3,21756],[7.5,21841],[11.7,21922],[17,22005],[21.5,22089],[26.4,22172],[31.6,22255],[38.5,22338],[42.4,22422],[44.2,22506],[45.6,22589],[46.3,22672],[46.9,22756],[47.4,22839],[47.7,22916],[48,22999],[48.3,23082],[48.8,23172],[48.9,23255],[48.9,23338],[48.9,23416],[48.9,23505],[48.9,23583],[48.9,23666],[48.9,23749],[48.9,23838],[48.9,23921],[48.9,24008],[48.9,24083],[48.9,24172],[48.9,24249],[48.9,24332],[48.9,24422],[48.9,24504],[48.9,24588],[48.9,24670],[48.9,24755],[48.9,24838],[48.9,24916],[48.9,25005],[48.9,25089],[48.9,25172],[48.9,25252],[48.9,25338],[48.9,25422],[48.8,25505],[48.8,25588],[48.8,25671],[48.9,25749],[49,25832],[49.2,25916],[49.2,26004],[49.2,26088],[49.2,26166],[49.2,26255],[49.2,26338],[49.2,26416],[49.5,26505],[49.7,26589],[49.8,26671],[49.8,26755],[49.8,26832],[49.8,26916],[49.8,26999],[49.8,27082],[49.8,27166],[49.8,27255],[49.8,27333],[49.9,27416],[49.9,27504],[49.9,27583],[49.9,27666],[49.9,27749],[49.9,27839],[49.9,27922],[49.9,27999],[49.9,28089],[49.9,28166],[49.9,28249],[49.9,28332],[49.9,28416],[49.9,28505],[49.9,28585],[49.9,28666],[49.9,28755],[49.9,28832],[49.9,28919],[49.9,28999],[49.9,29082],[49.9,29166],[49.9,29255],[49.9,29338],[49.9,29421],[49.9,29505],[49.9,29588],[49.9,29666],[49.9,29755],[49.9,29838],[49.9,29916],[49.9,30005],[49.9,30082],[49.9,30170],[49.9,30255],[49.9,30338],[49.9,30416],[49.9,30505],[49.9,30588],[49.9,30666],[49.9,30749],[49.9,30832],[49.9,30921],[49.9,31004],[49.9,31089],[49.9,31166],[49.9,31255],[49.9,31332],[49.9,31421],[49.9,31499],[49.9,31582],[49.9,31673],[49.9,31757],[49.9,31838]]",0,0,0,0,1,"Larry had recently lost his family, job and home, and was now living on his own in the park. He had most of his belongings, including some clothes, a blanket, and his mother’s special necklace. His family had been very important to him and he felt as though he did not have much going for him. One of his first days in the park he came across a family that did not have much food and looked very cold. He decided to give them some of his food and his blanket.","Larry had recently lost his family, job and home, and was now living on his own in the park. He had most of his belongings, including some clothes, a blanket, and his mother’s special necklace. His family had been very important to him and he felt as though he did not have much going for him. One of his first days in the park he came across a family that did not have much food and looked very cold. He decided to give them some of his food and his blanket.","Larry had recently lost his family, job and home, and was now living on his own in the park. He had most of his belongings, including some clothes, a blanket, and his mother’s special necklace. His family had been very important to him and he felt as though he did not have much going for him. One of his first days in the park he came across a family that did not have much food and looked very cold. He decided to give them some of his food and his blanket.","Larry had recently lost his family, job and home, and was now living on his own in the park. He had most of his belongings, including some clothes, a blanket, and his mother’s special necklace. His family had been very important to him and he felt as though he did not have much going for him. One of his first days in the park he came across a family that did not have much food and looked very cold. He decided to give them some of his food and his blanket.",,,,,,,,,,
,,,,,,66318eecf4b2dd2836d910d8,2024-05-13_08h30.50.719,group3.1-3.2-social-tom,2023.2.2,Win32,60.24096386,65c5074098b851296ff0b7ed,6642321feed2cd5eea14b3fd,,,,,,,,,,,,,,,,,,,,,,,,,,,,,1254.3547,1,audio/Narrative8Situation9.wav,1257.8815,space,,,,,,1291.4559,1297.687,0,4.5857,"[{""rating"":0.8333333333333359,""responseTime"":3.7982999999524054},{""rating"":0,""responseTime"":4.585699999928693}]",space,5.684,,1291.448,Not at all,0,1291.4558,,,[],,,,,,,,,,,6,2,3,9,3.5041,,,,,,,,,,,,,,,,1257.8815,3,1291.448,"[[39.8,339],[0.5,12344],[0.5,12421],[0.5,12505],[0.5,12588],[0.5,12671],[0.5,12757],[0.6,12838],[0.6,12922],[0.6,12999],[0.6,13083],[0.6,13166],[0.6,13249],[0.6,13338],[0.6,13416],[0.6,13502],[0.6,13588],[0.6,13666],[0.6,13749],[0.6,13840],[0.6,13916],[0.6,14005],[0.6,14083],[0.6,14172],[0.6,14256],[0.6,14336],[0.6,14419],[0.6,14505],[0.6,14583],[0.6,14671],[0.6,14756],[0.6,14838],[0.6,14922],[0.6,15005],[0.6,15083],[0.6,15166],[0.6,15249],[0.4,15338],[0.4,25257],[2.7,25339],[5.8,25422],[8,25505],[9.1,25589],[11.7,25673],[15.7,25757],[20.3,25841],[24.5,25924],[29,26422],[30,26505],[31.3,26589],[32.6,26672],[34.1,26757],[35.1,26838],[35.9,26921],[35.9,26999],[35.9,27088],[35.9,27166],[35.9,27249],[35.9,27333],[35.9,27416],[35.9,27499],[35.9,27588],[35.9,27666],[35.9,27756],[35.9,27833],[36.9,27923],[39,28006],[41.1,28089],[42.8,28171],[44.8,28256],[47.4,28339],[48.9,28422],[49.6,28505],[49.9,28588],[50.3,28666],[50.6,28756],[50.6,28833],[50.6,28916],[50.6,29005],[50.6,29083],[50.6,29171],[50.6,29256],[49.7,29339],[43.6,29422],[28.3,29505]]",0,1,1,1,1,"It was just another Sunday afternoon for Lucy, she was on her way to the farmer's market to pick up some produce. When she arrived at the old train depot that housed the market, she noticed two men fighting on the steps. Before she could call for help, one of the men crumpled to his knees. The other man dropped an object that appeared to be a knife and ran off. When Lucy approached the crime scene she realized that the man who had been murdered was the Mayor and that he had a gunshot wound.","One day at work, Margaret walked up to her partner, Al, to ask him to talk to the chief of staff at the local hospital where she worked as a nurse.","Luke always thought of himself as an honest man. That's why during his evening jog around the swamp, he pondered his recent affair with the receptionist at work. Luke looked up at the sky and asked God why he was so weak and unfaithful. He thought of the impact this would have on his family and told God of his conflicted feelings toward telling his wife Marta.","Linda and Amy had been best friends since kindergarten, they even found homes on the same street in the forest on the edge of town. Their biggest fight had been over who gets the bigger slice of cake, until Amy married Dan. Linda loathed Dan, she thought he was manipulative and had a violent temper. She only put up with him because Amy loved him. ",,,,,,,,,,
,,,,,,66318eecf4b2dd2836d910d8,2024-05-13_08h30.50.719,group3.1-3.2-social-tom,2023.2.2,Win32,60.24096386,65c5074098b851296ff0b7ed,6642321feed2cd5eea14b3fd,,,,,,,,,,,,,,,,,,,,,,,,,,,,,1297.6872,1,audio/Narrative8Situation9.wav,1301.6978,,,,,,,1320.2401,1338.2374,49.6875,15.582,"[{""rating"":49.6875,""responseTime"":15.58199999999988}]",space,17.4503,,1320.2313,Partially,50,1320.2401,,,[],,,,,,,,,,,4,5,2,2,,,,,,,,,,,,,,,,,1301.6979,3,1320.2312,"[[0.6,1756],[1.1,1833],[1.1,1921],[1.3,2005],[1.3,2089],[1.3,2172],[0.1,2255]]",0,2,2,2,1,On the ground beside him was a pen that she had mistaken for a knife. Lucy looked for the gunman and saw a suspicious man in black with distinct pointy features darting into an alley across the street. Cops who were nearby chased the man who had fled and arrested him.,"While waiting outside the chief of staff's office, Al heard nondescript shouting and yelling, there was a loud clatter in the room and then an eerie silence. An unfamiliar employee ran hastily out of the office with a terrified look on their face.","Suddenly, Luke heard a woman call out his name and when he turned around he saw Carly, his receptionist, across the road with a gun in her hand. Carly ran to him and explained how she had followed him here to confess her love. She exclaimed if Luke didn't love her back that she would kill him and his family. Carly explained that the only way they could be together is to kill Marta.","This feeling of hate between Amy and Dan was mutual, Dan didn't like how much time his wife spent with her and thought Amy was creating distance between their marriage. That's why Dan decided to try and tarnish Linda's reputation with his wife, in hopes it would get rid of her. He came home one afternoon and exclaimed that Linda had tried to kiss him. Amy was taken aback and immediately called Linda to confront her about these accusations. When Linda arrived she denied having made a move on Dan, but discovered Dan had enlisted the help of his friend Will who said he witnessed it all happen.",,,,,,,,,,
,,,,,,66318eecf4b2dd2836d910d8,2024-05-13_08h30.50.719,group3.1-3.2-social-tom,2023.2.2,Win32,60.24096386,65c5074098b851296ff0b7ed,6642321feed2cd5eea14b3fd,,,,,,,,,,,,,,,,,,,,,,,,,,,,,1338.2377,1,audio/Narrative8Situation9.wav,1340.2525,,,,,,,1352.1281,1359.2383,0,2.36,"[{""rating"":0,""responseTime"":2.3599999999999}]",space,6.5673,,1352.1212,Partially,50,1352.1281,,,[],,,,,,,,,,,2,2,1,4,,,,,,,,,,,,,,,,,1340.2526,3,1352.1211,"[[2.6,1166],[2.6,1244],[2.6,1334],[1.8,1417],[1,1502],[0.3,1584],[0.3,1666],[0.3,1745],[0.3,1833],[0.3,1911],[0.3,1994],[0.3,2081],[0.3,2161],[0.3,2244],[0.3,2335],[0.3,2411],[0.3,2495],[0.3,2578],[0.3,2661],[0.3,2750],[0.3,2828],[0.3,2911],[0.3,2994],[0.3,3083],[0.3,3161],[0.3,3250],[0.3,3328],[0.3,3411],[0.3,3500],[0.3,3585],[0.3,3661],[0.3,3745],[0.3,3833],[0.3,3911],[0.3,4000],[0.3,4078],[0.3,4161],[0.3,4250],[0.3,4328],[0.3,4417],[0.3,4499],[0.3,4578],[0.3,4661],[0.3,4744],[0.3,4833],[0.3,4917],[0.3,5000],[0.3,5078],[0.3,5166],[0.3,5245],[0.3,5334],[0.3,5411],[0.3,5494],[0.3,5583],[0.3,5667],[0.3,5744],[0.3,5833],[0.3,5911],[0.3,5994],[0.3,6084],[0.3,6161],[0.3,6244],[0.3,6334],[0.3,6417],[0.3,6494],[0.3,6578],[0.3,6661],[0.3,6745],[0.3,6828],[0.3,6918],[0.3,6995],[0.3,7078],[0.3,7161],[0.3,7247],[0.3,7333],[0.3,7416],[0.3,7500],[0.3,7578],[0.3,7667],[0.3,7750],[0.3,7828],[0.3,7914],[0.3,8001],[0.3,8084],[0.3,8167],[0.3,8251],[0.3,8328],[0.3,8411],[0.3,8499],[0.3,8578],[0.3,8667],[0.3,8751],[0.3,8828],[0.3,8916],[0.3,9000],[0.3,9085],[0.3,9161],[0.3,9244],[0.3,9334],[0.3,9417],[0.3,9494],[0.3,9582],[0.3,9666],[0.3,9750],[0.3,9831],[0.3,9911],[0.3,10000],[0.3,10083],[0.3,10167],[0.3,10250],[0.3,10328],[0.3,10418],[0.3,10500],[0.3,10583],[0.3,10661],[0.3,10744],[0.3,10833],[0.3,10916],[0.3,10994],[0.3,11078],[0.3,11161],[0.3,11254],[0.3,11333],[0.3,11411],[0.3,11500],[0.3,11583],[0.3,11661],[0.3,11745],[0.3,11833]]",0,3,3,3,1,"But Lucy knew the charged man was innocent, which meant the killer was free. Lucy vowed to find out who the real murderer was and to stop him at all costs.","Al explained to the chief of staff that Margaret wanted to be excused from her absences last week. The chief of staff, Susan, revealed that she wanted to fire Margaret and never see her again. Susan and Al had been having an affair and she wanted Margaret ""out of the picture"". Al was conflicted, but agreed it would be for the best.","Luke thought of his child and felt like this was his only option. He agreed to the plan and called his wife to meet him at the swamp to watch the sunset with him. When she arrived, Marta called out for her husband, but found Carly waiting for her. She immediately drew her gun and shot her in the chest, knocking her unconscious.","Since it was their word against her own, she decided to go home and admit defeat. She knew how much it would hurt Amy to know the truth.",,,,,,,,,,
,,,,,,66318eecf4b2dd2836d910d8,2024-05-13_08h30.50.719,group3.1-3.2-social-tom,2023.2.2,Win32,60.24096386,65c5074098b851296ff0b7ed,6642321feed2cd5eea14b3fd,,,,,,,,,,,,,,,,,,,,,,,,,,,,,1359.2439,1,audio/Narrative8Situation9.wav,1360.2476,,,,,,,1389.7835,1408.1531,0,13.3187,"[{""rating"":0,""responseTime"":13.318700000047556}]",space,17.8356,,1389.781,Definitely yes,100,1389.7835,,,[],,,,,,,,,,,1,1,3,3,,,,,,,,,,,,,,,,,1360.2477,3,1389.7809,"[[0.6,2755],[0.9,2833],[0.9,2922],[0.9,2999],[0.7,3088],[0.7,3172],[0.7,3249],[0.7,3338],[0.7,3416],[0.7,3505],[0.7,3588],[0.7,3666],[0.7,3755],[0.7,3839],[0.7,3922],[0.7,4005],[0.7,4086],[0.7,4166],[0.7,4255],[0.7,4333],[0.7,4416],[0.7,4503],[0.7,4582],[0.7,4666],[0.7,4749],[0.7,4833],[0.7,4916],[0.7,5004],[0.7,5088],[0.7,5172],[0.7,5256],[0.7,5338],[0.7,5421],[0.7,5506],[0.7,5583],[0.7,5666],[0.7,5754],[0.7,5838],[0.7,5916],[0.7,6005],[0.7,6083],[0.7,6172],[0.7,6249],[0.7,6338],[0.7,6421],[0.7,6505],[0.7,6583],[0.7,6672],[0.7,6749],[0.7,6833],[0.7,6916],[0.7,6999],[0.7,7083],[0.7,7172],[0.7,7252],[0.7,7338],[0.7,7421],[0.7,7499],[0.7,7583],[0.7,7673],[0.7,7749],[0.7,7838],[0.7,7916],[0.7,7999],[0.7,8088],[0.7,8172],[0.7,8254],[0.7,8333],[0.7,8421],[0.7,8499],[0.7,8588],[0.7,8671],[0.7,8749],[0.7,8833],[0.7,8916],[0.7,8999],[0.7,9088],[0.7,9166],[0.7,9249],[0.7,9338],[0.7,9416],[0.7,9499],[0.7,9588],[0.7,9666],[0.7,9755],[0.7,9833],[0.7,9916],[0.7,10005],[0.7,10088],[0.7,10166],[0.7,10255],[0.7,10333],[0.7,10416],[0.7,10505],[0.7,10582],[0.7,10666],[0.7,10754],[0.7,10833],[0.7,10916],[0.7,10999],[0.7,11088],[0.7,11166],[0.7,11255],[0.7,11333],[0.7,11421],[0.7,11499],[0.7,11583],[0.7,11666],[0.7,11755],[0.7,11833],[0.7,11919],[0.7,11999],[0.7,12088],[0.7,12171],[0.7,12249],[0.7,12338],[0.7,12421],[0.7,12499],[0.7,12588],[0.7,12666],[0.7,12749],[0.7,12833],[0.7,12916],[0.7,13002],[0.7,13088],[0.7,13166],[0.7,13249],[0.7,13338],[0.7,13422],[0.7,13505],[0.7,13588],[0.7,13666],[0.7,13749],[0.7,13838],[0.7,13916],[0.7,13999],[0.7,14088],[0.7,14171],[0.7,14257],[0.7,14338],[0.7,14416],[0.7,14499],[0.7,14589],[0.7,14672],[0.7,14749],[0.7,14832],[0.7,14920],[0.7,15005],[0.7,15088],[0.7,15171],[0.7,15255],[0.7,15333],[0.7,15422],[0.7,15499],[0.7,15588],[0.7,15672],[0.7,15755],[0.7,15833],[0.7,15916],[0.7,15999],[0.7,16083],[0.7,16171],[0.7,16249],[0.7,16333],[0.7,16416],[0.7,16507],[0.7,16583],[0.7,16671],[0.7,16749],[0.7,16833],[0.7,16921],[0.7,17005],[0.7,17083],[0.7,17171],[0.7,17249],[0.7,17338],[0.7,17422],[0.7,17499],[0.7,17589],[0.7,17666],[0.7,17749],[0.7,17833],[0.7,17916],[0.7,17999],[0.7,18088],[0.7,18171],[0.7,18249],[0.7,18338],[0.7,18416],[0.7,18499],[0.7,18589],[0.6,18666],[0.6,18755],[0.6,18835],[0.6,18916],[0.6,19005],[0.6,19082],[0.6,19166],[0.6,19255],[0.6,19339],[0.6,19416],[0.6,19504],[0.6,19588],[0.6,19666],[0.6,19749],[0.6,19832],[0.6,19921],[0.6,20002],[0.6,20083],[0.6,20166],[0.6,20254],[0.6,20336],[0.6,20422],[0.6,20505],[0.6,20583],[0.6,20672],[0.6,20754],[0.6,20833],[0.6,20916],[0.6,21002],[0.6,21083],[0.6,21171],[0.6,21249],[0.6,21333],[0.6,21422],[0.6,21505],[0.6,21587],[0.6,21672],[0.6,21749],[0.6,21838],[0.6,21921],[0.6,21999],[0.6,22082],[0.6,22166],[0.6,22255],[0.6,22338],[0.6,22416],[0.6,22499],[0.6,22588],[0.6,22666],[0.6,22754],[0.6,22832],[0.6,22922],[0.6,22999],[0.6,23088],[0.6,23166],[0.6,23249],[0.6,23337],[0.6,23416],[0.6,23505],[0.6,23588],[0.6,23672],[0.6,23755],[0.6,23838],[0.6,23916],[0.6,24004],[0.6,24082],[0.6,24172],[0.6,24255],[0.6,24338],[0.7,24416],[0.7,24505],[0.7,24582],[0.7,24666],[0.7,24755],[0.7,24832],[0.7,24916],[0.7,25005],[0.7,25083],[0.7,25172],[0.7,25255],[0.7,25333],[0.7,25422],[0.8,25506],[0.8,25583],[0.8,25672],[0.8,25749],[0.8,25832],[0.8,25916],[0.8,25999],[0.8,26083],[0.8,26172],[0.8,26254],[0.8,26332],[0.8,26421],[0.8,26505],[0.8,26583],[0.8,26672],[0.8,26749],[0.8,26836],[0.8,26916],[0.8,26999],[0.8,27082],[0.8,27172],[0.8,27249],[0.8,27338],[0.8,27416],[0.8,27499],[0.8,27588],[0.8,27666],[0.8,27749],[0.9,27838],[0.9,27916],[0.9,27999],[0.9,28086],[0.9,28172],[0.9,28249],[0.9,28338],[0.9,28422],[0.9,28505],[0.9,28588],[0.9,28666],[0.9,28755],[0.9,28838],[0.9,28921],[0.9,29005],[0.9,29082],[0.9,29172],[0.9,29249],[0.9,29333],[0.9,29422],[0.9,29505]]",0,4,4,4,1,"The next day the mayors successor, Mr. Smith, a man who was very unpopular due to his strong ties to the oil companies, took office. After a long day of brainstorming about the mysterious killer, Lucy decided to attend his welcome ceremony in the city. During the mayor's speech, she noticed one of the security guards looked strangely familiar. It dawned on her that this new mayor had motive to kill and that the man in black could've been the guard working for him.","Weeks passed and nobody had seen Margaret. Coworkers and friends searched the nearby city looking for her. One day on patrol in a nearby town, a police officer heard someone crying for help in the basement of a house and went in to investigate. Margaret yelled that she was being held captive and needed help.","Luke ran to Marta, and filled with regret over his decision to go along with Carly's plan, picked her up and rushed her to the hospital. The doctors tried to help Marta by taking her into emergency surgery but failed to save her life. Once the doctor called the time of death, Luke fell to his knees and sobbed over his rash decision.","Months later Dan had taken up a mistress, he was growing bored with his marriage ever since he got rid of Linda and was only still with Amy for her family's money. In a hotel room in a nearby town, Dan and his mistress, Nicole, conspired to secretly kill Amy while still obtaining her fortune.",,,,,,,,,,
,,,,,,66318eecf4b2dd2836d910d8,2024-05-13_08h30.50.719,group3.1-3.2-social-tom,2023.2.2,Win32,60.24096386,65c5074098b851296ff0b7ed,6642321feed2cd5eea14b3fd,,,,,,,,,,,,,,,,,,,,,,,,,,,,,1408.1589,1,audio/Narrative8Situation9.wav,1411.1697,,,,,,,1427.6888,1431.1545,49.58333333,1.1232,"[{""rating"":49.583333333333336,""responseTime"":1.1231999999283744}]",space,2.9183,,1427.6867,Partially,50,1427.6888,,,[],,,,,,,,,,,3,1,3,3,,,,,,,,,,,,,,,,,1411.1697,3,1427.6866,"[[0.6,666],[1,750],[1.6,833],[2.2,916],[2.4,1000],[2.4,1077],[2.4,1166],[2.4,1244],[2.4,1327],[2.4,1416],[2.4,1499],[2.4,1582],[2.4,1660],[3.8,1750],[7,1833],[8.4,1916],[9,2000],[10,2083],[16.8,2166],[26,2249],[31.7,2333],[35.1,2417],[40.8,2500],[43.9,2583],[44.7,2667],[45.9,2750],[47.7,2833],[48.3,2916],[49.8,3000],[50.3,3083],[50.8,3161],[50.8,3244],[50.8,3327],[50.8,3410],[50.8,3494],[50.8,3583],[50.8,3660],[50.8,3750],[50.8,3833],[50.8,3910],[50.8,3999],[50.8,4077],[50.8,4160],[50.8,4244],[50.8,4333],[50.8,4410],[50.8,4500],[50.8,4582],[50.8,4660],[50.8,4749],[50.8,4833],[50.8,4913],[50.8,4999],[50.8,5083],[50.8,5166],[50.8,5249],[50.8,5327],[50.8,5410],[50.8,5493],[50.8,5577],[50.8,5660],[50.8,5744],[50.8,5827],[51.7,5923],[53.2,6002],[54.3,6085],[55.6,6167],[57.7,6250],[60.7,6333],[63.9,6416],[66.1,6500],[67.5,6584],[68.4,6666],[69,6750],[69.7,6833],[70.2,6916],[70.7,7000],[71.9,7083],[71.9,7166],[71.9,7247],[72.6,7333],[73.3,7417],[73.8,7500],[74.4,7583],[75.8,7667],[77.8,7750],[79.5,7834],[80.7,7916],[82.7,8000],[85.8,8077],[87.9,8168],[89,8250],[90.3,8333],[92,8417],[94.2,8500],[96.7,8583],[97.8,8666],[98.3,8744],[99.5,8833],[100,8916],[100,8999],[100,9077],[100,9160],[100,9249],[100,9332],[100,9417],[100,9500],[100,9582],[100,9660],[100,9743],[100,9830],[100,9910],[100,10000],[100,10077],[100,10160],[100,10244],[100,10327],[100,10410],[100,10500],[100,10577],[100,10663],[100,10750],[100,10833],[100,10916],[100,10999],[100,11077],[100,11163],[100,11244],[100,11327],[100,11416],[100,11501],[100,11577],[100,11666],[100,11748],[100,11833],[100,11911],[100,11993],[100,12077],[100,12160],[100,12244],[100,12327],[100,12416],[100,12500],[98.3,12583],[94.9,12666],[90.5,12750],[85.6,12833],[59.9,13666],[59.2,13750],[58.3,13833],[57.7,13917],[57.6,13994],[57.6,14083],[57.6,14160],[57.2,14250],[56.6,14333],[55.4,14416],[54.1,14500],[53,14583],[52.2,14665],[51.6,14749],[51.5,14827],[51.1,14916],[51.1,14998],[51.1,15077],[50.8,15166],[50.7,15243],[50.7,15327],[49.9,15416],[49.7,15499],[49.7,15577],[49.7,15660],[49.7,15749],[49.7,15832],[49.7,15916],[49.7,15994],[49.7,16077],[49.7,16166],[49.9,16244],[50,16327],[50,16416],[50,16494]]",0,5,5,5,1,"Lucy decided to confront the mayor after his ceremony. But when she tried to accuse him, the security guards threatened to hurt her if she went to the police with her theory. Before she could say another word a man pulled her from the crowd.","In a rush, the police officer broke down the door and was attacked by a man in the house. Without hesitation, the officer shot the man and the man fell to the floor.","He then saw Marta's brother Zach enter the hospital. Zach ran over to Luke and punched him. Zach screamed at Luke that it's his fault his sister is dead and that he knew about the affair. Luke quickly tried to explain that he felt horrible about Marta's death and that Carly had manipulated him into going along with her plan. Zach, still angry at his brother-in-law, realized his mistake in judgement and shifted his anger toward Carly.","They decided to have Dan invite her to the hotel room under the guise of a romantic date. Once she arrived, Nicole was there to tie her up. Once she was secured to a chair, Nicole demanded Amy's bank passwords. Amy obliged and gave her access to her bank accounts.",,,,,,,,,,
,,,,,,66318eecf4b2dd2836d910d8,2024-05-13_08h30.50.719,group3.1-3.2-social-tom,2023.2.2,Win32,60.24096386,65c5074098b851296ff0b7ed,6642321feed2cd5eea14b3fd,,,,,,,,,,,,,,,,,,,,,,,,,,,,,1431.1597,1,audio/Narrative8Situation9.wav,1434.1639,,,,,,,1450.7099,1455.6031,100,3.1092,"[{""rating"":99.58333333333333,""responseTime"":2.109300000071471},{""rating"":100,""responseTime"":3.109200000047622}]",space,4.353,,1450.7028,Not at all,0,1450.7099,,,[],,,,,,,,,,,3,1,1,2,,,,,,,,,,,,,,,,,1434.164,3,1450.7027,"[[999,0],[999,83],[999,172],[999,249],[999,339],[999,416],[999,499],[999,590],[999,669],[999,754],[999,833],[999,922],[999,1005],[999,1083],[999,1166],[999,1249],[999,1333],[999,1421],[999,1499],[999,1589],[999,1674],[999,1753],[0.6,2172],[0.6,2255],[0.6,2333],[0.6,2422],[0.6,2505],[0.3,2589],[0.2,2666],[2.1,6255],[6,6339],[13.3,6422],[19,6505],[29.2,6589],[35.3,6672],[43.2,7255],[43.2,7332],[43.2,7422],[43.3,7500],[43.6,7589],[44.8,7672],[46.5,7755],[47.9,7838],[50.2,7922],[53.5,8006],[57.6,8089],[61.4,8172],[65.4,8255],[69.4,8339],[72.4,8422],[75,8505],[78.2,8589],[80,8672],[80.4,8755],[80.5,8838],[80.5,8922],[80.5,9005],[80.5,9082],[80.7,9166],[85.6,9255],[88,9339],[89.7,9422],[91.1,9505],[93,9589],[94.8,9673],[95.9,9755],[97.3,9838],[98.5,9922],[100,10006],[100,10089],[100,10166],[100,10255],[100,10332],[100,10423],[100,10505],[100,10588],[100,10666],[100,10749],[100,10838],[100,10921],[100,11005],[100,11086],[100,11171],[100,11254],[100,11332],[100,11423],[100,11499],[100,11588],[100,11672],[100,11749],[100,11837],[100,11922],[100,11999],[100,12083],[100,12171],[100,12249],[100,12333],[100,12422],[100,12499],[100,12582],[100,12671],[100,12755],[100,12838],[100,12922],[100,12999],[100,13088],[100,13172],[100,13254],[100,13339],[100,13416],[100,13505],[100,13590],[100,13673],[100,13749],[100,13833],[100,13916],[100,14005],[100,14083],[100,14166],[100,14249],[100,14332],[100,14416],[100,14505],[100,14582],[100,14666],[100,14749],[100,14838],[100,14916],[100,15004],[100,15088],[100,15171],[100,15255],[100,15332],[100,15422],[100,15505],[100,15582],[100,15671],[100,15749],[100,15833],[100,15921],[100,16005],[100,16088],[100,16172],[100,16249],[100,16339],[100,16422],[100,16499]]",0,6,6,6,1,"The man in question was another security guard of Mayor Smith's, who took Lucy into a hidden alleyway. His name was Max and he quickly explained that he was a part of the initial plot to kill the former Mayor but he regretted his involvement.","The officer rushed to the basement, untied Margaret, and took her to safety.After being notified of the situation, Al rushed to meet Margaret as to not raise any suspicion. When he arrived, he saw Margaret pointing and yelling at Susan who had been handcuffed and was talking to the police. Shortly after, the police took Susan away in a police car. Al was devastated to see her being taken away, as Margaret sneered with disdain.","After the tension with Zach cooled down, Luke thought of when he should call his son and inform him of his mother's passing. He would be out of school any minute and should hear the news from him. Luke reflected on his decision and realized it was necessary to sacrifice his wife to ensure their child's safety, and that Marta had told him to above all else to protect him.",Nicole transferred all of Amy's money into Dan's bank account despite Amy's pleading for her to stop.,,,,,,,,,,
