exp_question,consent.started,consent.stopped,consentResponse.keys,consentResponse.rt,consentResponse.duration,participantID,date,expName,psychopyVersion,OS,frameRate,STUDY_ID,SESSION_ID,opening1.started,opening1.stopped,keyEndingOpening1.keys,keyEndingOpening1.rt,keyEndingOpening1.duration,volumeAdjust.started,volumeAdjust.stopped,endingAdjust.keys,endingAdjust.rt,endingAdjust.duration,opening2.started,opening2.stopped,keyEndingOpening.keys,keyEndingOpening.rt,keyEndingOpening.duration,mouse.x,mouse.y,mouse.leftButton,mouse.midButton,mouse.rightButton,mouse.time,instructionLoop.thisRepN,instructionLoop.thisTrialN,instructionLoop.thisN,instructionLoop.thisIndex,instructionLoop.ran,readyForAudio.started,readyForAudio.stopped,fixation.started,run,audio_played,fixation.stopped,endPractice.keys,audioPre.started,audioPre.stopped,continuousResponses_audio,continuousSlider.response,continuousSlider.rt,intRating.started,intRating.stopped,intQuestionSlider.response,intQuestionSlider.rt,intQuestionSlider.history,confirmResponse.keys,confirmResponse.rt,confirmResponse.duration,catchQuestion.started,catch_label,catch_value,catchQuestion.stopped,catchQuestionSlider.response,catchQuestionSlider.rt,catchQuestionSlider.history,confirmResponse_2.keys,audioRunLoop.thisRepN,audioRunLoop.thisTrialN,audioRunLoop.thisN,audioRunLoop.thisIndex,audioRunLoop.ran,conditions1_1,conditions2_1,conditions1_2,conditions2_2,dur1_1,dur2_1,dur1_2,dur2_2,endPractice.rt,endPractice.duration,confirmResponse_2.rt,confirmResponse_2.duration,runIntervalBreak.started,runIntervalBreak.stopped,endingBreakKey.keys,endingBreakKey.rt,endingBreakKey.duration,connection.started,connection.stopped,connectionEnding.keys,connectionEnding.rt,connectionEnding.duration,readyForText.started,readyForText.stopped,textPre.started,run_dup,textPre.stopped,continuousResponses_text,textRunLoop.thisRepN,textRunLoop.thisTrialN,textRunLoop.thisN,textRunLoop.thisIndex,textRunLoop.ran,text1_1,text1_2,text2_1,text2_2,runBreakText.started,runBreakText.stopped,endingBreakKey_2.keys,endingBreakKey_2.rt,endingBreakKey_2.duration,ending.started,ending.stopped,endingEnding.keys,endingEnding.rt,endingEnding.duration
tom,0.0006,10.5698,y,10.2058,0.0036,66341ea0271d271dc78c8283,2024-05-13_10h53.39.838,group3.1-3.2-social-tom,2023.2.2,Win32,29.99310159,65c5074098b851296ff0b7ed,6642361cdf278957a48be864,,,,,,,,,,,,,,,,,,,,,,,,,,,,,,,,,,,,,,,,,,,,,,,,,,,,,,,,,,,,,,,,,,,,,,,,,,,,,,,,,,,,,,,,,,,,,,,,,,,,,,,,,,
,,,,,,66341ea0271d271dc78c8283,2024-05-13_10h53.39.838,group3.1-3.2-social-tom,2023.2.2,Win32,29.99310159,65c5074098b851296ff0b7ed,6642361cdf278957a48be864,10.5727,19.7218,space,8.979,,,,,,,,,,,,,,,,,,,,,,,,,,,,,,,,,,,,,,,,,,,,,,,,,,,,,,,,,,,,,,,,,,,,,,,,,,,,,,,,,,,,,,,,,,,,,,,,,,,,,,
,,,,,,66341ea0271d271dc78c8283,2024-05-13_10h53.39.838,group3.1-3.2-social-tom,2023.2.2,Win32,29.99310159,65c5074098b851296ff0b7ed,6642361cdf278957a48be864,,,,,,19.7236,33.1749,space,13.1133,,,,,,,,,,,,,,,,,,,,,,,,,,,,,,,,,,,,,,,,,,,,,,,,,,,,,,,,,,,,,,,,,,,,,,,,,,,,,,,,,,,,,,,,,,,,,,,,,
,,,,,,66341ea0271d271dc78c8283,2024-05-13_10h53.39.838,group3.1-3.2-social-tom,2023.2.2,Win32,29.99310159,65c5074098b851296ff0b7ed,6642361cdf278957a48be864,,,,,,,,,,,33.2583,498.1114,space,464.8038,,[],[],[],[],[],[],0,0,0,0,1,,,,,,,,,,,,,,,,,,,,,,,,,,,,,,,,,,,,,,,,,,,,,,,,,,,,,,,,,,,,,,,,,,,,,,,,,,,,,,,,
,,,,,,66341ea0271d271dc78c8283,2024-05-13_10h53.39.838,group3.1-3.2-social-tom,2023.2.2,Win32,29.99310159,65c5074098b851296ff0b7ed,6642361cdf278957a48be864,,,,,,,,,,,498.1675,518.4264,space,20.0195,,[],[],[],[],[],[],1,0,1,0,1,,,,,,,,,,,,,,,,,,,,,,,,,,,,,,,,,,,,,,,,,,,,,,,,,,,,,,,,,,,,,,,,,,,,,,,,,,,,,,,,
,,,,,,66341ea0271d271dc78c8283,2024-05-13_10h53.39.838,group3.1-3.2-social-tom,2023.2.2,Win32,29.99310159,65c5074098b851296ff0b7ed,6642361cdf278957a48be864,,,,,,,,,,,518.4868,538.2339,space,19.6032,,[],[],[],[],[],[],2,0,2,0,1,,,,,,,,,,,,,,,,,,,,,,,,,,,,,,,,,,,,,,,,,,,,,,,,,,,,,,,,,,,,,,,,,,,,,,,,,,,,,,,,
,,,,,,66341ea0271d271dc78c8283,2024-05-13_10h53.39.838,group3.1-3.2-social-tom,2023.2.2,Win32,29.99310159,65c5074098b851296ff0b7ed,6642361cdf278957a48be864,,,,,,,,,,,538.2864,578.09,space,39.7482,,[],[],[],[],[],[],3,0,3,0,1,,,,,,,,,,,,,,,,,,,,,,,,,,,,,,,,,,,,,,,,,,,,,,,,,,,,,,,,,,,,,,,,,,,,,,,,,,,,,,,,
,,,,,,66341ea0271d271dc78c8283,2024-05-13_10h53.39.838,group3.1-3.2-social-tom,2023.2.2,Win32,29.99310159,65c5074098b851296ff0b7ed,6642361cdf278957a48be864,,,,,,,,,,,578.146,592.2425,space,14.0122,,[],[],[],[],[],[],4,0,4,0,1,,,,,,,,,,,,,,,,,,,,,,,,,,,,,,,,,,,,,,,,,,,,,,,,,,,,,,,,,,,,,,,,,,,,,,,,,,,,,,,,
,,,,,,66341ea0271d271dc78c8283,2024-05-13_10h53.39.838,group3.1-3.2-social-tom,2023.2.2,Win32,29.99310159,65c5074098b851296ff0b7ed,6642361cdf278957a48be864,,,,,,,,,,,,,,,,,,,,,,,,,,,592.3183,594.9104,595.044,1,audio/Narrative13Situation2.wav,597.0638,,597.0656,626.8557,"[[999,14],[999,350],[999,390],[999,441],[999,493],[999,546],[999,594],[999,647],[999,702],[999,758],[999,806],[999,858],[999,918],[999,980],[999,1032],[999,1092],[999,1154],[999,1205],[999,1258],[999,1310],[999,1372],[999,1429],[999,1492],[999,1546],[999,1601],[999,1653],[999,1708],[999,1760],[999,1817],[999,1870],[999,1923],[999,1975],[999,2027],[999,2084],[999,2142],[999,2193],[999,2251],[999,2312],[65.6,2367],[62,2461],[62,2516],[62,2570],[62,2626],[62,2678],[62,2735],[62,2791],[62,2839],[62,2897],[62,2952],[62,3007],[62,3063],[62,3119],[62,3172],[61.5,3238],[60.9,3298],[56.5,3365],[55,3429],[54.6,3487],[51.5,3551],[50.3,3612],[50.3,3668],[50.3,3724],[50.3,3778],[50.3,3832],[50.3,3887],[50.3,3939],[50.3,3997],[50.3,4058],[50.3,4108],[50.3,4164],[50.3,4220],[50.3,4275],[50.3,4326],[50.3,4385],[50.3,4440],[50.3,4495],[50.3,4549],[50.3,4609],[50.3,4659],[50.3,4714],[50.3,4772],[50.3,4824],[50.3,4874],[50.3,4924],[50.3,4978],[50.3,5029],[50.3,5084],[50.3,5141],[50.3,5191],[50.3,5248],[50.3,5304],[50.3,5359],[50.3,5416],[50.3,5470],[50.3,5523],[50.3,5579],[50.3,5636],[50.3,5689],[50.3,5739],[50.3,5796],[50.3,5853],[50.3,5907],[50.3,5961],[50.3,6020],[50.3,6072],[50.3,6122],[50.3,6175],[50.3,6227],[50.3,6283],[50.3,6339],[50.3,6393],[50.3,6448],[50.3,6508],[50.3,6559],[50.3,6616],[50.3,6672],[50.3,6726],[50.3,6785],[50.3,6841],[50.3,6893],[50.3,6951],[50.3,7007],[50.3,7059],[50.3,7118],[50.3,7173],[50.3,7227],[50.3,7282],[50.3,7338],[50.3,7393],[50.3,7446],[50.3,7506],[50.3,7573],[50.3,7624],[50.3,7677],[50.3,7730],[50.3,7786],[50.3,7839],[50.3,7893],[50.3,7942],[50.3,7995],[50.3,8045],[50.3,8099],[50.3,8156],[50.3,8207],[50.3,8264],[50.3,8321],[50.3,8373],[50.3,8428],[50.3,8485],[50.3,8539],[50.3,8591],[50.3,8648],[50.3,8704],[50.3,8757],[50.3,8810],[50.3,8865],[50.3,8924],[50.3,8974],[50.3,9030],[50.3,9090],[50.3,9140],[50.3,9197],[50.3,9258],[50.3,9310],[50.3,9365],[50.3,9423],[50.3,9477],[50.3,9531],[50.3,9588],[50.3,9641],[50.3,9692],[50.3,9749],[50.3,9806],[50.3,9860],[50.3,9915],[50.3,9972],[50.3,10026],[50.3,10081],[50.3,10140],[50.3,10193],[50.3,10248],[50.3,10301],[50.3,10358],[50.3,10410],[50.3,10471],[50.3,10526],[50.3,10577],[50.5,10638],[51.8,10734],[52.2,10788],[52.6,10849],[53.3,10917],[53.3,10975],[54,11033],[54.6,11100],[56.1,11163],[56.9,11219],[58.8,11278],[62,11344],[63.5,11408],[63.6,11462],[65,11528],[69.5,11596],[70.2,11649],[70.2,11706],[70.2,11759],[70.2,11812],[70.2,11867],[70.2,11924],[70.2,11976],[70.2,12033],[70.4,12092],[73,12155],[76.3,12213],[76.3,12266],[76.3,12322],[76.3,12377],[76.3,12431],[76.3,12484],[76.3,12541],[76.3,12593],[76.3,12645],[76.3,12693],[76.3,12749],[76.3,12803],[76.3,12858],[76.3,12912],[76.3,12968],[76.3,13023],[76.3,13075],[76.3,13137],[76.3,13188],[76.3,13240],[76.3,13297],[76.3,13354],[76.3,13407],[76.3,13459],[76.3,13508],[76.3,13565],[76.3,13624],[76.3,13676],[76.3,13733],[76.3,13788],[76.3,13840],[76.3,13890],[76.3,13945],[76.3,14001],[76.3,14051],[76.3,14105],[76.3,14169],[76.3,14225],[76.3,14274],[76.3,14329],[76.3,14385],[76.3,14442],[76.3,14493],[76.3,14551],[76.3,14608],[76.3,14660],[76.3,14710],[76.3,14765],[76.3,14821],[76.3,14871],[76.3,14923],[76.3,14980],[76.3,15037],[76.3,15090],[76.3,15142],[76.3,15197],[76.3,15254],[76.3,15307],[76.3,15365],[76.3,15421],[76.3,15473],[76.3,15529],[76.3,15586],[76.3,15641],[76.3,15695],[76.3,15752],[76.3,15809],[76.3,15860],[76.3,15919],[76.3,15975],[76.3,16027],[76.3,16084],[76.3,16142],[76.3,16193],[76.3,16251],[76.3,16307],[76.3,16359],[76.3,16416],[76.3,16472],[76.3,16527],[76.3,16582],[76.3,16635],[76.3,16691],[76.3,16743],[76.3,16800],[76.3,16854],[76.3,16908],[76.3,16959],[76.3,17017],[76.3,17073],[76.3,17125],[76.3,17184],[76.3,17241],[76.3,17292],[76.3,17345],[76.3,17405],[76.3,17457],[76.3,17516],[76.3,17575],[76.3,17627],[76.3,17686],[76.3,17736],[76.3,17790],[76.3,17840],[76.3,17898],[76.3,17944],[76.3,17997],[76.3,18056],[76.3,18110],[76.3,18166],[76.3,18222],[76.3,18276],[76.3,18330],[76.3,18384],[76.3,18440],[76.3,18491],[76.3,18548],[76.3,18598],[76.3,18654],[76.3,18708],[76.3,18762],[76.3,18821],[76.3,18876],[76.3,18932],[75.6,19075],[74.4,19130],[73,19194],[72.9,19250],[71.7,19316],[70.3,19381],[70,19444],[69.4,19504],[68.9,19567],[67.3,19629],[67,19684],[65.9,19751],[65.7,19805],[65.3,19864],[64.1,19925],[64.1,19976],[64.1,20031],[63.9,20090],[62.8,20150],[62.6,20208],[62.2,20271],[62.2,20326],[62.2,20382],[62.2,20437],[62.2,20487],[62,20543],[60.6,20612],[60.6,20667],[60.6,20724],[60.6,20777],[59.9,20841],[59.5,20893],[59.1,20955],[59,21008],[58.3,21059],[57,21117],[56,21179],[54.1,21239],[52.4,21296],[50.6,21353],[47.1,21419],[46.8,21475],[46.3,21537],[46,21594],[46,21652],[46,21707],[46,21763],[46,21820],[46,21873],[46,21927],[46,21985],[46,22039],[46,22090],[46,22149],[46,22205],[46,22256],[46,22317],[46,22371],[46,22424],[46,22481],[46,22537],[46,22589],[46,22645],[46,22705],[46,22757],[46,22815],[46,22874],[46,22922],[46,22981],[46,23036],[46,23092],[46,23145],[46,23201],[46,23258],[46,23309],[46,23367],[47,23434],[49.1,23498],[51.5,23558],[54.2,23616],[58,23676],[60.4,23738],[62.9,23795],[65.6,23864],[67,23928],[67.7,23990],[68.8,24054],[68.9,24109],[70.2,24174],[70.2,24224],[70.2,24273],[70.5,24336],[71.1,24397],[71.7,24458],[71.7,24513],[71.8,24572],[72.3,24634],[72.7,24692],[73,24754],[73.4,24816],[73.5,24875],[74.3,24938],[74.5,24993],[75.1,25057],[75.2,25114],[75.5,25173],[76.3,25233],[76.4,25286],[76.4,25340],[76.4,25395],[76.4,25448],[76.4,25505],[76.4,25557],[76.4,25616],[76.4,25674],[76.4,25722],[76.4,25780],[76.4,25835],[76.4,25888],[76.4,25943],[76.4,25995],[76.4,26044],[76.4,26098],[76.4,26156],[76.4,26210],[76.4,26264],[76.4,26318],[76.4,26375],[76.4,26423],[76.4,26485],[76.4,26542],[76.4,26592],[76.4,26644],[76.4,26696],[76.6,26757],[77.2,26816],[77.7,26872],[77.9,26935],[77.9,26984],[77.9,27033],[77.9,27089],[77.9,27142],[77.9,27197],[77.9,27252],[77.9,27307],[78.1,27359],[78.8,27414],[78.8,27470],[78.8,27527],[78.8,27591],[78.8,27650],[78.8,27704],[78.8,27756],[78.8,27807],[78.8,27855],[78.8,27905],[78.8,27966],[78.8,28022],[78.8,28079],[78.8,28129],[78.8,28186],[78.8,28235],[78.9,28286],[78.9,28338],[78.9,28396],[78.9,28447],[78.9,28500],[78.9,28551],[78.9,28603],[78.9,28655],[78.9,28705],[78.9,28757],[78.9,28813],[78.9,28865],[78.9,28916],[78.9,28968],[78.9,29019],[78.9,29070],[78.9,29121],[78.9,29170],[78.9,29220],[78.9,29270],[78.9,29320],[78.9,29372],[78.9,29429],[78.9,29487],[78.9,29538],[78.9,29596],[78.9,29652],[78.9,29702],[78.9,29758]]",1,0,626.86,639.1185,76.875,6.698,"[{""rating"":76.875,""responseTime"":6.697999999999979}]",space,11.6822,,639.1779,Not at all,0,639.1986,,,[],,0,0,0,0,1,audio/Narrative13Situation2.wav,audio/Narrative13Situation2.wav,audio/Narrative13Situation2.wav,audio/Narrative13Situation2.wav,2,2,2,2,,,,,,,,,,,,,,,,,,,,,,,,,,,,,,,,,,,,,,,
,,,,,,66341ea0271d271dc78c8283,2024-05-13_10h53.39.838,group3.1-3.2-social-tom,2023.2.2,Win32,29.99310159,65c5074098b851296ff0b7ed,6642361cdf278957a48be864,,,,,,,,,,,,,,,,,,,,,,,,,,,,,639.1995,1,audio/Narrative8Situation1.wav,643.6398,space,643.6403,659.6038,"[[999,54],[999,141],[999,190],[999,246],[999,302],[999,356],[999,411],[999,467],[999,518],[999,579],[999,635],[999,690],[999,743],[999,801],[999,852],[999,912],[999,970],[999,1030],[999,1085],[999,1132],[999,1189],[999,1238],[999,1288],[999,1344],[999,1397],[999,1449],[999,1505],[999,1562],[999,1614],[999,1672],[999,1730],[999,1784],[999,1837],[999,1894],[999,1950],[999,2001],[999,2056],[999,2116],[999,2173],[999,2223],[999,2285],[999,2342],[999,2402],[999,2456],[999,2516],[999,2571],[999,2627],[77.7,2688],[77.7,2735],[77.7,2790],[77.3,2852],[77.3,2911],[77.3,2964],[77.3,3016],[77.3,3073],[77.3,3131],[77.3,3182],[77.3,3240],[77.3,3296],[77.3,3348],[77.3,3406],[77.3,3461],[77.3,3515],[77.3,3568],[77.3,3623],[71.4,3696],[61,3752],[56.5,3810],[54,3874],[53.8,3933],[53.8,3982],[53.8,4041],[53.8,4094],[53.8,4149],[53.8,4203],[53.8,4255],[53.8,4307],[53.8,4364],[53.8,4416],[53.8,4473],[53.8,4529],[53.8,4582],[53.8,4639],[53.8,4696],[53.8,4748],[53.8,4803],[53.8,4861],[53.8,4915],[53.8,4970],[53.8,5029],[53.8,5083],[53.8,5136],[53.8,5193],[53.8,5252],[53.8,5303],[53.8,5357],[53.8,5417],[53.8,5467],[53.8,5525],[53.8,5583],[53.8,5635],[53.8,5692],[53.8,5748],[53.8,5801],[53.8,5858],[53.8,5915],[53.8,5967],[53.8,6026],[53.8,6082],[53.8,6133],[53.8,6192],[53.8,6248],[53.8,6301],[53.8,6358],[53.8,6414],[53.8,6469],[53.8,6525],[53.8,6582],[53.8,6633],[53.8,6691],[53.8,6746],[53.8,6801],[53.8,6852],[53.8,6909],[53.8,6965],[53.8,7016],[53.8,7073],[53.8,7128],[53.8,7184],[53.8,7242],[53.8,7297],[53.8,7352],[52.4,7415],[48.4,7477],[44.5,7542],[44.5,7596],[44.3,7654],[43.9,7715],[40.5,7777],[34.2,7837],[29.8,7895],[29.7,7950],[29.7,8007],[29.7,8064],[29.7,8115],[28.3,8184],[24.7,8247],[23.2,8298],[23.2,8351],[23.2,8408],[23.2,8463],[22.8,8523],[22.5,8584],[22.5,8639],[22.5,8689],[22.5,8745],[22.5,8797],[22.5,8855],[22.5,8911],[22.5,8966],[22.5,9020],[22.5,9076],[22.5,9133],[22.5,9183],[22.5,9240],[22.5,9296],[22.5,9347],[22.5,9403],[22.5,9461],[22.5,9515],[22.5,9568],[22.5,9631],[22.5,9683],[22.5,9731],[22.5,9786],[22.5,9840],[22.5,9900],[22.5,9951],[22.5,10004],[22.5,10065],[22.5,10119],[22.5,10176],[22.5,10232],[22.5,10283],[22.5,10341],[22.5,10397],[22.5,10452],[22.5,10505],[22.5,10560],[22.5,10616],[22.5,10669],[22.5,10726],[22.5,10782],[22.5,10836],[22.5,10892],[22.5,10950],[22.5,10994],[22.5,11060],[22.5,11116],[22.5,11166],[22.5,11214],[22.5,11264],[22.5,11313],[22.5,11365],[22.5,11422],[22.5,11478],[22.5,11533],[22.5,11587],[22.5,11643],[22.5,11697],[22.5,11749],[22.5,11808],[22.5,11861],[22.5,11914],[22.5,11965],[22.5,12025],[22.5,12082],[22.5,12135],[22.5,12191],[22.5,12242],[22.5,12297],[22.5,12351],[22.5,12402],[22.5,12459],[22.5,12515],[22.5,12570],[22.5,12623],[22.5,12681],[22.5,12735],[22.5,12788],[22.5,12847],[22.5,12900],[22.5,12952],[22.5,13002],[22.5,13056],[22.5,13112],[22.5,13169],[22.5,13223],[22.5,13280],[22.5,13331],[22.5,13387],[22.5,13444],[22.5,13499],[22.5,13552],[22.5,13610],[22.5,13661],[22.5,13710],[22.5,13765],[22.5,13819],[22.5,13874],[22.5,13922],[22.5,13976],[22.5,14032],[22.5,14085],[22.5,14140],[22.5,14196],[22.5,14252],[22.5,14302],[22.5,14359],[22.5,14415],[22.5,14468],[22.5,14523],[22.5,14581],[22.5,14634],[22.5,14689],[22.5,14743],[22.5,14798],[22.5,14847],[22.5,14904],[22.5,14960],[22.5,15014],[22.5,15065],[22.5,15122],[22.5,15179],[22.5,15231],[22.5,15287],[22.5,15343],[22.5,15398],[22.5,15449],[22.5,15506],[22.5,15562],[22.5,15614],[22.5,15672],[22.5,15728],[22.5,15781],[22.5,15834]]",1,0,659.605,664.515,50.10416667,2.5764,"[{""rating"":50.10416666666667,""responseTime"":2.5763999999984435}]",space,4.3559,,664.5157,All the time,100,664.5506,,,[],,0,1,1,1,1,audio/Narrative7Situation1.wav,audio/Narrative8Situation1.wav,audio/Narrative5Situation1.wav,audio/Narrative6Situation1.wav,2,5,5,2,4.4033,,,,,,,,,,,,,,,,,,,,,,,,,,,,,,,,,,,,,,
,,,,,,66341ea0271d271dc78c8283,2024-05-13_10h53.39.838,group3.1-3.2-social-tom,2023.2.2,Win32,29.99310159,65c5074098b851296ff0b7ed,6642361cdf278957a48be864,,,,,,,,,,,,,,,,,,,,,,,,,,,,,664.5526,1,audio/Narrative8Situation2.wav,667.5573,,667.5576,677.6937,"[[999,3],[999,83],[999,133],[999,200],[999,259],[999,314],[999,366],[999,424],[999,479],[999,534],[999,583],[999,642],[999,698],[999,749],[999,802],[999,860],[999,918],[999,971],[999,1029],[999,1080],[999,1132],[999,1179],[999,1231],[999,1291],[999,1345],[999,1397],[999,1454],[999,1509],[999,1564],[999,1614],[999,1672],[999,1727],[999,1783],[999,1834],[999,1888],[999,1945],[999,1997],[999,2059],[999,2113],[999,2171],[999,2245],[999,2309],[999,2368],[999,2425],[999,2470],[999,2527],[999,2579],[999,2631],[999,2686],[999,2740],[999,2798],[999,2846],[999,2903],[999,2959],[999,3013],[999,3064],[999,3122],[999,3176],[999,3228],[999,3281],[999,3337],[999,3393],[999,3447],[999,3501],[999,3555],[999,3609],[999,3672],[999,3728],[999,3764],[999,3833],[999,3884],[999,3940],[999,3996],[999,4050],[999,4101],[999,4158],[999,4214],[999,4268],[999,4323],[999,4373],[999,4431],[999,4481],[999,4538],[999,4594],[999,4649],[999,4705],[999,4761],[999,4815],[999,4865],[999,4922],[999,4979],[999,5030],[999,5086],[999,5143],[999,5197],[999,5262],[999,5312],[999,5365],[999,5418],[999,5475],[999,5528],[999,5580],[999,5637],[999,5693],[999,5747],[999,5802],[999,5856],[999,5915],[999,5969],[999,6022],[999,6076],[999,6132],[999,6183],[999,6240],[999,6297],[999,6350],[999,6401],[999,6459],[999,6514],[999,6568],[999,6622],[999,6678],[999,6730],[999,6780],[999,6835],[999,6888],[999,6945],[999,6998],[999,7058],[999,7116],[999,7182],[999,7225],[999,7297],[999,7349],[999,7396],[999,7447],[999,7497],[999,7555],[999,7611],[999,7666],[999,7719],[999,7776],[999,7829],[999,7881],[999,7937],[999,7993],[999,8060],[999,8114],[999,8163],[999,8215],[999,8271],[999,8328],[999,8381],[999,8435],[999,8491],[999,8536],[999,8600],[999,8659],[999,8716],[999,8767],[999,8822],[999,8870],[999,8908],[999,8983],[999,9040],[999,9085],[999,9150],[999,9209],[999,9264],[999,9316],[999,9375],[999,9429],[999,9483],[999,9535],[999,9590],[999,9648],[999,9698],[999,9748],[999,9804],[999,9861],[999,9915],[999,9974],[999,10027],[999,10082],[999,10134]]",1,0,677.6961,683.3928,73.95833333,3.4888,"[{""rating"":82.39583333333333,""responseTime"":1.3940000000000055},{""rating"":73.95833333333334,""responseTime"":3.4887999999988324}]",space,5.1222,,683.3936,Half the time,50,683.4202,,,[],,0,2,2,2,1,audio/Narrative7Situation2.wav,audio/Narrative8Situation2.wav,audio/Narrative5Situation2.wav,audio/Narrative6Situation2.wav,3,3,3,3,,,,,,,,,,,,,,,,,,,,,,,,,,,,,,,,,,,,,,,
,,,,,,66341ea0271d271dc78c8283,2024-05-13_10h53.39.838,group3.1-3.2-social-tom,2023.2.2,Win32,29.99310159,65c5074098b851296ff0b7ed,6642361cdf278957a48be864,,,,,,,,,,,,,,,,,,,,,,,,,,,,,683.4217,1,audio/Narrative8Situation3.wav,687.4275,,687.4277,709.8395,"[[999,68],[999,142],[999,195],[999,244],[999,301],[999,357],[999,412],[999,465],[999,522],[999,575],[999,637],[999,693],[999,753],[999,810],[999,860],[999,917],[999,977],[999,1018],[999,1076],[999,1126],[999,1185],[999,1240],[999,1290],[999,1341],[999,1401],[999,1449],[999,1509],[999,1564],[999,1614],[999,1670],[999,1715],[999,1781],[999,1836],[999,1889],[999,1944],[999,1995],[999,2052],[999,2105],[999,2159],[999,2209],[999,2259],[999,2310],[999,2366],[999,2423],[999,2478],[999,2531],[999,2580],[999,2631],[999,2686],[999,2745],[999,2797],[999,2849],[999,2906],[999,2959],[999,3002],[999,3054],[999,3113],[999,3168],[999,3222],[999,3277],[999,3326],[999,3389],[999,3446],[999,3494],[999,3552],[999,3609],[999,3650],[999,3710],[999,3766],[999,3824],[999,3878],[999,3928],[999,3983],[999,4033],[999,4082],[999,4138],[999,4194],[999,4247],[999,4300],[999,4347],[999,4414],[999,4470],[999,4515],[999,4580],[999,4628],[999,4695],[999,4745],[999,4806],[999,4863],[999,4914],[999,4971],[999,5015],[999,5079],[999,5136],[999,5191],[999,5245],[999,5298],[999,5355],[999,5412],[999,5467],[999,5530],[999,5580],[999,5636],[999,5689],[999,5744],[999,5796],[999,5851],[999,5897],[999,5951],[999,6007],[999,6068],[999,6124],[999,6188],[999,6244],[999,6284],[999,6338],[999,6390],[999,6444],[999,6496],[999,6554],[999,6610],[999,6663],[999,6719],[999,6775],[999,6827],[999,6883],[999,6936],[999,6995],[999,7037],[66.3,7103],[70.9,7226],[73,7283],[75.4,7343],[77.5,7397],[80.3,7456],[81.9,7512],[81.9,7561],[81.9,7611],[81.9,7668],[82.8,7736],[84.1,7795],[85.1,7847],[85.1,7906],[85.1,7960],[85.1,8011],[85.1,8067],[85.1,8124],[85.1,8178],[85.1,8226],[85.1,8280],[85.1,8336],[85.1,8394],[85.1,8446],[85.1,8494],[85.1,8548],[85.1,8605],[85.1,8662],[85.1,8714],[85.1,8771],[85.1,8827],[85.1,8879],[85.1,8936],[85.1,8989],[85.1,9045],[85.1,9094],[85.1,9150],[85.1,9207],[85.4,9269],[86.7,9337],[87.2,9396],[87.4,9457],[87.8,9511],[89.6,9563],[89.6,9618],[89.6,9673],[89.6,9728],[89.8,9786],[89.8,9842],[89.8,9895],[89.8,9946],[89.8,10004],[89.8,10059],[89.8,10113],[89.8,10164],[89.8,10220],[89.8,10276],[89.8,10326],[89.8,10378],[89.8,10435],[89.8,10491],[89.8,10545],[89.8,10597],[89.8,10655],[89.8,10710],[89.8,10760],[89.8,10818],[89.8,10874],[89.8,10929],[89.8,10981],[89.8,11038],[89.8,11086],[89.8,11145],[89.8,11193],[89.8,11251],[89.8,11310],[89.8,11364],[89.8,11416],[89.8,11464],[89.8,11519],[89.8,11572],[89.8,11628],[89.8,11679],[89.8,11736],[89.8,11795],[89.8,11849],[89.8,11904],[89.8,11958],[89.8,12012],[89.8,12061],[89.8,12118],[89.8,12174],[89.8,12228],[89.8,12281],[89.8,12335],[89.8,12393],[89.8,12443],[89.8,12504],[89.8,12556],[89.8,12609],[89.8,12661],[89.8,12718],[89.8,12774],[89.8,12829],[89.8,12881],[89.8,12936],[89.8,12991],[89.8,13046],[89.8,13099],[89.8,13156],[89.8,13211],[89.8,13263],[89.8,13324],[89.8,13377],[89.8,13429],[89.8,13487],[89.8,13539],[89.8,13594],[89.8,13646],[89.8,13704],[89.8,13759],[89.8,13813],[89.8,13870],[89.8,13925],[89.8,13980],[89.8,14031],[89.8,14087],[89.8,14143],[89.8,14196],[89.8,14244],[89.8,14301],[89.8,14357],[89.8,14412],[89.8,14466],[89.8,14522],[89.8,14576],[89.8,14627],[89.8,14683],[89.8,14736],[89.8,14795],[89.8,14845],[89.8,14902],[89.8,14958],[89.8,15011],[89.8,15069],[89.8,15125],[89.8,15179],[89.8,15233],[89.8,15290],[89.8,15343],[89.8,15395],[89.8,15454],[89.8,15505],[89.8,15562],[89.8,15613],[89.8,15669],[89.8,15723],[89.8,15778],[89.8,15832],[89.8,15886],[89.8,15943],[89.8,15995],[89.8,16045],[89.8,16100],[89.8,16148],[89.8,16203],[89.8,16258],[89.8,16311],[89.8,16362],[89.8,16413],[89.8,16466],[89.8,16525],[89.8,16578],[89.8,16632],[89.8,16688],[89.8,16744],[89.8,16794],[89.8,16850],[89.8,16904],[89.8,16960],[89.8,17014],[89.8,17076],[89.8,17130],[89.8,17192],[89.8,17240],[89.8,17292],[89.8,17347],[89.8,17405],[89.8,17456],[89.8,17513],[89.8,17557],[89.8,17626],[89.8,17679],[89.8,17729],[89.8,17789],[89.8,17845],[89.8,17893],[89.8,17948],[89.8,18009],[89.8,18062],[89.8,18114],[89.8,18165],[89.8,18218],[89.8,18277],[89.8,18327],[89.8,18379],[89.8,18436],[89.8,18487],[89.8,18545],[89.8,18598],[89.8,18650],[89.8,18711],[89.8,18764],[89.8,18819],[89.8,18872],[89.8,18931],[89.8,18984],[89.8,19039],[89.8,19095],[89.8,19147],[89.8,19205],[89.8,19263],[89.8,19314],[89.8,19375],[89.8,19434],[89.8,19484],[89.8,19542],[89.8,19598],[89.8,19651],[89.8,19702],[89.8,19758],[89.8,19814],[89.8,19869],[89.8,19927],[89.8,19981],[89.8,20036],[89.8,20093],[89.8,20147],[89.8,20201],[89.8,20252],[89.8,20308],[89.8,20357],[89.8,20413],[89.8,20469],[89.8,20523],[89.8,20580],[89.8,20631],[89.8,20689],[89.8,20744],[89.8,20796],[89.8,20853],[89.8,20908],[89.8,20960],[89.8,21018],[89.8,21074],[89.8,21127],[89.8,21184],[89.8,21241],[89.8,21295],[89.8,21352],[89.8,21409],[89.8,21460],[89.8,21515],[89.8,21574],[89.8,21626],[89.8,21684],[89.8,21740],[89.8,21795],[89.8,21847],[89.8,21901],[89.8,21948],[89.8,22005],[89.8,22060],[89.8,22112],[89.8,22165],[89.8,22220],[89.8,22278],[89.8,22329],[89.8,22383]]",1,0,709.8406,717.02,88.54166667,2.0883,"[{""rating"":88.54166666666667,""responseTime"":2.0883000000007996}]",space,6.6267,,717.0204,All the time,100,717.0762,,,[],,0,3,3,3,1,audio/Narrative7Situation3.wav,audio/Narrative8Situation3.wav,audio/Narrative5Situation3.wav,audio/Narrative6Situation3.wav,8,4,3,5,,,,,,,,,,,,,,,,,,,,,,,,,,,,,,,,,,,,,,,
,,,,,,66341ea0271d271dc78c8283,2024-05-13_10h53.39.838,group3.1-3.2-social-tom,2023.2.2,Win32,29.99310159,65c5074098b851296ff0b7ed,6642361cdf278957a48be864,,,,,,,,,,,,,,,,,,,,,,,,,,,,,717.0771,1,audio/Narrative8Situation4.wav,720.0884,,720.0887,734.2739,"[[999,3],[999,86],[999,145],[999,183],[999,249],[999,302],[999,362],[999,414],[999,461],[999,515],[999,567],[999,624],[999,680],[999,733],[999,792],[999,848],[999,895],[999,949],[999,1000],[999,1057],[999,1114],[999,1165],[999,1222],[999,1278],[999,1336],[999,1384],[999,1442],[999,1495],[999,1552],[999,1608],[999,1664],[999,1718],[999,1769],[999,1826],[999,1879],[999,1928],[999,1972],[999,2036],[999,2088],[999,2147],[999,2197],[999,2258],[999,2313],[999,2362],[999,2413],[999,2473],[999,2521],[999,2574],[999,2630],[999,2687],[999,2738],[999,2791],[999,2851],[999,2901],[999,2957],[999,3012],[999,3067],[999,3119],[999,3178],[999,3232],[999,3286],[999,3339],[999,3398],[999,3452],[999,3507],[999,3561],[999,3617],[999,3668],[999,3728],[999,3783],[999,3836],[999,3891],[999,3944],[999,3999],[999,4054],[999,4104],[999,4163],[999,4216],[999,4274],[999,4329],[999,4381],[999,4435],[999,4490],[999,4546],[999,4601],[999,4656],[999,4706],[999,4762],[999,4814],[999,4861],[999,4911],[999,4971],[999,5025],[999,5083],[999,5136],[65.9,5231],[65.5,5291],[65.2,5354],[63.9,5415],[63.4,5475],[63.4,5527],[63.4,5584],[63.4,5635],[63.4,5694],[63.4,5750],[63.4,5801],[63.4,5858],[63.4,5911],[63.4,5968],[63.4,6018],[63.4,6076],[63.4,6133],[63.4,6186],[63.4,6240],[63.4,6294],[63.4,6349],[63.4,6403],[63.4,6453],[63.4,6504],[63.4,6558],[63.4,6617],[63.4,6666],[63.4,6724],[63.4,6780],[63.4,6834],[63.4,6887],[63.4,6941],[63.4,6996],[63.4,7050],[63.4,7103],[63.4,7161],[63.4,7215],[63.4,7267],[63.4,7319],[63.4,7375],[63.4,7432],[63.4,7484],[63.4,7535],[63.4,7593],[63.4,7646],[63.4,7701],[63.4,7759],[63.4,7811],[63.4,7866],[63.4,7919],[63.4,7970],[63.4,8024],[63.4,8080],[63.4,8132],[63.4,8188],[63.4,8247],[63.4,8298],[63.4,8350],[63.4,8405],[63.4,8463],[63.4,8516],[63.4,8567],[63.4,8624],[63.4,8681],[63.4,8732],[63.4,8790],[63.4,8845],[63.4,8900],[63.4,8950],[63.4,9006],[63.4,9066],[63.4,9121],[63.4,9175],[63.4,9228],[63.4,9284],[63.4,9335],[63.4,9394],[63.4,9449],[63.4,9499],[63.4,9553],[63.4,9609],[63.4,9660],[63.4,9717],[63.4,9769],[63.4,9826],[63.4,9881],[63.4,9935],[63.4,9983],[63.4,10040],[63.4,10096],[63.4,10148],[63.4,10204],[63.4,10262],[63.4,10315],[63.4,10366],[63.4,10424],[63.4,10483],[63.4,10530],[63.4,10583],[63.4,10637],[63.4,10690],[63.4,10743],[63.4,10797],[63.4,10851],[63.4,10902],[63.4,10958],[63.4,11014],[63.4,11068],[63.4,11118],[63.4,11172],[63.4,11240],[63.4,11288],[63.4,11341],[63.4,11396],[63.4,11451],[63.4,11500],[63.4,11553],[63.4,11607],[63.4,11663],[63.4,11717],[63.4,11773],[63.4,11828],[63.4,11883],[63.4,11933],[63.4,11994],[63.4,12046],[63.4,12100],[63.4,12155],[63.4,12212],[63.4,12266],[63.4,12322],[63.4,12375],[63.4,12432],[63.4,12483],[63.4,12536],[63.4,12591],[63.4,12650],[63.4,12703],[63.4,12757],[63.4,12813],[63.4,12868],[63.4,12919],[63.4,12976],[63.4,13032],[63.4,13087],[63.4,13146],[63.4,13196],[63.4,13251],[63.4,13302],[63.4,13352],[63.4,13401],[63.4,13458],[63.4,13514],[63.4,13566],[63.4,13622],[63.4,13678],[63.4,13733],[63.4,13783],[63.4,13841],[63.4,13897],[63.4,13950],[63.4,14002],[63.4,14056],[63.4,14102],[63.4,14154]]",1,0,734.2757,771.4171,89.0625,3.897,"[{""rating"":83.33333333333333,""responseTime"":3.1429000000003953},{""rating"":89.0625,""responseTime"":3.897000000000048}]",space,36.5676,,771.4176,All the time,100,771.4835,,,[],,0,4,4,4,1,audio/Narrative7Situation4.wav,audio/Narrative8Situation4.wav,audio/Narrative5Situation4.wav,audio/Narrative6Situation4.wav,3,3,1,2,,,,,,,,,,,,,,,,,,,,,,,,,,,,,,,,,,,,,,,
,,,,,,66341ea0271d271dc78c8283,2024-05-13_10h53.39.838,group3.1-3.2-social-tom,2023.2.2,Win32,29.99310159,65c5074098b851296ff0b7ed,6642361cdf278957a48be864,,,,,,,,,,,,,,,,,,,,,,,,,,,,,771.4847,1,audio/Narrative8Situation5.wav,773.4949,,773.4951,781.7749,"[[999,2],[999,71],[999,128],[999,178],[999,235],[999,278],[999,354],[999,403],[999,448],[999,510],[999,564],[999,619],[999,672],[999,730],[999,783],[999,838],[999,896],[999,948],[999,1005],[999,1063],[999,1120],[999,1179],[999,1239],[999,1289],[999,1360],[999,1410],[999,1459],[999,1508],[999,1555],[999,1609],[999,1670],[999,1729],[999,1787],[999,1824],[999,1890],[999,1946],[999,1996],[999,2050],[999,2107],[999,2160],[999,2217],[999,2268],[999,2325],[999,2376],[999,2432],[999,2488],[999,2542],[999,2593],[999,2650],[999,2706],[999,2761],[999,2819],[999,2871],[999,2927],[999,2979],[999,3039],[999,3089],[999,3145],[999,3201],[999,3254],[999,3300],[999,3362],[999,3416],[999,3471],[999,3527],[999,3587],[999,3622],[999,3696],[999,3754],[999,3812],[999,3857],[999,3922],[999,3978],[999,4029],[999,4087],[999,4144],[999,4195],[999,4252],[999,4308],[999,4363],[999,4403],[999,4467],[999,4521],[999,4577],[999,4627],[999,4684],[999,4739],[999,4800],[999,4850],[999,4906],[999,4960],[999,5017],[999,5072],[999,5125],[999,5177],[999,5233],[999,5289],[999,5345],[999,5397],[999,5451],[999,5507],[999,5561],[999,5622],[999,5676],[999,5728],[999,5785],[999,5835],[999,5895],[999,5951],[999,6004],[999,6062],[999,6119],[999,6172],[999,6227],[999,6271],[999,6333],[999,6380],[999,6431],[999,6474],[999,6545],[999,6603],[999,6644],[999,6712],[999,6770],[999,6826],[999,6880],[999,6930],[999,6988],[999,7041],[999,7092],[999,7149],[999,7205],[999,7259],[999,7310],[999,7367],[999,7423],[999,7477],[999,7538],[999,7590],[999,7654],[999,7708],[999,7759],[999,7822],[999,7873],[999,7927],[999,7980],[999,8035],[999,8094],[999,8148],[999,8198],[999,8255]]",1,0,781.776,786.1093,91.14583333,2.0732,"[{""rating"":91.14583333333333,""responseTime"":2.0732000000010657}]",space,3.7551,,786.1112,Half the time,50,786.1364,,,[],,0,5,5,5,1,audio/Narrative7Situation5.wav,audio/Narrative8Situation5.wav,audio/Narrative5Situation5.wav,audio/Narrative6Situation5.wav,5,2,5,2,,,,,,,,,,,,,,,,,,,,,,,,,,,,,,,,,,,,,,,
,,,,,,66341ea0271d271dc78c8283,2024-05-13_10h53.39.838,group3.1-3.2-social-tom,2023.2.2,Win32,29.99310159,65c5074098b851296ff0b7ed,6642361cdf278957a48be864,,,,,,,,,,,,,,,,,,,,,,,,,,,,,786.1377,1,audio/Narrative8Situation6.wav,788.1463,,788.1467,794.6632,"[[999,4],[999,75],[999,132],[999,183],[999,239],[999,291],[999,349],[999,406],[999,458],[999,511],[999,566],[999,621],[999,684],[999,740],[999,793],[999,853],[999,908],[999,961],[999,1016],[999,1074],[999,1125],[999,1180],[999,1237],[999,1290],[999,1341],[999,1397],[999,1452],[999,1505],[999,1558],[999,1620],[999,1672],[999,1725],[999,1778],[999,1837],[999,1892],[999,1936],[999,1994],[999,2051],[999,2107],[999,2162],[999,2212],[999,2252],[999,2317],[999,2373],[999,2424],[999,2475],[999,2531],[999,2587],[999,2640],[999,2698],[999,2753],[999,2807],[999,2866],[999,2921],[999,2976],[999,3028],[999,3092],[999,3146],[999,3197],[999,3244],[999,3298],[999,3354],[999,3410],[999,3476],[999,3540],[999,3604],[999,3650],[999,3707],[999,3758],[999,3816],[999,3871],[999,3929],[999,3978],[999,4038],[999,4090],[999,4142],[999,4199],[999,4255],[999,4308],[999,4367],[999,4424],[999,4475],[999,4533],[999,4587],[999,4638],[999,4691],[999,4746],[999,4799],[999,4852],[999,4908],[999,4962],[999,5016],[999,5069],[999,5129],[999,5183],[999,5236],[999,5295],[999,5346],[999,5402],[999,5457],[999,5511],[999,5566],[999,5620],[999,5676],[999,5724],[999,5780],[999,5835],[999,5891],[999,5941],[999,5997],[999,6054],[999,6108],[999,6166],[999,6217],[999,6272],[999,6323],[999,6374],[999,6432],[999,6490]]",1,0,794.6635,799.9472,95.20833333,3.7445,"[{""rating"":87.70833333333333,""responseTime"":2.199800000000778},{""rating"":91.14583333333333,""responseTime"":3.2886999999992668},{""rating"":95.20833333333334,""responseTime"":3.7445000000000164}]",space,4.6936,,799.948,Half the time,50,799.9657,,,[],,0,6,6,6,1,audio/Narrative7Situation6.wav,audio/Narrative8Situation6.wav,audio/Narrative5Situation6.wav,audio/Narrative6Situation6.wav,3,2,3,2,,,,,,,,,,,,,,,,,,,,,,,,,,,,,,,,,,,,,,,
,,,,,,66341ea0271d271dc78c8283,2024-05-13_10h53.39.838,group3.1-3.2-social-tom,2023.2.2,Win32,29.99310159,65c5074098b851296ff0b7ed,6642361cdf278957a48be864,,,,,,,,,,,,,,,,,,,,,,,,,,,,,799.9672,1,audio/Narrative8Situation7.wav,802.981,,802.9814,815.09,"[[999,64],[999,123],[999,182],[999,241],[999,298],[999,350],[999,404],[999,460],[999,518],[999,573],[999,624],[999,686],[999,739],[999,791],[999,852],[999,908],[999,961],[999,1019],[999,1074],[999,1135],[999,1180],[999,1234],[999,1290],[999,1344],[999,1397],[999,1443],[999,1510],[999,1566],[999,1626],[999,1682],[999,1736],[999,1780],[999,1840],[999,1891],[999,1941],[999,1989],[999,2051],[999,2091],[999,2156],[999,2213],[999,2273],[999,2323],[999,2384],[999,2432],[999,2488],[999,2540],[999,2598],[999,2654],[999,2706],[999,2763],[999,2819],[999,2873],[999,2931],[999,2986],[999,3041],[999,3095],[999,3154],[999,3205],[999,3268],[999,3320],[999,3381],[999,3438],[999,3489],[999,3546],[999,3602],[999,3658],[999,3710],[999,3765],[999,3821],[999,3880],[999,3931],[999,3987],[999,4042],[999,4094],[999,4149],[999,4204],[999,4257],[999,4314],[999,4371],[999,4426],[999,4484],[999,4530],[999,4593],[999,4649],[999,4705],[999,4759],[999,4810],[999,4867],[999,4923],[999,4976],[999,5022],[999,5092],[999,5149],[999,5206],[999,5258],[999,5316],[999,5371],[999,5426],[999,5469],[999,5533],[999,5586],[999,5626],[999,5691],[999,5750],[999,5807],[999,5860],[999,5916],[999,5973],[999,6027],[999,6076],[999,6131],[999,6187],[999,6241],[999,6297],[999,6353],[999,6409],[999,6462],[999,6518],[999,6572],[999,6631],[999,6685],[999,6739],[999,6797],[999,6854],[999,6913],[999,6962],[999,7018],[999,7072],[999,7124],[999,7184],[999,7240],[999,7297],[999,7353],[999,7408],[999,7461],[999,7515],[999,7571],[999,7622],[999,7681],[999,7737],[999,7791],[999,7845],[999,7901],[999,7951],[999,8009],[999,8065],[999,8121],[999,8176],[999,8226],[999,8277],[999,8316],[999,8382],[999,8425],[999,8491],[999,8548],[999,8605],[999,8655],[999,8703],[999,8754],[999,8807],[999,8860],[999,8915],[999,8965],[999,9020],[999,9074],[999,9127],[999,9186],[999,9243],[999,9296],[999,9351],[999,9406],[999,9458],[999,9514],[999,9568],[999,9623],[999,9676],[999,9731],[999,9785],[999,9841],[999,9892],[999,9941],[999,9997],[999,10053],[999,10108],[999,10160],[999,10214],[999,10274],[999,10325],[999,10380],[999,10436],[999,10489],[999,10540],[999,10597],[999,10652],[999,10706],[999,10758],[999,10816],[999,10872],[999,10931],[999,10986],[999,11039],[999,11091],[999,11147],[999,11202],[999,11257],[999,11301],[999,11359],[999,11416],[999,11471],[999,11525],[999,11575],[999,11635],[999,11692],[999,11737],[999,11813],[999,11874],[999,11928],[999,11983],[999,12030],[999,12085]]",1,0,815.0913,825.8937,71.875,1.2091,"[{""rating"":71.875,""responseTime"":1.2090999999995802}]",space,10.221,,825.8945,All the time,100,825.9772,,,[],,0,7,7,7,1,audio/Narrative7Situation7.wav,audio/Narrative8Situation7.wav,audio/Narrative5Situation7.wav,audio/Narrative6Situation7.wav,5,3,4,5,,,,,,,,,,,,,,,,,,,,,,,,,,,,,,,,,,,,,,,
,,,,,,66341ea0271d271dc78c8283,2024-05-13_10h53.39.838,group3.1-3.2-social-tom,2023.2.2,Win32,29.99310159,65c5074098b851296ff0b7ed,6642361cdf278957a48be864,,,,,,,,,,,,,,,,,,,,,,,,,,,,,825.9792,1,audio/Narrative8Situation8.wav,828.9962,,828.9966,841.8893,"[[71.7,2786],[71.7,2843],[71.7,2895],[71.7,2956],[72.2,3016],[72.5,3074],[72.5,3126],[72.5,3178],[72.5,3245],[72.5,3306],[72.5,3365],[72.5,3421],[84.3,5392],[84.3,5440],[84.3,5490],[84.3,5547],[84.3,5608],[84.3,5674],[84.3,5738],[84.3,5794],[84.3,5852],[84.3,5909],[84.3,5958],[84.3,5999],[84.3,6060],[84.3,6111],[84.3,6161],[84.3,6218],[84.3,6263],[84.3,6312],[84.3,6364],[84.3,6416],[84.3,6455],[84.3,6514],[84.3,6564],[84.3,6624],[84.3,6674],[84.3,6724],[84.3,6775],[84.3,6825],[84.3,6881],[84.3,6930],[84.3,6982],[84.3,7028],[84.3,7078],[84.3,7134],[84.3,7189],[84.3,7246],[84.3,7302],[84.3,7356],[84.3,7405],[84.3,7460],[84.3,7514],[84.3,7566],[84.3,7622],[84.3,7676],[84.3,7729],[84.3,7784],[84.3,7840],[84.3,7892],[84.3,7947],[84.3,8006],[84.3,8057],[84.3,8117],[84.3,8170],[84.3,8229],[84.3,8292],[84.3,8341],[84.3,8392],[84.3,8444],[84.3,8499],[84.3,8555],[84.3,8608],[84.3,8661],[84.3,8720],[84.3,8776],[84.3,8826],[84.3,8868],[84.3,8926],[84.3,8983],[84.3,9035],[84.3,9093],[84.3,9150],[84.3,9210],[84.3,9259],[84.3,9310],[84.3,9368],[84.3,9423],[84.3,9476],[84.3,9525],[84.3,9581],[84.3,9638],[84.3,9692],[84.3,9742],[84.3,9799],[84.3,9852],[84.3,9903],[84.3,9957],[84.3,10005],[84.3,10060],[84.3,10109],[84.3,10160],[84.3,10218],[84.3,10273],[84.3,10328],[84.3,10381],[84.3,10431],[84.3,10485],[84.3,10536],[84.3,10592],[84.3,10650],[84.3,10705],[84.3,10757],[84.3,10812],[84.3,10866],[84.3,10922],[84.3,10975],[84.3,11028],[84.3,11082],[84.3,11138],[84.3,11192],[84.3,11246],[84.3,11300],[84.3,11356],[84.3,11407],[84.3,11467],[84.3,11521],[84.3,11575],[84.3,11627],[84.3,11684],[84.3,11742],[84.3,11795],[84.3,11850],[84.3,11906],[84.3,11959],[84.3,12017],[84.3,12073],[84.3,12130],[84.3,12181],[84.3,12239],[84.3,12296],[77.8,12428],[77,12475],[77,12535],[77,12587],[77,12640],[77,12691],[77,12748],[77,12805],[77,12861]]",1,0,841.8905,845.4682,86.5625,1.7478,"[{""rating"":86.5625,""responseTime"":1.747799999998847}]",space,2.9965,,845.4687,Half the time,50,845.494,,,[],,0,8,8,8,1,audio/Narrative7Situation8.wav,audio/Narrative8Situation8.wav,audio/Narrative5Situation8.wav,audio/Narrative6Situation8.wav,2,3,3,5,,,,,,,,,,,,,,,,,,,,,,,,,,,,,,,,,,,,,,,
,,,,,,66341ea0271d271dc78c8283,2024-05-13_10h53.39.838,group3.1-3.2-social-tom,2023.2.2,Win32,29.99310159,65c5074098b851296ff0b7ed,6642361cdf278957a48be864,,,,,,,,,,,,,,,,,,,,,,,,,,,,,845.4968,1,audio/Narrative8Situation9.wav,848.5069,,848.5071,859.9465,"[[999,66],[999,137],[999,188],[999,241],[999,293],[999,351],[999,401],[999,460],[999,514],[999,565],[999,623],[999,679],[999,734],[999,793],[999,850],[999,901],[999,958],[999,1013],[999,1066],[999,1117],[999,1165],[999,1233],[999,1291],[999,1332],[999,1399],[999,1446],[999,1510],[999,1558],[999,1616],[999,1673],[999,1726],[999,1781],[999,1820],[999,1880],[999,1937],[999,1995],[999,2048],[999,2100],[999,2149],[999,2201],[999,2256],[999,2313],[999,2366],[999,2426],[999,2480],[999,2524],[999,2583],[999,2639],[999,2687],[999,2763],[999,2801],[999,2870],[999,2924],[999,2963],[999,3034],[999,3084],[999,3141],[999,3196],[999,3250],[999,3301],[999,3352],[999,3416],[999,3463],[999,3523],[999,3574],[999,3634],[999,3691],[999,3746],[999,3798],[999,3847],[999,3908],[999,3964],[999,4014],[999,4070],[999,4117],[999,4171],[999,4227],[999,4288],[999,4339],[999,4394],[999,4456],[999,4511],[999,4565],[999,4621],[999,4678],[999,4731],[999,4782],[999,4836],[999,4892],[999,4944],[999,4996],[999,5049],[999,5100],[999,5158],[999,5213],[999,5267],[999,5308],[999,5370],[999,5410],[999,5483],[999,5540],[999,5581],[999,5649],[999,5710],[999,5765],[999,5817],[999,5875],[999,5931],[999,5982],[999,6040],[999,6096],[999,6150],[999,6191],[999,6263],[999,6304],[999,6370],[999,6423],[999,6467],[999,6521],[999,6577],[999,6638],[999,6695],[999,6747],[999,6800],[999,6857],[999,6911],[999,6965],[999,7017],[999,7073],[999,7128],[999,7192],[999,7244],[999,7297],[999,7350],[999,7408],[999,7465],[999,7519],[999,7568],[999,7618],[999,7684],[999,7739],[999,7796],[999,7849],[999,7906],[999,7960],[999,8016],[999,8068],[999,8115],[999,8173],[999,8220],[999,8266],[999,8329],[999,8379],[999,8436],[999,8493],[999,8547],[999,8605],[999,8661],[999,8714],[999,8772],[999,8823],[999,8878],[999,8930],[999,8986],[999,9043],[999,9097],[999,9147],[999,9210],[999,9261],[999,9316],[999,9368],[999,9424],[999,9478],[999,9531],[999,9587],[999,9645],[999,9703],[999,9756],[999,9807],[999,9864],[999,9916],[999,9968],[999,10025],[999,10081],[999,10133],[999,10194],[999,10247],[999,10297],[999,10345],[999,10414],[999,10459],[999,10520],[999,10576],[999,10631],[999,10691],[999,10748],[999,10801],[999,10843],[999,10923],[999,10981],[999,11033],[999,11082],[999,11140],[999,11195],[999,11255],[93.1,11315]]",1,0,859.9477,862.8076,92.60416667,1.2177,"[{""rating"":92.60416666666667,""responseTime"":1.2177000000010594}]",space,2.3012,,862.8081,Half the time,50,862.8266,,,[],,0,9,9,9,1,audio/Narrative7Situation9.wav,audio/Narrative8Situation9.wav,audio/Narrative5Situation9.wav,audio/Narrative6Situation9.wav,2,3,3,4,,,,,,,,,,,,,,,,,,,,,,,,,,,,,,,,,,,,,,,
,,,,,,66341ea0271d271dc78c8283,2024-05-13_10h53.39.838,group3.1-3.2-social-tom,2023.2.2,Win32,29.99310159,65c5074098b851296ff0b7ed,6642361cdf278957a48be864,,,,,,,,,,,,,,,,,,,,,,,,,,,,,862.8289,1,audio/Narrative7Situation1.wav,864.8333,,864.8333,920.7684,"[[83.5,5628],[83.5,5674],[83.5,5728],[83.3,5784],[68.2,6208],[59.6,6274],[53,6343],[52.5,6393],[52.5,6444],[52.4,6504],[52.4,6555],[52.4,6611],[52.3,6670],[52.3,6724],[52.3,6779],[52.3,6834],[52.3,6888],[52.3,6941],[52.3,7001],[52.3,7053],[52.3,7109],[52.3,7166],[52.2,7224],[52.2,7275],[52.2,7334],[52.2,7390],[52.2,7440],[52.2,7498],[52.2,7553],[52.2,7607],[52.2,7658],[52.2,7715],[52.2,7770],[52.2,7824],[52.2,7878],[52.2,7933],[52.2,7988],[52.2,8041],[50.3,8105],[48.9,8166],[48.5,8225],[47.4,8289],[47.4,8340],[47.4,8397],[47.4,8450],[47.4,8504],[47.4,8558],[47.4,8610],[47.4,8665],[47.4,8721],[47.4,8774],[47.4,8830],[47.4,8883],[47.4,8939],[47.4,8983],[47.4,9045],[46.9,9100],[46,9162],[45.9,9221],[45.7,9279],[45.1,9339],[45.1,9392],[45.1,9449],[45.1,9505],[45.1,9558],[45.1,9614],[45.1,9670],[45.1,9724],[45.1,9777],[45.1,9840],[45.1,9908],[45.1,9967],[45.1,10015],[45.1,10063],[45.1,10112],[45.1,10172],[45.1,10221],[45.1,10272],[45.1,10329],[45.1,10389],[45.1,10437],[45.1,10494],[45.1,10549],[45.1,10603],[45.1,10654],[45.1,10714],[45.1,10767],[45.1,10821],[45.1,10871],[45.1,10929],[45.1,10985],[45.1,11039],[45.1,11091],[45.1,11146],[45.1,11201],[45.1,11260],[45.1,11308],[45.1,11369],[45.1,11422],[45.1,11474],[45.1,11530],[45.1,11586],[45.1,11640],[45.1,11692],[45.1,11749],[45.1,11794],[45.1,11858],[45.1,11914],[45.1,11969],[45.1,12021],[45.1,12072],[45.1,12131],[45.1,12185],[45.1,12239],[45.1,12288],[45.1,12344],[45.1,12401],[45.1,12456],[45.1,12508],[45.1,12567],[45.1,12622],[45.1,12674],[45.3,12789],[45.3,12838],[45.3,12891],[45.3,12946],[45.3,13003],[45.3,13055],[45.3,13105],[45.3,13161],[45.3,13216],[45.3,13274],[45.3,13323],[45.3,13383],[45.3,13438],[45.3,13493],[45.3,13548],[46.3,13611],[48.6,13668],[55.2,13728],[91.3,36124],[75.4,36239],[75.4,36285],[75.4,36336],[75.4,36390],[75.4,36440],[75.4,36497],[75.4,36552],[75.4,36606],[75.4,36657],[75.4,36714],[75.4,36771],[75.4,36821],[75.4,36871],[75.4,36929],[75.4,36984],[75.4,37038],[75.4,37088],[75.4,37144],[75.4,37201],[75.4,37255],[75.4,37308],[75.4,37362],[75.4,37420],[75.4,37472],[75.4,37528],[75.4,37587],[75.4,37638],[75.4,37689],[75.4,37745],[75.4,37801],[75.4,37856],[75.4,37910],[75.4,37964],[75.4,38022],[75.4,38072],[75.4,38130],[75.4,38183],[75.4,38238],[75.4,38289],[75.4,38347],[75.4,38403],[75.4,38456],[75.4,38506],[75.4,38559],[75.4,38616],[75.4,38672],[75.4,38721],[75.4,38772],[75.4,38830],[75.4,38886],[75.4,38939],[75.5,38998],[75.5,39053],[75.5,39105],[75.5,39162],[75.5,39218],[75.5,39273],[75.5,39324],[75.5,39381],[75.5,39428],[75.5,39480],[75.6,39530],[75.6,39582],[75.6,39638],[75.6,39692],[75.6,39748],[75.6,39803],[75.6,39856],[75.6,39915],[75.6,39952],[75.6,40020],[75.6,40071],[75.6,40111],[75.6,40171],[75.6,40228],[75.6,40287],[75.6,40339],[75.6,40394],[75.6,40450],[75.6,40505],[75.6,40557],[75.6,40612],[75.6,40668],[75.6,40721],[75.6,40774],[75.6,40829],[75.6,40884],[75.6,40939],[75.6,40993],[75.6,41046],[75.6,41105],[75.6,41160],[75.6,41213],[75.6,41265],[75.6,41324],[75.6,41381],[75.6,41436],[75.6,41493],[75.6,41551],[75.6,41606],[75.6,41657],[75.6,41713],[75.6,41769],[75.6,41823],[75.6,41873],[75.6,41931],[75.6,41988],[75.6,42040],[75.6,42091],[75.6,42148],[75.6,42204],[75.6,42255],[75.6,42313],[75.6,42371],[75.7,42428],[75.7,42526],[75.7,42573],[75.7,42630],[75.7,42685],[75.7,42736],[75.7,42788],[75.7,42845],[75.7,42901],[75.7,42958],[75.7,43009],[75.7,43067],[75.7,43120],[75.7,43163],[75.7,43223],[75.7,43279],[75.7,43336],[75.7,43391],[75.7,43445],[75.7,43499],[75.7,43553],[75.7,43607],[75.7,43663],[75.7,43720],[75.7,43774],[75.7,43828],[75.7,43883],[75.7,43938],[75.7,43992],[75.7,44046],[75.7,44096],[75.7,44152],[75.7,44204],[75.7,44264],[75.7,44317],[75.7,44372],[75.7,44425],[75.7,44479],[75.7,44535],[75.7,44589],[75.7,44644],[75.7,44701],[75.7,44755],[75.7,44804],[75.7,44856],[75.7,44906],[75.7,44965],[75.7,45018],[75.7,45074],[75.7,45131],[75.7,45187],[75.7,45240],[75.7,45291],[75.7,45349],[75.7,45405],[75.7,45455],[75.7,45512],[75.7,45566],[75.7,45622],[75.7,45673],[75.7,45731],[75.7,45782],[75.7,45837],[75.7,45888],[75.7,45941],[75.7,45999],[75.7,46053],[75.7,46105],[75.7,46160],[75.7,46217],[75.7,46272],[75.7,46322],[75.7,46384],[75.7,46453],[75.7,46502],[75.7,46552],[75.7,46606],[75.7,46661],[75.7,46718],[75.7,46771],[75.7,46822],[75.7,46879],[75.7,46938],[75.7,46991],[75.7,47042],[75.7,47092],[75.7,47150],[75.7,47207],[75.7,47261],[75.7,47321],[75.7,47374],[75.7,47430],[75.7,47483],[75.7,47539],[75.8,47591],[75.8,47705],[75.8,47761],[75.8,47815],[75.8,47871],[75.8,47923],[75.8,47981],[75.8,48030],[75.8,48085],[75.8,48140],[75.8,48190],[75.8,48247],[75.8,48303],[75.8,48357],[75.8,48407],[75.8,48461],[75.8,48517],[75.8,48571],[75.8,48622],[75.8,48679],[75.8,48737],[75.8,48786],[75.8,48837],[75.8,48894],[75.8,48949],[75.8,49006],[75.8,49058],[75.8,49112],[75.8,49172],[75.8,49224],[75.8,49281],[75.8,49335],[75.8,49390],[75.8,49439],[75.8,49496],[75.8,49549],[75.8,49606],[75.8,49657],[75.8,49713],[75.8,49772],[75.8,49835],[75.8,49902],[75.8,49954],[75.8,50004],[75.8,50061],[75.8,50110],[75.8,50161],[75.8,50216],[75.8,50272],[75.8,50322],[75.8,50380],[75.8,50433],[75.8,50489],[75.8,50538],[75.8,50596],[75.8,50653],[75.8,50704],[75.8,50754],[75.8,50813],[75.8,50866],[75.8,50918],[75.8,50974],[75.8,51025],[75.8,51079],[75.8,51135],[75.8,51187],[75.8,51245],[75.8,51301],[75.8,51354],[75.8,51409],[75.8,51456],[75.8,51515],[75.8,51570],[75.8,51624],[75.8,51679],[75.8,51731],[75.8,51789],[75.8,51847],[75.8,51899],[75.8,51946],[75.8,52008],[75.8,52064],[75.8,52120],[75.9,52178],[75.9,52308],[75.9,52362],[75.9,52419],[75.9,52470],[75.9,52528],[75.9,52587],[75.9,52640],[75.9,52691],[75.9,52749],[75.9,52801],[75.9,52857],[75.9,52913],[75.9,52971],[75.9,53020],[75.9,53073],[75.9,53124],[75.9,53182],[75.9,53237],[75.9,53291],[75.9,53346],[75.9,53401],[75.9,53451],[75.9,53502],[75.9,53554],[75.9,53610],[75.9,53669],[75.9,53720],[75.9,53771],[75.9,53829],[75.9,53884],[75.9,53939],[75.9,53993],[75.9,54046],[75.9,54102],[75.9,54154],[75.9,54210],[75.9,54266],[75.9,54320],[75.9,54377],[75.9,54428],[75.9,54485],[75.9,54542],[75.9,54599],[75.9,54651],[75.9,54702],[75.9,54757],[75.9,54814],[75.9,54870],[75.9,54923],[75.9,54975],[75.9,55032],[75.9,55088],[75.9,55141],[75.9,55197],[75.9,55252],[75.9,55306],[75.9,55357],[76.1,55421],[87.4,55540],[89.3,55601],[90.1,55662],[90.9,55722],[90.6,55778],[89.4,55838],[88.1,55896]]",1,0,920.771,923.8632,78.22916667,1.2712,"[{""rating"":78.22916666666666,""responseTime"":1.2711999999992258}]",space,2.5328,,923.8639,Half the time,50,923.8793,,,[],,0,10,10,10,1,audio/Narrative8Situation1.wav,audio/Narrative7Situation1.wav,audio/Narrative6Situation1.wav,audio/Narrative5Situation1.wav,5,2,2,5,,,,,,,,,,,,,,,,,,,,,,,,,,,,,,,,,,,,,,,
,,,,,,66341ea0271d271dc78c8283,2024-05-13_10h53.39.838,group3.1-3.2-social-tom,2023.2.2,Win32,29.99310159,65c5074098b851296ff0b7ed,6642361cdf278957a48be864,,,,,,,,,,,,,,,,,,,,,,,,,,,,,923.8817,1,audio/Narrative7Situation2.wav,926.8953,,926.8957,934.4331,"[[77.8,5175],[77.8,5224],[77.8,5275],[77.8,5331],[77.8,5387],[77.8,5441],[77.8,5492],[77.8,5550],[77.8,5606],[77.8,5660],[77.8,5713],[77.8,5767],[77.8,5822],[77.8,5876],[77.8,5931],[77.8,5987],[77.8,6044],[77.8,6091],[77.8,6152],[77.8,6207],[77.8,6261],[77.8,6312],[77.8,6369],[77.8,6421],[77.8,6472],[77.8,6527],[77.8,6578],[77.8,6635],[77.8,6689],[77.8,6743],[77.8,6792],[77.8,6848],[77.8,6906],[77.8,6959],[77.8,7013],[77.8,7067],[77.8,7123],[77.8,7177],[77.8,7232],[77.8,7288],[77.8,7343],[77.8,7396],[77.8,7452],[77.8,7506]]",1,0,934.4341,936.9011,78.4375,1.5684,"[{""rating"":78.4375,""responseTime"":1.568400000000338}]",space,1.9041,,936.9014,Half the time,50,936.9172,,,[],,0,11,11,11,1,audio/Narrative8Situation2.wav,audio/Narrative7Situation2.wav,audio/Narrative6Situation2.wav,audio/Narrative5Situation2.wav,3,3,3,3,,,,,,,,,,,,,,,,,,,,,,,,,,,,,,,,,,,,,,,
,,,,,,66341ea0271d271dc78c8283,2024-05-13_10h53.39.838,group3.1-3.2-social-tom,2023.2.2,Win32,29.99310159,65c5074098b851296ff0b7ed,6642361cdf278957a48be864,,,,,,,,,,,,,,,,,,,,,,,,,,,,,936.9191,1,audio/Narrative7Situation3.wav,944.9214,,944.9215,954.2217,[],1,0,954.2223,963.3335,85.41666667,7.401,"[{""rating"":85.41666666666667,""responseTime"":7.400999999999954}]",space,8.5476,,963.3337,Half the time,50,963.3404,,,[],,0,12,12,12,1,audio/Narrative8Situation3.wav,audio/Narrative7Situation3.wav,audio/Narrative6Situation3.wav,audio/Narrative5Situation3.wav,4,8,5,3,,,,,,,,,,,,,,,,,,,,,,,,,,,,,,,,,,,,,,,
,,,,,,66341ea0271d271dc78c8283,2024-05-13_10h53.39.838,group3.1-3.2-social-tom,2023.2.2,Win32,29.99310159,65c5074098b851296ff0b7ed,6642361cdf278957a48be864,,,,,,,,,,,,,,,,,,,,,,,,,,,,,963.3414,1,audio/Narrative7Situation4.wav,966.3457,,966.346,978.1076,"[[999,3],[999,104],[999,157],[999,217],[999,271],[999,325],[999,373],[999,427],[999,477],[999,533],[999,587],[999,632],[999,695],[999,754],[999,800],[999,867],[999,920],[999,970],[999,1028],[999,1073],[999,1145],[999,1202],[999,1258],[999,1301],[999,1362],[999,1402],[999,1477],[999,1535],[999,1576],[999,1647],[999,1708],[999,1775],[999,1836],[999,1892],[999,1959],[999,2024],[999,2093],[999,2145],[999,2201],[999,2248],[999,2304],[999,2351],[999,2410],[999,2465],[999,2521],[999,2567],[999,2620],[999,2672],[999,2724],[999,2779],[999,2829],[999,2887],[999,2932],[999,2993],[999,3044],[999,3101],[999,3157],[999,3209],[999,3259],[999,3308],[999,3361],[999,3419],[999,3475],[999,3528],[999,3577],[999,3632],[999,3688],[999,3741],[999,3793],[999,3849],[999,3908],[999,3958],[999,4020],[999,4072],[999,4126],[999,4178],[999,4228],[999,4291],[999,4348],[999,4399],[999,4461],[999,4518],[999,4573],[999,4628],[999,4677],[999,4737],[999,4791],[999,4846],[999,4911],[999,4978],[999,5025],[999,5084],[999,5142],[999,5217],[999,5270],[999,5319],[999,5372],[999,5426],[999,5489],[999,5557],[999,5606],[999,5656],[999,5708],[999,5757],[999,5807],[999,5861],[999,5912],[999,5965],[999,6019],[999,6074],[999,6131],[999,6185],[999,6238],[999,6311],[999,6377],[999,6430],[999,6514],[999,6574],[999,6615],[999,6678],[999,6738],[999,6796],[999,6856],[999,6911],[999,6966],[999,7023],[999,7068],[999,7128],[999,7192],[999,7230],[999,7293],[999,7336],[999,7421],[999,7472],[999,7521],[999,7576],[999,7625],[999,7680],[999,7737],[999,7790],[999,7842],[999,7899],[999,7955],[999,8008],[999,8058],[999,8117],[999,8172],[999,8223],[999,8278],[999,8338],[999,8392],[999,8442],[999,8499],[999,8548],[999,8588],[999,8648],[999,8707],[999,8760],[999,8810],[999,8868],[999,8924],[999,8964],[999,9019],[999,9070],[999,9124],[999,9174],[999,9237],[999,9288],[999,9353],[999,9405],[999,9460],[999,9514],[999,9571],[999,9625],[999,9682],[999,9738],[999,9792],[999,9845],[999,9903],[999,9958],[999,10011],[999,10067],[999,10125],[999,10177],[999,10229],[999,10284],[999,10333],[999,10392],[999,10435],[999,10495],[999,10552],[999,10607],[999,10662],[999,10715],[999,10769],[999,10824],[999,10876],[999,10933],[999,10974],[999,11042],[999,11097],[999,11155],[999,11207],[999,11269],[999,11309],[999,11374],[999,11430],[999,11490],[999,11542],[999,11595],[999,11649],[999,11706],[999,11760]]",1,0,978.109,985.3696,76.66666667,5.6825,"[{""rating"":76.45833333333334,""responseTime"":5.351499999999987},{""rating"":76.66666666666666,""responseTime"":5.6825000000000045}]",space,6.697,,985.3701,Half the time,50,985.3869,,,[],,0,13,13,13,1,audio/Narrative8Situation4.wav,audio/Narrative7Situation4.wav,audio/Narrative6Situation4.wav,audio/Narrative5Situation4.wav,3,3,2,1,,,,,,,,,,,,,,,,,,,,,,,,,,,,,,,,,,,,,,,
,,,,,,66341ea0271d271dc78c8283,2024-05-13_10h53.39.838,group3.1-3.2-social-tom,2023.2.2,Win32,29.99310159,65c5074098b851296ff0b7ed,6642361cdf278957a48be864,,,,,,,,,,,,,,,,,,,,,,,,,,,,,985.3891,1,audio/Narrative7Situation5.wav,990.4094,,990.4104,998.9101,"[[999,52],[999,114],[999,164],[999,221],[999,278],[999,329],[999,387],[999,439],[999,496],[999,553],[999,606],[999,662],[999,715],[999,773],[999,829],[999,881],[999,939],[999,995],[999,1046],[999,1090],[999,1160],[999,1213],[999,1257],[999,1327],[999,1381],[999,1429],[999,1485],[999,1541],[999,1594],[999,1651],[999,1707],[999,1760],[999,1812],[999,1869],[999,1931],[999,1987],[999,2046],[999,2101],[999,2156],[999,2210],[999,2268],[999,2328],[999,2376],[999,2433],[999,2490],[999,2544],[999,2595],[999,2651],[999,2702],[999,2757],[999,2811],[999,2867],[999,2920],[999,2972],[999,3027],[999,3078],[999,3136],[999,3188],[999,3243],[999,3297],[999,3352],[999,3407],[999,3462],[999,3513],[999,3571],[999,3627],[999,3680],[999,3728],[999,3785],[999,3844],[999,3894],[999,3951],[999,4006],[999,4060],[999,4111],[999,4168],[999,4228],[999,4289],[999,4344],[999,4401],[999,4450],[999,4501],[999,4549],[999,4602],[999,4658],[999,4712],[999,4773],[999,4823],[999,4881],[999,4931],[999,4988],[999,5043],[999,5096],[999,5147],[999,5203],[999,5259],[999,5312],[999,5364],[999,5407],[999,5479],[999,5535],[999,5589],[999,5641],[999,5696],[999,5753],[999,5809],[999,5863],[999,5912],[999,5967],[999,6024],[999,6077],[999,6134],[999,6197],[999,6245],[999,6299],[999,6355],[999,6409],[999,6459],[999,6511],[999,6568],[999,6626],[999,6677],[999,6732],[999,6784],[999,6841],[999,6898],[999,6947],[999,7006],[999,7060],[999,7114],[999,7167],[999,7221],[999,7272],[999,7329],[999,7386],[999,7431],[999,7496],[999,7553],[999,7606],[999,7662],[999,7713],[999,7770],[999,7823],[999,7868],[999,7928],[999,7982],[999,8036],[999,8094],[999,8148],[999,8204],[999,8256],[999,8308],[999,8364],[999,8418],[999,8469]]",1,0,998.9115,1008.2898,71.04166667,7.9603,"[{""rating"":77.1875,""responseTime"":7.05700000000013},{""rating"":71.04166666666667,""responseTime"":7.960300000000757}]",space,8.8066,,1008.2903,Half the time,50,1008.3087,,,[],,0,14,14,14,1,audio/Narrative8Situation5.wav,audio/Narrative7Situation5.wav,audio/Narrative6Situation5.wav,audio/Narrative5Situation5.wav,2,5,2,5,,,,,,,,,,,,,,,,,,,,,,,,,,,,,,,,,,,,,,,
,,,,,,66341ea0271d271dc78c8283,2024-05-13_10h53.39.838,group3.1-3.2-social-tom,2023.2.2,Win32,29.99310159,65c5074098b851296ff0b7ed,6642361cdf278957a48be864,,,,,,,,,,,,,,,,,,,,,,,,,,,,,1008.312,1,audio/Narrative7Situation6.wav,1011.3359,,1011.3362,1021.3552,"[[999,61],[999,131],[999,185],[999,225],[999,287],[999,347],[999,402],[999,451],[999,509],[999,563],[999,612],[999,667],[999,721],[999,780],[999,836],[999,896],[999,947],[999,995],[999,1050],[999,1101],[999,1158],[999,1214],[999,1268],[999,1330],[999,1381],[999,1435],[999,1488],[999,1542],[999,1592],[999,1640],[999,1710],[999,1746],[999,1810],[999,1866],[999,1921],[999,1970],[999,2014],[999,2085],[999,2144],[999,2185],[999,2252],[999,2310],[999,2364],[999,2419],[999,2478],[999,2531],[999,2583],[999,2633],[999,2685],[999,2742],[999,2798],[999,2851],[999,2905],[999,2960],[999,3009],[999,3066],[999,3131],[999,3181],[999,3235],[999,3295],[999,3351],[999,3408],[999,3446],[999,3518],[999,3567],[999,3617],[999,3669],[999,3720],[999,3777],[999,3832],[999,3888],[999,3941],[999,3991],[999,4055],[999,4113],[999,4163],[999,4219],[999,4277],[999,4320],[999,4387],[999,4444],[999,4500],[999,4554],[999,4605],[999,4662],[999,4715],[999,4769],[999,4814],[999,4888],[999,4935],[999,5014],[999,5058],[999,5113],[999,5165],[999,5219],[999,5277],[999,5329],[999,5386],[999,5438],[999,5497],[999,5535],[999,5604],[999,5645],[999,5719],[999,5777],[999,5832],[999,5887],[999,5945],[999,5992],[999,6046],[999,6101],[999,6163],[999,6216],[999,6266],[999,6320],[999,6375],[999,6434],[999,6485],[999,6541],[999,6597],[999,6651],[999,6702],[999,6758],[999,6815],[999,6870],[999,6928],[999,6980],[999,7033],[999,7100],[999,7156],[999,7205],[999,7258],[999,7314],[999,7370],[999,7420],[999,7478],[999,7517],[999,7585],[999,7625],[999,7687],[999,7729],[999,7808],[999,7879],[999,7951],[999,8020],[999,8081],[999,8146],[999,8201],[999,8244],[999,8308],[999,8349],[999,8410],[999,8457],[999,8517],[999,8559],[999,8629],[999,8679],[999,8741],[999,8804],[999,8864],[999,8907],[999,8973],[999,9010],[999,9072],[999,9126],[999,9182],[999,9233],[999,9289],[999,9343],[999,9399],[999,9452],[999,9508],[999,9562],[999,9615],[999,9667],[999,9724],[999,9772],[999,9812],[999,9879],[999,9937],[999,9986]]",1,0,1021.3563,1034.2087,87.91666667,11.7158,"[{""rating"":87.91666666666667,""responseTime"":11.715800000000854}]",space,12.2815,,1034.2092,Not at all,0,1060.4591,0,24.7575,"[{""rating"":0,""responseTime"":13.188300000000936},{""rating"":0,""responseTime"":14.654599999999618},{""rating"":5.312499999999998,""responseTime"":22.073599999999715},{""rating"":0,""responseTime"":23.70819999999935},{""rating"":0,""responseTime"":24.757500000000164}]",space,0,15,15,15,1,audio/Narrative8Situation6.wav,audio/Narrative7Situation6.wav,audio/Narrative6Situation6.wav,audio/Narrative5Situation6.wav,2,3,2,3,,,25.6901,,,,,,,,,,,,,,,,,,,,,,,,,,,,,,,,,,,,
,,,,,,66341ea0271d271dc78c8283,2024-05-13_10h53.39.838,group3.1-3.2-social-tom,2023.2.2,Win32,29.99310159,65c5074098b851296ff0b7ed,6642361cdf278957a48be864,,,,,,,,,,,,,,,,,,,,,,,,,,,,,1060.4619,1,audio/Narrative7Situation7.wav,1065.4631,,1065.4634,1082.6508,"[[999,54],[999,105],[999,157],[999,211],[999,264],[999,305],[999,378],[999,422],[999,479],[999,543],[999,602],[999,656],[999,710],[999,767],[999,821],[999,876],[999,916],[999,981],[999,1041],[999,1091],[999,1148],[999,1207],[999,1256],[999,1319],[999,1376],[999,1424],[999,1481],[999,1538],[999,1592],[999,1648],[999,1704],[999,1757],[999,1813],[999,1870],[999,1924],[999,1975],[999,2031],[999,2087],[999,2140],[999,2198],[999,2254],[999,2306],[999,2363],[999,2420],[999,2474],[999,2528],[999,2582],[999,2636],[999,2692],[999,2744],[999,2796],[999,2855],[999,2910],[999,2960],[999,3017],[999,3062],[999,3126],[999,3183],[999,3227],[999,3293],[999,3352],[999,3408],[999,3459],[999,3517],[999,3573],[999,3627],[999,3672],[999,3745],[999,3802],[999,3847],[999,3911],[999,3967],[999,4012],[999,4076],[999,4134],[999,4186],[999,4243],[999,4299],[999,4338],[999,4405],[999,4459],[999,4507],[999,4564],[999,4622],[999,4674],[999,4731],[999,4791],[999,4840],[999,4897],[999,4954],[999,5007],[999,5060],[999,5115],[999,5172],[999,5227],[999,5279],[999,5326],[999,5381],[999,5435],[999,5491],[999,5542],[999,5600],[999,5655],[999,5709],[999,5762],[999,5810],[999,5878],[999,5934],[999,5974],[999,6044],[999,6101],[999,6157],[999,6207],[999,6258],[999,6314],[999,6372],[999,6425],[999,6464],[999,6525],[999,6584],[999,6640],[999,6691],[999,6749],[999,6805],[999,6859],[999,6911],[999,6966],[999,7022],[999,7073],[999,7131],[999,7189],[999,7242],[999,7298],[999,7354],[999,7409],[999,7461],[999,7516],[999,7572],[999,7635],[999,7688],[999,7742],[999,7799],[999,7853],[999,7910],[999,7961],[999,8015],[999,8071],[999,8124],[999,8179],[999,8236],[999,8290],[999,8354],[999,8405],[999,8456],[999,8512],[999,8563],[999,8624],[999,8679],[999,8743],[999,8793],[999,8847],[999,8889],[999,8956],[999,9013],[999,9071],[999,9127],[999,9187],[999,9254],[999,9308],[999,9359],[999,9406],[999,9458],[999,9503],[999,9575],[999,9629],[999,9687],[999,9744],[999,9792],[999,9850],[999,9906],[999,9960],[999,10013],[999,10055],[999,10126],[999,10183],[999,10239],[999,10294],[999,10352],[999,10406],[999,10461],[999,10514],[999,10560],[999,10626],[999,10684],[999,10728],[999,10793],[999,10850],[999,10906],[999,10959],[999,11013],[999,11061],[999,11114],[999,11171],[999,11225],[999,11279],[999,11333],[999,11388],[999,11442],[999,11495],[999,11552],[999,11605],[999,11657],[999,11714],[999,11771],[999,11836],[999,11887],[999,11944],[999,11995],[999,12054],[999,12109],[999,12158],[999,12209],[999,12260],[999,12319],[999,12375],[999,12425],[999,12483],[999,12540],[999,12592],[999,12630],[999,12693],[999,12738],[999,12810],[999,12866],[999,12924],[999,12976],[999,13031],[999,13085],[999,13143],[999,13201],[999,13247],[999,13308],[999,13364],[999,13416],[999,13458],[999,13528],[999,13570],[999,13641],[999,13701],[999,13755],[999,13810],[999,13866],[999,13922],[999,13975],[999,14014],[999,14075],[999,14131],[999,14188],[999,14241],[999,14298],[999,14355],[999,14405],[999,14456],[999,14507],[999,14563],[999,14622],[999,14674],[999,14725],[999,14792],[999,14843],[999,14895],[999,14942],[999,15011],[999,15068],[999,15122],[999,15174],[999,15225],[999,15275],[999,15333],[999,15388],[999,15442],[999,15480],[999,15540],[999,15591],[999,15640],[999,15691],[999,15750],[999,15801],[999,15853],[999,15904],[999,15956],[999,16007],[999,16057],[999,16097],[999,16158],[999,16197],[999,16257],[999,16307],[999,16358],[999,16414],[999,16462],[999,16513],[999,16562],[999,16618],[999,16670],[999,16728],[999,16765],[999,16823],[999,16879],[999,16935],[999,16989],[999,17049],[999,17105],[999,17159]]",1,0,1082.6523,1086.6395,51.77083333,1.5926,"[{""rating"":51.770833333333336,""responseTime"":1.5925999999997202}]",space,3.4029,,1086.64,Half the time,50,1086.6676,,,[],,0,16,16,16,1,audio/Narrative8Situation7.wav,audio/Narrative7Situation7.wav,audio/Narrative6Situation7.wav,audio/Narrative5Situation7.wav,3,5,5,4,,,,,,,,,,,,,,,,,,,,,,,,,,,,,,,,,,,,,,,
,,,,,,66341ea0271d271dc78c8283,2024-05-13_10h53.39.838,group3.1-3.2-social-tom,2023.2.2,Win32,29.99310159,65c5074098b851296ff0b7ed,6642361cdf278957a48be864,,,,,,,,,,,,,,,,,,,,,,,,,,,,,1086.6695,1,audio/Narrative7Situation8.wav,1088.7159,,1088.716,1098.77,"[[51.9,9204],[60.7,9343],[62.6,9406],[65.1,9467],[65.9,9524],[66.6,9582],[67.1,9641],[67.1,9697],[67.1,9752],[67.4,9812],[68.2,9877],[68.2,9930],[68.8,9992],[69.1,10052]]",1,0,1098.7714,1100.7954,69.16666667,0.3913,"[{""rating"":69.16666666666667,""responseTime"":0.3912999999988642}]",space,1.4435,,1100.7958,All the time,100,1100.823,,,[],,0,17,17,17,1,audio/Narrative8Situation8.wav,audio/Narrative7Situation8.wav,audio/Narrative6Situation8.wav,audio/Narrative5Situation8.wav,3,2,5,3,,,,,,,,,,,,,,,,,,,,,,,,,,,,,,,,,,,,,,,
,,,,,,66341ea0271d271dc78c8283,2024-05-13_10h53.39.838,group3.1-3.2-social-tom,2023.2.2,Win32,29.99310159,65c5074098b851296ff0b7ed,6642361cdf278957a48be864,,,,,,,,,,,,,,,,,,,,,,,,,,,,,1100.8248,1,audio/Narrative7Situation9.wav,1102.8447,,1102.845,1111.5083,[],1,0,1111.5093,1115.2092,78.33333333,2.3058,"[{""rating"":78.33333333333333,""responseTime"":2.3057999999989534}]",space,3.1237,,1115.21,Not at all,0,1115.238,,,[],,0,18,18,18,1,audio/Narrative8Situation9.wav,audio/Narrative7Situation9.wav,audio/Narrative6Situation9.wav,audio/Narrative5Situation9.wav,3,2,4,3,,,,,,,,,,,,,,,,,,,,,,,,,,,,,,,,,,,,,,,
,,,,,,66341ea0271d271dc78c8283,2024-05-13_10h53.39.838,group3.1-3.2-social-tom,2023.2.2,Win32,29.99310159,65c5074098b851296ff0b7ed,6642361cdf278957a48be864,,,,,,,,,,,,,,,,,,,,,,,,,,,1166.698,1169.222,1169.3166,2,audio/Narrative13Situation2.wav,1169.3169,,1169.3169,1199.1022,"[[39.8,17288],[39,17345],[38.5,17396],[37.2,17456],[36.6,17515],[35.8,17575],[35.6,17631],[35.6,17686],[35.6,17736],[35.6,17793],[34.8,17860],[33,17925],[32.4,17976],[31.6,18040],[31.6,18092],[31.6,18148],[31.6,18203],[31.6,18245],[31.6,18302],[31.6,18360],[31.6,18416],[31.6,18470],[31.6,18521],[31.6,18578],[31.6,18633],[31.6,18688],[31.6,18740],[31.6,18795],[31.6,18850],[31.6,18904],[31.6,18963],[31.6,19018],[31.6,19069],[31.6,19125],[31.6,19181],[31.6,19240],[31.6,19287],[31.6,19345],[31.6,19404],[31.6,19458],[31.6,19511],[31.6,19567],[31.6,19621],[31.6,19673],[31.6,19730],[31.6,19786],[31.6,19839],[31.6,19895],[31.6,19947],[31.6,20004],[31.6,20054],[31.6,20105],[31.6,20156],[31.6,20212],[31.6,20268],[31.6,20317],[31.6,20370],[31.6,20423],[31.6,20478],[31.6,20535],[31.6,20589],[31.6,20642],[31.6,20699],[31.6,20754],[31.6,20804],[31.6,20859],[31.6,20918],[31.6,20972],[31.6,21023],[31.6,21080],[31.6,21135],[31.6,21189],[31.6,21239],[31.6,21297],[31.6,21353],[31.6,21406],[31.6,21457],[31.6,21514],[31.6,21570],[31.6,21621],[31.6,21678],[31.6,21731],[31.6,21782],[31.6,21836],[31.6,21888],[31.5,22017],[31.5,22066],[31.5,22121],[31.5,22178],[31.5,22228],[31.5,22284],[31.5,22338],[31.5,22394],[31.5,22450],[31.5,22504],[31.5,22556],[31.5,22611],[31.5,22667],[31.5,22719],[31.5,22778],[31.5,22836],[31.5,22887],[31.5,22943],[31.5,23000],[31.5,23054],[31.5,23107],[31.5,23162],[31.7,23222],[33.5,23285],[36.6,23340],[39.6,23406],[41.9,23469],[45.3,23535],[48,23599],[48.1,23655],[48.1,23706],[48.1,23767],[48.1,23818],[48.1,23871],[48.1,23924],[48.1,23980],[48.1,24038],[48.1,24090],[48.1,24145],[48.1,24199],[48.1,24254],[48.1,24306],[48.1,24364],[48.1,24419],[48.1,24474],[48.1,24528],[48.1,24576],[48.1,24627],[48.1,24683],[48.1,24737],[48.1,24791],[48.1,24845],[48.1,24903],[48.1,24954],[48.1,25012],[48.1,25069],[48.1,25120],[48.1,25177],[48.1,25233],[48.1,25290],[48.1,25348],[48.1,25405],[48.1,25454],[48.1,25506],[48.1,25558],[48.1,25611],[48.1,25657],[48.1,25715],[48.1,25770],[48.1,25811],[48.1,25875],[48.1,25940],[47.7,25994],[47.5,26050],[47.5,26101],[47.5,26155],[47.5,26203],[47.5,26260],[47.5,26317],[47.5,26369],[47.5,26424],[47.5,26479],[47.5,26535],[47.5,26588],[47.5,26640],[47.5,26695],[47.5,26751],[47.5,26803],[47.5,26860],[47.5,26917],[47.5,26971],[47.5,27026],[47.5,27081],[47.5,27137],[47.5,27189],[47.5,27244],[47.5,27304],[47.5,27355],[47.5,27408],[47.5,27466],[47.5,27522],[47.5,27575],[47.5,27633],[47.5,27687],[47.5,27738],[47.5,27790],[47.5,27848],[47.5,27905],[47.5,27956],[47.2,28017],[47,28075],[47,28130],[47,28183],[46.5,28241],[44.9,28307],[43.1,28360],[55.1,29644],[57.4,29706],[58,29760]]",1,0,1199.1034,1199.1165,,,[],,,,1199.1167,Half the time,50,1199.1342,,,[],,0,0,0,0,1,audio/Narrative13Situation2.wav,audio/Narrative13Situation2.wav,audio/Narrative13Situation2.wav,audio/Narrative13Situation2.wav,2,2,2,2,,,,,1115.2459,1166.6287,space,50.844,,,,,,,,,,,,,,,,,,,,,,,,,,,,,,,
,,,,,,66341ea0271d271dc78c8283,2024-05-13_10h53.39.838,group3.1-3.2-social-tom,2023.2.2,Win32,29.99310159,65c5074098b851296ff0b7ed,6642361cdf278957a48be864,,,,,,,,,,,,,,,,,,,,,,,,,,,,,1199.1356,2,audio/Narrative6Situation1.wav,1201.1526,,1201.153,1227.7862,[],1,0,1227.787,1238.6484,77.8125,6.6752,"[{""rating"":77.8125,""responseTime"":6.675200000001041}]",space,10.2925,,1238.649,Not at all,0,1238.7485,,,[],,0,1,1,1,1,audio/Narrative7Situation1.wav,audio/Narrative8Situation1.wav,audio/Narrative5Situation1.wav,audio/Narrative6Situation1.wav,2,5,5,2,,,,,,,,,,,,,,,,,,,,,,,,,,,,,,,,,,,,,,,
,,,,,,66341ea0271d271dc78c8283,2024-05-13_10h53.39.838,group3.1-3.2-social-tom,2023.2.2,Win32,29.99310159,65c5074098b851296ff0b7ed,6642361cdf278957a48be864,,,,,,,,,,,,,,,,,,,,,,,,,,,,,1238.7502,2,audio/Narrative6Situation2.wav,1241.7787,,1241.7794,1270.3276,[],1,0,1270.3285,1274.7013,39.27083333,2.5773,"[{""rating"":48.4375,""responseTime"":2.0960000000000036},{""rating"":39.270833333333336,""responseTime"":2.577300000000605}]",space,3.776,,1274.7016,Half the time,50,1274.7137,,,[],,0,2,2,2,1,audio/Narrative7Situation2.wav,audio/Narrative8Situation2.wav,audio/Narrative5Situation2.wav,audio/Narrative6Situation2.wav,3,3,3,3,,,,,,,,,,,,,,,,,,,,,,,,,,,,,,,,,,,,,,,
,,,,,,66341ea0271d271dc78c8283,2024-05-13_10h53.39.838,group3.1-3.2-social-tom,2023.2.2,Win32,29.99310159,65c5074098b851296ff0b7ed,6642361cdf278957a48be864,,,,,,,,,,,,,,,,,,,,,,,,,,,,,1274.7146,2,audio/Narrative6Situation3.wav,1279.725,,1279.7256,1292.4166,"[[999,79],[999,145],[999,197],[999,255],[999,297],[999,364],[999,422],[999,481],[999,517],[999,578],[999,633],[999,695],[999,745],[999,803],[999,859],[999,912],[999,969],[999,1026],[999,1079],[999,1134],[999,1192],[999,1242],[999,1294],[999,1346],[999,1402],[999,1459],[999,1511],[999,1567],[999,1622],[999,1674],[999,1727],[999,1788],[999,1828],[999,1897],[999,1954],[999,1999],[999,2064],[999,2121],[999,2178],[999,2230],[999,2274],[999,2346],[999,2397],[999,2453],[999,2507],[999,2563],[999,2622],[999,2675],[999,2725],[999,2779],[999,2831],[999,2887],[999,2943],[999,2997],[999,3038],[999,3096],[999,3154],[999,3206],[999,3260],[999,3312],[999,3371],[999,3424],[999,3479],[999,3532],[999,3587],[999,3643],[999,3694],[999,3751],[999,3807],[999,3861],[999,3914],[999,3969],[999,4024],[999,4079],[999,4130],[999,4188],[999,4245],[999,4300],[999,4353],[999,4409],[999,4462],[999,4518],[999,4573],[999,4629],[999,4666],[999,4729],[999,4777],[999,4835],[999,4891],[999,4943],[999,5001],[999,5054],[999,5106],[999,5155],[999,5206],[999,5245],[999,5317],[999,5368],[999,5423],[999,5479],[999,5531],[999,5587],[999,5640],[999,5697],[999,5747],[999,5805],[999,5850],[999,5913],[999,5970],[999,6011],[999,6081],[999,6137],[999,6193],[999,6247],[999,6298],[999,6355],[999,6410],[999,6460],[999,6514],[999,6569],[999,6625],[999,6679],[999,6731],[999,6786],[999,6842],[999,6895],[999,6948],[999,7002],[999,7058],[999,7112],[999,7166],[999,7223],[999,7277],[999,7328],[999,7387],[999,7439],[999,7490],[999,7547],[999,7598],[999,7654],[999,7710],[999,7763],[999,7820],[999,7873],[999,7913],[999,7979],[999,8036],[999,8092],[999,8145],[999,8185],[999,8244],[999,8299],[999,8352],[999,8408],[999,8461],[999,8522],[999,8578],[999,8630],[999,8679],[999,8735],[999,8785],[999,8843],[999,8897],[999,8947],[999,9004],[999,9059],[999,9114],[999,9166],[999,9223],[999,9276],[999,9321],[999,9379],[999,9435],[999,9486],[999,9545],[999,9595],[999,9651],[999,9702],[999,9756],[999,9810],[999,9861],[999,9917],[999,9973],[999,10027],[999,10080],[999,10136],[999,10191],[999,10244],[999,10298],[999,10354],[999,10406],[999,10461],[999,10506],[999,10564],[999,10611],[999,10679],[999,10729],[999,10780],[999,10829],[999,10885],[999,10940],[999,10993],[999,11044],[999,11102],[999,11157],[999,11219],[999,11275],[999,11326],[999,11382],[999,11440],[999,11494],[999,11544],[999,11601],[999,11657],[999,11710],[999,11761],[999,11817],[999,11872],[999,11925],[999,11981],[999,12030],[999,12086],[999,12138],[999,12196],[999,12253],[999,12309],[999,12365],[999,12418],[999,12469],[999,12509],[999,12579],[999,12637],[999,12689]]",1,0,1292.4178,1299.1417,51.35416667,5.3389,"[{""rating"":51.354166666666664,""responseTime"":5.338900000000422}]",space,6.1522,,1299.1421,All the time,100,1299.1677,,,[],,0,3,3,3,1,audio/Narrative7Situation3.wav,audio/Narrative8Situation3.wav,audio/Narrative5Situation3.wav,audio/Narrative6Situation3.wav,8,4,3,5,,,,,,,,,,,,,,,,,,,,,,,,,,,,,,,,,,,,,,,
,,,,,,66341ea0271d271dc78c8283,2024-05-13_10h53.39.838,group3.1-3.2-social-tom,2023.2.2,Win32,29.99310159,65c5074098b851296ff0b7ed,6642361cdf278957a48be864,,,,,,,,,,,,,,,,,,,,,,,,,,,,,1299.1688,2,audio/Narrative6Situation4.wav,1301.1945,,1301.1948,1313.8552,[],1,0,1313.8557,1317.1552,82.29166667,1.7891,"[{""rating"":82.29166666666667,""responseTime"":1.7890999999995074}]",space,2.7006,,1317.1557,Half the time,50,1317.1808,,,[],,0,4,4,4,1,audio/Narrative7Situation4.wav,audio/Narrative8Situation4.wav,audio/Narrative5Situation4.wav,audio/Narrative6Situation4.wav,3,3,1,2,,,,,,,,,,,,,,,,,,,,,,,,,,,,,,,,,,,,,,,
,,,,,,66341ea0271d271dc78c8283,2024-05-13_10h53.39.838,group3.1-3.2-social-tom,2023.2.2,Win32,29.99310159,65c5074098b851296ff0b7ed,6642361cdf278957a48be864,,,,,,,,,,,,,,,,,,,,,,,,,,,,,1317.1831,2,audio/Narrative6Situation5.wav,1319.19,,1319.1902,1327.1687,[],1,0,1327.1694,1331.3192,86.45833333,2.4013,"[{""rating"":86.45833333333333,""responseTime"":2.4013000000009015}]",space,3.5889,,1331.3193,Not at all,0,1331.3296,,,[],,0,5,5,5,1,audio/Narrative7Situation5.wav,audio/Narrative8Situation5.wav,audio/Narrative5Situation5.wav,audio/Narrative6Situation5.wav,5,2,5,2,,,,,,,,,,,,,,,,,,,,,,,,,,,,,,,,,,,,,,,
,,,,,,66341ea0271d271dc78c8283,2024-05-13_10h53.39.838,group3.1-3.2-social-tom,2023.2.2,Win32,29.99310159,65c5074098b851296ff0b7ed,6642361cdf278957a48be864,,,,,,,,,,,,,,,,,,,,,,,,,,,,,1331.3307,2,audio/Narrative6Situation6.wav,1333.3337,,1333.3339,1344.4828,"[[86.6,11040]]",1,0,1344.4835,1349.8247,87.39583333,1.3426,"[{""rating"":87.39583333333334,""responseTime"":1.3425999999994929}]",space,4.7726,,1349.8249,Half the time,50,1349.8701,,,[],,0,6,6,6,1,audio/Narrative7Situation6.wav,audio/Narrative8Situation6.wav,audio/Narrative5Situation6.wav,audio/Narrative6Situation6.wav,3,2,3,2,,,,,,,,,,,,,,,,,,,,,,,,,,,,,,,,,,,,,,,
,,,,,,66341ea0271d271dc78c8283,2024-05-13_10h53.39.838,group3.1-3.2-social-tom,2023.2.2,Win32,29.99310159,65c5074098b851296ff0b7ed,6642361cdf278957a48be864,,,,,,,,,,,,,,,,,,,,,,,,,,,,,1349.8707,2,audio/Narrative6Situation7.wav,1354.8748,,1354.8751,1379.7624,"[[999,21],[999,77],[999,125],[999,178],[999,235],[999,290],[999,347],[999,401],[999,454],[999,509],[999,562],[999,618],[999,674],[999,728],[999,779],[999,832],[999,891],[999,949],[999,1000],[999,1060],[999,1111],[999,1162],[999,1214],[999,1271],[999,1329],[999,1380],[999,1437],[999,1488],[999,1547],[999,1604],[999,1644],[999,1713],[999,1770],[999,1826],[999,1880],[999,1931],[999,1988],[999,2030],[999,2094],[999,2151],[999,2207],[999,2261],[999,2312],[999,2370],[999,2419],[999,2475],[999,2528],[999,2586],[999,2642],[999,2695],[999,2748],[999,2803],[999,2858],[999,2911],[999,2963],[999,3019],[999,3079],[999,3120],[999,3182],[999,3236],[999,3289],[999,3346],[999,3398],[999,3454],[999,3509],[999,3562],[999,3614],[999,3657],[999,3729],[999,3787],[999,3841],[999,3900],[999,3946],[999,3999],[999,4058],[999,4110],[999,4169],[999,4216],[999,4270],[999,4326],[999,4377],[999,4433],[999,4487],[999,4543],[999,4594],[999,4651],[999,4706],[999,4773],[999,4825],[999,4879],[999,4942],[999,4994],[999,5045],[999,5099],[999,5154],[999,5210],[999,5261],[999,5318],[999,5374],[999,5428],[999,5482],[999,5537],[999,5589],[999,5646],[999,5696],[999,5754],[999,5798],[999,5864],[999,5920],[999,5976],[999,6026],[999,6080],[999,6127],[999,6189],[999,6230],[999,6296],[999,6351],[999,6406],[999,6461],[999,6518],[999,6572],[999,6625],[999,6678],[999,6728],[999,6786],[999,6841],[999,6894],[999,6946],[999,7002],[999,7057],[999,7111],[999,7172],[999,7225],[999,7279],[999,7341],[999,7391],[999,7447],[999,7501],[999,7551],[999,7606],[999,7657],[999,7708],[999,7750],[999,7828],[999,7871],[999,7934],[999,7982],[999,8039],[999,8089],[999,8143],[999,8192],[999,8240],[999,8290],[999,8327],[999,8397],[999,8437],[999,8489],[999,8547],[999,8606],[999,8661],[999,8712],[999,8770],[999,8824],[999,8881],[999,8928],[999,8988],[999,9025],[999,9094],[999,9149],[999,9203],[999,9259],[999,9319],[999,9375],[999,9428],[999,9485],[999,9536],[999,9591],[999,9645],[999,9694],[999,9756],[999,9811],[999,9864],[999,9923],[999,9975],[999,10035],[999,10087],[999,10135],[999,10187],[999,10240],[999,10296],[999,10347],[999,10405],[999,10451],[999,10513],[999,10560],[999,10633],[999,10687],[999,10740],[999,10797],[999,10846],[999,10903],[999,10958],[999,11012],[999,11064],[999,11106],[999,11180],[999,11229],[999,11298],[999,11355],[999,11411],[999,11464],[999,11514],[999,11558],[999,11629],[999,11683],[999,11738],[999,11794],[999,11847],[999,11902],[999,11956],[999,12012],[999,12070],[999,12119],[999,12176],[999,12229],[999,12285],[999,12339],[999,12391],[999,12445],[999,12497],[999,12549],[999,12606],[999,12660],[999,12723],[999,12774],[999,12828],[999,12878],[999,12942],[999,12992],[999,13046],[999,13096],[999,13154],[999,13206],[999,13261],[999,13312],[999,13360],[999,13431],[999,13486],[999,13539],[999,13595],[999,13639],[999,13685],[999,13744],[999,13802],[999,13843],[999,13909],[999,13961],[999,14018],[999,14068],[999,14118],[999,14173],[999,14224],[999,14290],[999,14343],[999,14394],[999,14451],[999,14507],[999,14560],[999,14618],[999,14675],[999,14728],[999,14785],[999,14840],[999,14906],[999,14959],[999,15012],[999,15073],[999,15124],[999,15177],[999,15227],[999,15285],[999,15347],[999,15389],[999,15446],[999,15503],[999,15557],[999,15601],[999,15663],[999,15719],[999,15773],[999,15829],[999,15887],[999,15941],[999,15997],[999,16047],[999,16103],[999,16159],[999,16212],[999,16261],[999,16318],[999,16374],[999,16428],[999,16481],[999,16536],[999,16591],[999,16651],[999,16706],[999,16751],[999,16802],[999,16853],[999,16913],[999,16962],[999,17021],[999,17078],[999,17131],[999,17174],[999,17243],[999,17280],[999,17344],[999,17390],[999,17427],[999,17493],[999,17540],[999,17590],[999,17657],[999,17707],[999,17762],[999,17815],[999,17869],[999,17925],[999,17977],[999,18033],[999,18089],[999,18144],[999,18197],[999,18251],[999,18305],[999,18361],[999,18415],[999,18473],[999,18526],[999,18580],[999,18631],[999,18676],[999,18748],[999,18797],[999,18853],[999,18909],[999,18965],[999,19018],[999,19072],[999,19127],[999,19182],[999,19236],[999,19292],[999,19342],[999,19393],[999,19445],[999,19503],[999,19558],[999,19619],[999,19676],[999,19729],[999,19788],[999,19845],[999,19897],[999,19952],[999,19999],[999,20050],[999,20100],[999,20153],[999,20205],[999,20263],[999,20322],[999,20377],[999,20430],[999,20481],[999,20538],[999,20583],[999,20639],[999,20699],[999,20753],[999,20809],[999,20863],[999,20911],[999,20970],[999,21028],[999,21079],[999,21132],[999,21186],[999,21242],[999,21294],[999,21350],[999,21406],[999,21460],[999,21511],[999,21568],[999,21624],[999,21678],[999,21728],[999,21790],[999,21842],[999,21895],[999,21950],[999,22003],[999,22052],[999,22114],[999,22171],[999,22217],[999,22281],[999,22340],[999,22397],[999,22451],[999,22493],[999,22561],[999,22619],[999,22669],[999,22730],[999,22786],[999,22839],[999,22896],[999,22947],[999,23000],[999,23053],[999,23107],[999,23148],[999,23212],[999,23269],[999,23310],[999,23379],[999,23422],[999,23495],[999,23535],[999,23594],[999,23651],[999,23711],[999,23760],[999,23816],[999,23873],[999,23927],[999,23986],[999,24040],[999,24095],[999,24147],[999,24204],[999,24260],[999,24318],[999,24378],[999,24447],[999,24511],[999,24560],[999,24637],[999,24674],[999,24747],[999,24804],[999,24857]]",1,0,1379.7641,1383.9762,92.5,2.9723,"[{""rating"":92.5,""responseTime"":2.972300000000814}]",space,3.6333,,1383.9764,Not at all,0,1383.9947,,,[],,0,7,7,7,1,audio/Narrative7Situation7.wav,audio/Narrative8Situation7.wav,audio/Narrative5Situation7.wav,audio/Narrative6Situation7.wav,5,3,4,5,,,,,,,,,,,,,,,,,,,,,,,,,,,,,,,,,,,,,,,
,,,,,,66341ea0271d271dc78c8283,2024-05-13_10h53.39.838,group3.1-3.2-social-tom,2023.2.2,Win32,29.99310159,65c5074098b851296ff0b7ed,6642361cdf278957a48be864,,,,,,,,,,,,,,,,,,,,,,,,,,,,,1383.996,2,audio/Narrative6Situation8.wav,1388.9984,,1388.9986,1395.8802,[],1,0,1395.8809,1399.231,92.5,1.3408,"[{""rating"":92.5,""responseTime"":1.3407999999988078}]",space,2.772,,1399.2314,Half the time,50,1399.2515,,,[],,0,8,8,8,1,audio/Narrative7Situation8.wav,audio/Narrative8Situation8.wav,audio/Narrative5Situation8.wav,audio/Narrative6Situation8.wav,2,3,3,5,,,,,,,,,,,,,,,,,,,,,,,,,,,,,,,,,,,,,,,
,,,,,,66341ea0271d271dc78c8283,2024-05-13_10h53.39.838,group3.1-3.2-social-tom,2023.2.2,Win32,29.99310159,65c5074098b851296ff0b7ed,6642361cdf278957a48be864,,,,,,,,,,,,,,,,,,,,,,,,,,,,,1399.2535,2,audio/Narrative6Situation9.wav,1403.2695,,1403.2704,1413.2291,"[[999,80],[999,164],[999,214],[999,277],[999,330],[999,383],[999,440],[999,495],[999,548],[999,601],[999,656],[999,717],[999,769],[999,825],[999,885],[999,936],[999,994],[999,1050],[999,1103],[999,1158],[999,1202],[999,1268],[999,1325],[999,1381],[999,1423],[999,1488],[999,1539],[999,1589],[999,1638],[999,1687],[999,1741],[999,1800],[999,1848],[999,1902],[999,1958],[999,2013],[999,2064],[999,2127],[999,2180],[999,2233],[999,2289],[999,2348],[999,2399],[999,2461],[999,2512],[999,2566],[999,2620],[999,2673],[999,2733],[999,2787],[999,2842],[999,2894],[999,2952],[999,3002],[999,3060],[999,3115],[999,3169],[999,3222],[999,3277],[999,3332],[999,3386],[999,3427],[999,3500],[999,3559],[999,3612],[999,3667],[999,3719],[999,3775],[999,3833],[999,3881],[999,3930],[999,3983],[999,4039],[999,4095],[999,4149],[999,4201],[999,4258],[999,4314],[999,4366],[999,4421],[999,4472],[999,4530],[999,4582],[999,4632],[999,4687],[999,4744],[999,4802],[999,4842],[999,4893],[999,4952],[999,5009],[999,5064],[999,5117],[999,5156],[999,5215],[999,5273],[999,5329],[999,5381],[999,5434],[999,5490],[999,5546],[999,5606],[999,5656],[999,5713],[999,5771],[999,5824],[999,5880],[999,5935],[999,5988],[999,6044],[999,6098],[999,6149],[999,6204],[999,6258],[999,6312],[999,6367],[999,6419],[999,6475],[999,6531],[999,6584],[999,6634],[999,6692],[999,6745],[999,6785],[999,6850],[999,6909],[999,6961],[999,7017],[999,7073],[999,7124],[999,7174],[999,7230],[999,7284],[999,7341],[999,7397],[999,7447],[999,7500],[999,7557],[999,7608],[999,7663],[999,7720],[999,7770],[999,7824],[999,7883],[999,7934],[999,7986],[999,8043],[999,8088],[999,8144],[999,8202],[999,8259],[999,8311],[999,8364],[999,8417],[999,8475],[999,8530],[999,8585],[999,8633],[999,8690],[999,8746],[999,8799],[999,8849],[999,8906],[999,8961],[999,9012],[999,9068],[999,9118],[999,9173],[999,9215],[999,9280],[999,9330],[999,9374],[999,9434],[999,9492],[999,9531],[999,9600],[999,9658],[999,9710],[999,9767],[999,9824],[999,9878],[999,9934]]",1,0,1413.2302,1418.7664,96.45833333,4.61,"[{""rating"":89.27083333333333,""responseTime"":2.3100999999994656},{""rating"":96.45833333333333,""responseTime"":4.6099999999999}]",space,4.9841,,1418.767,Half the time,50,1418.7851,,,[],,0,9,9,9,1,audio/Narrative7Situation9.wav,audio/Narrative8Situation9.wav,audio/Narrative5Situation9.wav,audio/Narrative6Situation9.wav,2,3,3,4,,,,,,,,,,,,,,,,,,,,,,,,,,,,,,,,,,,,,,,
,,,,,,66341ea0271d271dc78c8283,2024-05-13_10h53.39.838,group3.1-3.2-social-tom,2023.2.2,Win32,29.99310159,65c5074098b851296ff0b7ed,6642361cdf278957a48be864,,,,,,,,,,,,,,,,,,,,,,,,,,,,,1418.7873,2,audio/Narrative5Situation1.wav,1423.7895,,1423.7899,1437.1466,[],1,0,1437.1468,1440.1439,72.39583333,1.5122,"[{""rating"":72.39583333333334,""responseTime"":1.5121999999994387}]",space,2.4248,,1440.1443,All the time,100,1440.1685,,,[],,0,10,10,10,1,audio/Narrative8Situation1.wav,audio/Narrative7Situation1.wav,audio/Narrative6Situation1.wav,audio/Narrative5Situation1.wav,5,2,2,5,,,,,,,,,,,,,,,,,,,,,,,,,,,,,,,,,,,,,,,
,,,,,,66341ea0271d271dc78c8283,2024-05-13_10h53.39.838,group3.1-3.2-social-tom,2023.2.2,Win32,29.99310159,65c5074098b851296ff0b7ed,6642361cdf278957a48be864,,,,,,,,,,,,,,,,,,,,,,,,,,,,,1440.17,2,audio/Narrative5Situation2.wav,1443.1777,,1443.178,1472.6877,"[[999,3],[999,74],[999,125],[999,178],[999,234],[999,289],[999,342],[999,398],[999,458],[999,509],[999,558],[999,624],[999,684],[999,739],[999,792],[999,846],[999,901],[999,960],[999,1003],[999,1063],[999,1120],[999,1175],[999,1227],[999,1284],[999,1335],[999,1396],[999,1457],[999,1527],[999,1586],[999,1637],[999,1687],[999,1738],[999,1786],[999,1840],[999,1894],[999,1932],[999,1991],[999,2048],[999,2104],[999,2161],[999,2211],[999,2266],[999,2322],[999,2376],[999,2432],[999,2488],[999,2542],[999,2594],[999,2651],[999,2707],[999,2758],[999,2815],[999,2870],[999,2924],[999,2974],[999,3038],[999,3093],[999,3145],[999,3202],[999,3257],[999,3312],[999,3364],[999,3421],[999,3474],[999,3526],[999,3568],[999,3628],[999,3686],[999,3744],[999,3800],[70.8,4148],[70.7,4204],[70.7,4259],[70.7,4311],[70.6,4372],[68.1,4435],[61,4495],[51.5,4556],[47.4,4613],[47.3,4676],[47.3,4729],[47.3,4789],[47.3,4841],[47.3,4893],[47.3,4951],[47.2,5007],[47.2,5061],[47.2,5116],[47.2,5172],[47.2,5225],[47.2,5281],[47.2,5338],[47.2,5392],[47.2,5445],[47.2,5500],[47.2,5555],[47.2,5609],[47.2,5668],[47,5726],[47,5785],[48.1,5846],[51.9,5910],[56.4,5970],[59.5,6034],[61.6,6094],[62.2,6155],[63,6213],[65.3,6274],[67.7,6337],[68.8,6398],[68.8,6447],[68.8,6504],[68.8,6562],[68.8,6612],[68.8,6671],[68.8,6725],[68.8,6779],[68.8,6835],[68.8,6892],[68.8,6943],[68.8,6995],[68.8,7052],[68.8,7108],[68.8,7163],[68.8,7217],[68.8,7274],[68.8,7327],[68.8,7384],[68.8,7440],[68.8,7494],[68.8,7545],[68.8,7603],[68.8,7659],[68.8,7711],[68.8,7767],[68.8,7825],[68.8,7879],[68.8,7930],[68.8,7988],[68.8,8050],[68.8,8112],[68.8,8169],[68.8,8267],[68.8,8322],[68.8,8374],[68.8,8424],[68.8,8481],[68.8,8538],[68.8,8593],[68.8,8659],[68.8,8712],[68.8,8764],[68.8,8814],[68.8,8864],[68.8,8913],[68.8,8964],[68.8,9014],[68.8,9056],[68.8,9114],[68.8,9181],[68.8,9231],[68.8,9286],[68.8,9332],[68.8,9380],[68.8,9436],[68.8,9491],[68.8,9543],[68.8,9601],[68.8,9657],[68.8,9708],[68.8,9764],[68.8,9820],[68.8,9874],[68.8,9924],[68.8,9982],[68.8,10039],[68.8,10093],[68.8,10147],[68.8,10204],[68.8,10258],[68.8,10309],[68.8,10365],[68.8,10425],[68.8,10476],[68.8,10533],[68.8,10585],[68.8,10643],[68.8,10691],[68.8,10743],[68.8,10797],[68.8,10848],[68.8,10899],[68.8,10948],[68.8,10997],[68.8,11048],[68.8,11098],[68.8,11148],[68.8,11199],[68.8,11249],[68.8,11298],[68.8,11348],[68.8,11410],[68.8,11472],[68.8,11527],[68.8,11565],[68.8,11627],[68.8,11668],[68.8,11727],[68.8,11781],[68.8,11838],[68.8,11891],[68.8,11941],[68.8,11997],[68.8,12055],[68.8,12109],[68.8,12162],[68.8,12217],[68.8,12278],[68.8,12342],[68.8,12411],[68.8,12455],[68.8,12525],[68.8,12571],[68.8,12624],[68.8,12678],[68.8,12734],[68.8,12792],[68.8,12841],[68.8,12895],[68.8,12950],[68.8,13005],[68.8,13058],[68.8,13114],[68.8,13171],[68.8,13225],[68.8,13279],[68.8,13333],[68.8,13392],[68.8,13442],[68.8,13492],[68.8,13547],[68.8,13601],[68.8,13659],[68.8,13712],[68.8,13766],[68.8,13820],[68.8,13875],[68.8,13926],[68.8,13983],[68.8,14039],[68.8,14093],[68.8,14141],[68.8,14193],[68.8,14244],[68.8,14291],[68.8,14347],[68.8,14401],[68.8,14456],[68.8,14509],[68.8,14565],[68.8,14625],[68.8,14676],[68.8,14728],[68.8,14785],[68.8,14843],[68.8,14894],[68.8,14950],[68.8,15004],[68.8,15059],[68.8,15111],[68.8,15167],[68.8,15223],[68.8,15277],[68.8,15327],[68.8,15384],[68.8,15440],[68.8,15495],[68.8,15548],[68.8,15600],[68.8,15657],[68.8,15708],[68.8,15763],[68.8,15820],[68.8,15875],[68.8,15932],[68.8,15988],[68.8,16043],[68.8,16095],[68.8,16153],[68.8,16207],[68.8,16258],[68.8,16315],[68.8,16372],[68.8,16425],[68.8,16478],[68.8,16533],[68.8,16589],[68.8,16640],[68.8,16693],[68.8,16748],[68.8,16796],[68.8,16852],[68.8,16907],[68.8,16962],[68.8,17016],[68.8,17074],[68.8,17126],[68.8,17168],[68.8,17244],[68.8,17294],[68.8,17351],[68.8,17406],[68.8,17460],[68.8,17510],[68.8,17568],[68.8,17623],[68.8,17678],[68.8,17728],[68.8,17783],[68.8,17839],[68.8,17891],[68.8,17946],[68.8,18003],[68.8,18057],[68.8,18109],[68.8,18166],[68.8,18212],[68.8,18265],[68.8,18322],[68.8,18375],[68.8,18429],[68.8,18485],[68.8,18541],[68.8,18594],[68.8,18646],[68.8,18702],[68.8,18760],[68.8,18811],[68.8,18868],[68.8,18914],[68.8,18977],[68.8,19036],[68.8,19090],[68.8,19145],[68.8,19199],[68.8,19253],[68.8,19308],[68.8,19364],[68.8,19413],[68.8,19466],[68.8,19524],[68.8,19575],[68.8,19628],[68.8,19687],[68.8,19740],[68.8,19793],[68.8,19846],[68.8,19900],[68.8,19955],[68.8,20011],[68.8,20063],[68.8,20120],[68.8,20172],[68.8,20224],[68.8,20280],[68.8,20334],[68.8,20393],[68.8,20443],[68.8,20500],[68.8,20554],[68.8,20608],[68.8,20662],[68.8,20719],[68.8,20774],[68.8,20827],[68.8,20878],[68.8,20935],[68.8,20991],[68.8,21046],[68.8,21099],[68.8,21156],[68.8,21209],[68.8,21261],[68.8,21317],[68.8,21373],[68.8,21426],[68.8,21485],[68.8,21541],[68.8,21590],[68.8,21642],[68.8,21692],[68.8,21747],[68.8,21798],[68.8,21850],[68.8,21906],[68.8,21960],[68.8,22012],[68.8,22070],[68.8,22125],[68.8,22176],[68.8,22234],[68.8,22290],[68.8,22343],[68.8,22394],[68.8,22451],[68.8,22503],[68.8,22559],[68.8,22608],[68.8,22669],[68.8,22724],[68.8,22776],[68.8,22829],[68.8,22883],[68.8,22938],[68.8,22993],[68.8,23048],[68.8,23105],[68.8,23158],[68.8,23211],[68.8,23265],[68.8,23316],[68.8,23371],[68.8,23424],[68.8,23483],[68.8,23540],[68.8,23591],[68.8,23649],[68.8,23705],[68.8,23757],[68.8,23811],[68.8,23861],[68.8,23918],[68.8,23973],[68.8,24029],[68.8,24078],[68.8,24138],[68.8,24191],[68.8,24240],[68.8,24294],[68.8,24342],[68.8,24400],[68.8,24455],[68.8,24509],[68.8,24562],[68.8,24616],[68.8,24672],[68.8,24724],[68.8,24781],[68.8,24837],[68.8,24894],[68.8,24942],[68.8,24998],[68.8,25055],[68.8,25108],[68.8,25159],[68.8,25215],[68.8,25273],[68.8,25327],[68.8,25381],[68.8,25432],[68.8,25485],[68.8,25540],[68.8,25594],[68.8,25645],[68.8,25703],[68.8,25758],[68.8,25809],[68.8,25867],[68.8,25923],[68.8,25976],[68.8,26028],[68.8,26082],[68.8,26141],[68.8,26191],[68.8,26250],[68.8,26304],[68.8,26358],[68.8,26409],[68.8,26459],[68.8,26515],[68.8,26566],[68.8,26622],[68.8,26674],[68.8,26730],[68.8,26784],[68.8,26840],[68.8,26891],[68.8,26948],[68.8,27007],[68.8,27061],[68.8,27111],[68.8,27167],[68.8,27221],[68.8,27277],[68.8,27334],[68.8,27389],[68.8,27443],[68.8,27494],[68.8,27551],[68.8,27607],[68.8,27663],[68.8,27717],[68.8,27773],[68.8,27827],[68.8,27877],[68.8,27934],[68.8,27990],[68.8,28045],[68.8,28096],[68.8,28156],[68.8,28207],[68.8,28256],[68.8,28308],[68.8,28363],[68.8,28420],[68.8,28474],[68.8,28525],[68.8,28586],[68.8,28641],[68.8,28691],[68.8,28746],[68.8,28799],[68.8,28859],[68.8,28913],[68.8,28963],[68.8,29021],[68.8,29072],[68.8,29126],[68.8,29177],[68.8,29234],[68.8,29291],[68.8,29344],[68.8,29395],[68.8,29453],[68.8,29508]]",1,0,1472.6903,1478.2834,80.83333333,2.6733,"[{""rating"":80.83333333333333,""responseTime"":2.673299999999017}]",space,5.0188,,1478.2838,All the time,100,1478.2993,,,[],,0,11,11,11,1,audio/Narrative8Situation2.wav,audio/Narrative7Situation2.wav,audio/Narrative6Situation2.wav,audio/Narrative5Situation2.wav,3,3,3,3,,,,,,,,,,,,,,,,,,,,,,,,,,,,,,,,,,,,,,,
,,,,,,66341ea0271d271dc78c8283,2024-05-13_10h53.39.838,group3.1-3.2-social-tom,2023.2.2,Win32,29.99310159,65c5074098b851296ff0b7ed,6642361cdf278957a48be864,,,,,,,,,,,,,,,,,,,,,,,,,,,,,1478.3012,2,audio/Narrative5Situation3.wav,1481.3117,,1481.312,1495.2297,"[[999,61],[999,115],[999,169],[999,225],[999,274],[999,330],[999,388],[999,426],[999,490],[999,552],[999,591],[999,656],[999,718],[999,759],[999,825],[999,886],[999,941],[999,990],[999,1048],[999,1098],[999,1154],[999,1207],[999,1264],[999,1319],[999,1373],[999,1424],[999,1480],[999,1536],[999,1591],[999,1642],[999,1699],[999,1745],[999,1801],[999,1857],[999,1912],[999,1965],[999,2010],[999,2078],[999,2134],[999,2190],[999,2243],[999,2295],[999,2350],[999,2403],[999,2460],[999,2517],[999,2558],[999,2625],[999,2683],[999,2739],[999,2793],[999,2840],[999,2902],[999,2956],[999,3006],[999,3063],[999,3119],[999,3173],[999,3224],[999,3282],[999,3342],[999,3399],[999,3456],[999,3508],[999,3555],[999,3607],[999,3660],[999,3717],[999,3770],[999,3835],[999,3888],[999,3942],[999,3995],[999,4049],[999,4109],[999,4152],[999,4202],[999,4259],[999,4317],[999,4369],[999,4421],[999,4476],[999,4530],[999,4584],[999,4640],[999,4689],[999,4751],[999,4791],[999,4857],[999,4914],[999,4965],[999,5022],[999,5073],[999,5131],[999,5181],[999,5231],[999,5287],[999,5341],[999,5398],[999,5452],[999,5504],[999,5561],[999,5611],[999,5672],[999,5725],[999,5773],[999,5826],[999,5877],[999,5935],[999,5990],[999,6041],[999,6098],[999,6152],[999,6193],[999,6257],[999,6314],[999,6370],[999,6423],[999,6481],[999,6541],[999,6590],[999,6640],[999,6695],[999,6750],[999,6805],[999,6859],[999,6917],[999,6971],[999,7024],[999,7075],[999,7131],[999,7185],[999,7240],[999,7293],[999,7343],[999,7400],[999,7456],[999,7510],[999,7565],[999,7618],[999,7671],[999,7726],[999,7783],[999,7835],[999,7876],[999,7942],[999,7998],[999,8038],[999,8106],[999,8163],[999,8221],[999,8272],[999,8323],[999,8371],[999,8423],[999,8486],[999,8538],[999,8592],[999,8645],[999,8700],[999,8754],[999,8808],[999,8854],[999,8917],[999,8969],[999,9024],[999,9076],[999,9133],[999,9186],[999,9241],[999,9292],[999,9335],[999,9409],[999,9467],[999,9519],[999,9569],[999,9630],[999,9689],[999,9743],[999,9789],[999,9840],[999,9891],[999,9948],[999,10004],[999,10059],[999,10112],[999,10169],[999,10223],[999,10274],[999,10329],[999,10383],[999,10438],[999,10492],[999,10546],[999,10600],[999,10648],[999,10709],[999,10765],[999,10819],[999,10863],[999,10929],[999,10985],[999,11041],[999,11094],[999,11148],[999,11203],[999,11254],[999,11309],[999,11365],[999,11418],[999,11476],[999,11533],[999,11585],[999,11631],[999,11691],[999,11750],[999,11802],[999,11855],[999,11904],[999,11964],[999,12020],[999,12074],[999,12127],[999,12186],[999,12239],[999,12290],[999,12339],[999,12390],[999,12447],[999,12505],[999,12559],[999,12609],[999,12667],[999,12723],[999,12776],[999,12827],[999,12883],[999,12930],[999,12992],[999,13050],[999,13106],[999,13159],[999,13209],[999,13266],[999,13327],[999,13364],[999,13433],[999,13491],[999,13538],[999,13608],[999,13656],[999,13697],[999,13758],[999,13813],[999,13866],[999,13916]]",1,0,1495.231,1502.0262,87.29166667,4.5422,"[{""rating"":87.29166666666667,""responseTime"":4.542199999999184}]",space,6.2424,,1502.0264,Not at all,0,1502.0413,,,[],,0,12,12,12,1,audio/Narrative8Situation3.wav,audio/Narrative7Situation3.wav,audio/Narrative6Situation3.wav,audio/Narrative5Situation3.wav,4,8,5,3,,,,,,,,,,,,,,,,,,,,,,,,,,,,,,,,,,,,,,,
,,,,,,66341ea0271d271dc78c8283,2024-05-13_10h53.39.838,group3.1-3.2-social-tom,2023.2.2,Win32,29.99310159,65c5074098b851296ff0b7ed,6642361cdf278957a48be864,,,,,,,,,,,,,,,,,,,,,,,,,,,,,1502.0428,2,audio/Narrative5Situation4.wav,1503.0816,,1503.0819,1523.4863,"[[999,3],[999,86],[999,141],[999,200],[999,249],[999,306],[999,362],[999,420],[999,460],[999,510],[999,566],[999,622],[999,672],[999,731],[999,789],[999,838],[999,895],[999,951],[999,1005],[999,1057],[999,1112],[999,1169],[999,1220],[999,1281],[999,1331],[999,1385],[999,1437],[999,1493],[999,1554],[999,1617],[999,1671],[999,1720],[999,1778],[999,1826],[999,1874],[999,1933],[999,1985],[999,2040],[999,2096],[999,2154],[999,2209],[65.6,2269],[65.1,2329],[64.2,2386],[63.2,2438],[63.1,2496],[63,2559],[62.9,2610],[62.9,2659],[62.6,2719],[61.3,2778],[58.5,2835],[54.6,2891],[53.5,2953],[53.5,3005],[53.5,3060],[53.5,3118],[53.5,3172],[53.5,3228],[53.5,3284],[53.5,3339],[53.5,3390],[53.5,3445],[53.5,3505],[53.5,3547],[53.5,3607],[53.5,3662],[53.5,3715],[53.5,3772],[53.5,3820],[54.4,3879],[57.1,3938],[61.5,4000],[63.5,4061],[63.5,4114],[63.6,4182],[65.6,4238],[69.7,4289],[70.9,4352],[70.9,4403],[70.9,4458],[70.9,4515],[70.9,4570],[70.9,4621],[72.2,4683],[73.5,4741],[73.5,4800],[73.5,4854],[73.5,4904],[73.5,4961],[73.5,5018],[73.5,5071],[73.5,5125],[73.5,5182],[73.5,5240],[73.5,5291],[73.5,5346],[73.5,5404],[73.5,5461],[73.6,5516],[75,5578],[78.2,5632],[79.4,5689],[79.4,5744],[79.4,5796],[79.4,5855],[79.4,5906],[79.4,5963],[79.4,6019],[79.4,6072],[79.4,6125],[79.4,6182],[79.4,6238],[79.4,6289],[79.4,6346],[79.4,6400],[79.4,6455],[79.4,6503],[79.4,6555],[79.4,6608],[79.4,6663],[79.4,6719],[79.4,6770],[79.4,6828],[79.4,6886],[79.4,6936],[79.4,6987],[79.5,7040],[79.5,7099],[79.5,7154],[79.5,7205],[79.5,7262],[79.5,7317],[79.5,7368],[79.5,7419],[79.5,7473],[79.5,7530],[79.5,7586],[79.5,7640],[79.5,7691],[79.5,7750],[79.5,7803],[79.5,7853],[79.5,7908],[79.5,7960],[79.5,8014],[79.5,8069],[79.5,8124],[79.5,8185],[79.5,8242],[79.5,8291],[79.5,8344],[79.5,8399],[79.5,8453],[79.5,8504],[79.5,8561],[79.5,8617],[79.5,8670],[79.5,8724],[79.5,8774],[79.5,8825],[79.5,8879],[79.5,8939],[79.5,8989],[79.5,9042],[79.5,9103],[79.5,9155],[79.5,9221],[79.5,9283],[79.5,9331],[79.5,9384],[79.5,9441],[79.5,9491],[79.5,9548],[79.5,9604],[79.5,9657],[79.5,9710],[79.5,9766],[79.5,9821],[79.5,9874],[79.5,9930],[79.5,9986],[79.5,10040],[79.5,10089],[79.5,10149],[79.5,10204],[79.5,10255],[79.5,10313],[79.5,10365],[79.5,10421],[79.5,10469],[79.5,10531],[79.5,10582],[79.5,10637],[79.5,10688],[79.5,10746],[79.5,10802],[79.5,10860],[79.5,10906],[79.5,10957],[79.5,11012],[79.5,11068],[79.5,11122],[79.5,11175],[79.5,11222],[79.5,11280],[79.5,11335],[79.5,11389],[79.5,11440],[79.5,11498],[79.5,11556],[79.5,11608],[79.5,11667],[79.5,11703],[79.5,11771],[79.5,11823],[79.5,11881],[79.5,11917],[79.5,11989],[79.5,12046],[79.5,12103],[79.5,12158],[79.5,12207],[79.5,12262],[79.5,12318],[79.5,12370],[79.5,12428],[79.5,12483],[79.5,12537],[79.5,12588],[79.5,12641],[79.5,12696],[79.5,12753],[79.5,12804],[79.5,12859],[79.5,12916],[79.5,12970],[79.5,13020],[79.5,13076],[79.5,13135],[79.5,13190],[79.5,13242],[79.5,13299],[79.5,13357],[79.5,13413],[79.5,13469],[79.5,13522],[79.5,13574],[79.5,13629],[79.5,13678],[79.5,13739],[79.5,13788],[79.5,13844],[79.5,13899],[79.5,13955],[79.5,14004],[79.5,14055],[79.5,14109],[79.5,14166],[79.5,14221],[79.5,14274],[79.5,14329],[79.5,14382],[79.5,14436],[79.5,14488],[79.5,14546],[79.5,14599],[79.5,14653],[79.5,14704],[79.5,14761],[79.5,14814],[79.5,14874],[79.5,14924],[79.5,14980],[79.5,15036],[79.5,15090],[79.5,15141],[79.5,15198],[79.5,15253],[79.5,15307],[79.5,15358],[79.5,15416],[79.5,15471],[79.5,15522],[79.5,15580],[79.5,15633],[79.5,15688],[79.5,15737],[79.5,15795],[79.5,15851],[79.5,15903],[79.5,15954],[79.5,16010],[79.5,16066],[79.5,16121],[79.5,16174],[79.5,16229],[79.5,16284],[79.5,16338],[79.5,16392],[79.5,16449],[79.5,16503],[79.5,16554],[79.5,16611],[79.5,16667],[79.5,16721],[79.5,16775],[79.5,16829],[79.5,16888],[79.5,16940],[79.5,16997],[79.5,17048],[79.5,17108],[79.5,17165],[79.5,17220],[79.5,17275],[79.5,17329],[79.5,17383],[79.5,17438],[79.5,17489],[79.5,17546],[79.5,17601],[79.5,17656],[79.5,17706],[79.5,17764],[79.5,17819],[79.5,17873],[79.5,17924],[79.5,17981],[79.5,18038],[79.5,18092],[79.5,18144],[79.5,18201],[79.5,18255],[79.5,18307],[79.5,18362],[79.5,18412],[79.5,18468],[79.5,18524],[79.5,18575],[79.5,18629],[79.5,18685],[79.5,18738],[79.5,18795],[79.5,18849],[79.5,18906],[79.5,18958],[79.5,19014],[79.5,19070],[79.5,19125],[79.5,19178],[79.5,19230],[79.5,19288],[79.5,19338],[79.5,19388],[79.5,19440],[79.5,19507],[79.5,19561],[79.5,19615],[79.5,19666],[79.5,19723],[79.5,19778],[79.5,19824],[79.5,19880],[79.5,19932],[79.5,19987],[79.5,20044],[79.5,20100],[79.5,20155],[79.5,20208],[79.5,20262],[79.5,20320],[79.5,20369]]",1,0,1523.4884,1533.0928,82.70833333,8.0134,"[{""rating"":82.70833333333334,""responseTime"":8.013400000000502}]",space,9.0459,,1533.0933,Not at all,0,1533.1082,,,[],,0,13,13,13,1,audio/Narrative8Situation4.wav,audio/Narrative7Situation4.wav,audio/Narrative6Situation4.wav,audio/Narrative5Situation4.wav,3,3,2,1,,,,,,,,,,,,,,,,,,,,,,,,,,,,,,,,,,,,,,,
