exp_question,consent.started,consent.stopped,consentResponse.keys,consentResponse.rt,consentResponse.duration,participantID,date,expName,psychopyVersion,OS,frameRate,STUDY_ID,SESSION_ID,opening1.started,opening1.stopped,keyEndingOpening1.keys,keyEndingOpening1.rt,keyEndingOpening1.duration,volumeAdjust.started,volumeAdjust.stopped,endingAdjust.keys,endingAdjust.rt,endingAdjust.duration,opening2.started,opening2.stopped,keyEndingOpening.keys,keyEndingOpening.rt,keyEndingOpening.duration,mouse.x,mouse.y,mouse.leftButton,mouse.midButton,mouse.rightButton,mouse.time,instructionLoop.thisRepN,instructionLoop.thisTrialN,instructionLoop.thisN,instructionLoop.thisIndex,instructionLoop.ran,readyForAudio.started,readyForAudio.stopped,fixation.started,run,audio_played,fixation.stopped,endPractice.keys,audioPre.started,audioPre.stopped,continuousResponses_audio,continuousSlider.response,continuousSlider.rt,intRating.started,intRating.stopped,intQuestionSlider.response,intQuestionSlider.rt,intQuestionSlider.history,confirmResponse.keys,confirmResponse.rt,confirmResponse.duration,catchQuestion.started,catch_label,catch_value,catchQuestion.stopped,catchQuestionSlider.response,catchQuestionSlider.rt,catchQuestionSlider.history,confirmResponse_2.keys,audioRunLoop.thisRepN,audioRunLoop.thisTrialN,audioRunLoop.thisN,audioRunLoop.thisIndex,audioRunLoop.ran,conditions1_1,conditions2_1,conditions1_2,conditions2_2,dur1_1,dur2_1,dur1_2,dur2_2,endPractice.rt,endPractice.duration,confirmResponse_2.rt,confirmResponse_2.duration,runIntervalBreak.started,runIntervalBreak.stopped,endingBreakKey.keys,endingBreakKey.rt,endingBreakKey.duration,connection.started,connection.stopped,connectionEnding.keys,connectionEnding.rt,connectionEnding.duration,readyForText.started,readyForText.stopped,textPre.started,run_dup,textPre.stopped,continuousResponses_text,textRunLoop.thisRepN,textRunLoop.thisTrialN,textRunLoop.thisN,textRunLoop.thisIndex,textRunLoop.ran,text1_1,text1_2,text2_1,text2_2,runBreakText.started,runBreakText.stopped,endingBreakKey_2.keys,endingBreakKey_2.rt,endingBreakKey_2.duration,ending.started,ending.stopped,endingEnding.keys,endingEnding.rt,endingEnding.duration
tom,0.0014,11.8,y,11.4828,,6634448bcfec693463ba71e4,2024-05-13_08h52.29.190,group3.1-3.2-social-tom,2023.2.2,MacIntel,59.84082341,65c5074098b851296ff0b7ed,6642372f30cfab3349bec0be,,,,,,,,,,,,,,,,,,,,,,,,,,,,,,,,,,,,,,,,,,,,,,,,,,,,,,,,,,,,,,,,,,,,,,,,,,,,,,,,,,,,,,,,,,,,,,,,,,,,,,,,,,
,,,,,,6634448bcfec693463ba71e4,2024-05-13_08h52.29.190,group3.1-3.2-social-tom,2023.2.2,MacIntel,59.84082341,65c5074098b851296ff0b7ed,6642372f30cfab3349bec0be,11.8003,15.9478,space,4.1232,,,,,,,,,,,,,,,,,,,,,,,,,,,,,,,,,,,,,,,,,,,,,,,,,,,,,,,,,,,,,,,,,,,,,,,,,,,,,,,,,,,,,,,,,,,,,,,,,,,,,,
,,,,,,6634448bcfec693463ba71e4,2024-05-13_08h52.29.190,group3.1-3.2-social-tom,2023.2.2,MacIntel,59.84082341,65c5074098b851296ff0b7ed,6642372f30cfab3349bec0be,,,,,,15.948,25.0873,space,8.818,,,,,,,,,,,,,,,,,,,,,,,,,,,,,,,,,,,,,,,,,,,,,,,,,,,,,,,,,,,,,,,,,,,,,,,,,,,,,,,,,,,,,,,,,,,,,,,,,
,,,,,,6634448bcfec693463ba71e4,2024-05-13_08h52.29.190,group3.1-3.2-social-tom,2023.2.2,MacIntel,59.84082341,65c5074098b851296ff0b7ed,6642372f30cfab3349bec0be,,,,,,,,,,,25.0928,32.6557,space,7.5412,,[],[],[],[],[],[],0,0,0,0,1,,,,,,,,,,,,,,,,,,,,,,,,,,,,,,,,,,,,,,,,,,,,,,,,,,,,,,,,,,,,,,,,,,,,,,,,,,,,,,,,
,,,,,,6634448bcfec693463ba71e4,2024-05-13_08h52.29.190,group3.1-3.2-social-tom,2023.2.2,MacIntel,59.84082341,65c5074098b851296ff0b7ed,6642372f30cfab3349bec0be,,,,,,,,,,,32.6566,56.4042,space,23.6148,,[],[],[],[],[],[],1,0,1,0,1,,,,,,,,,,,,,,,,,,,,,,,,,,,,,,,,,,,,,,,,,,,,,,,,,,,,,,,,,,,,,,,,,,,,,,,,,,,,,,,,
,,,,,,6634448bcfec693463ba71e4,2024-05-13_08h52.29.190,group3.1-3.2-social-tom,2023.2.2,MacIntel,59.84082341,65c5074098b851296ff0b7ed,6642372f30cfab3349bec0be,,,,,,,,,,,56.416,67.933,space,11.4744,,[],[],[],[],[],[],2,0,2,0,1,,,,,,,,,,,,,,,,,,,,,,,,,,,,,,,,,,,,,,,,,,,,,,,,,,,,,,,,,,,,,,,,,,,,,,,,,,,,,,,,
,,,,,,6634448bcfec693463ba71e4,2024-05-13_08h52.29.190,group3.1-3.2-social-tom,2023.2.2,MacIntel,59.84082341,65c5074098b851296ff0b7ed,6642372f30cfab3349bec0be,,,,,,,,,,,67.945,78.7625,space,10.7972,,[],[],[],[],[],[],3,0,3,0,1,,,,,,,,,,,,,,,,,,,,,,,,,,,,,,,,,,,,,,,,,,,,,,,,,,,,,,,,,,,,,,,,,,,,,,,,,,,,,,,,
,,,,,,6634448bcfec693463ba71e4,2024-05-13_08h52.29.190,group3.1-3.2-social-tom,2023.2.2,MacIntel,59.84082341,65c5074098b851296ff0b7ed,6642372f30cfab3349bec0be,,,,,,,,,,,78.7733,85.2636,space,6.4741,,[],[],[],[],[],[],4,0,4,0,1,,,,,,,,,,,,,,,,,,,,,,,,,,,,,,,,,,,,,,,,,,,,,,,,,,,,,,,,,,,,,,,,,,,,,,,,,,,,,,,,
,,,,,,6634448bcfec693463ba71e4,2024-05-13_08h52.29.190,group3.1-3.2-social-tom,2023.2.2,MacIntel,59.84082341,65c5074098b851296ff0b7ed,6642372f30cfab3349bec0be,,,,,,,,,,,,,,,,,,,,,,,,,,,85.2769,87.8525,87.8804,1,audio/Narrative13Situation2.wav,89.8932,,89.8934,119.6749,"[[999,1],[999,98],[999,183],[999,265],[999,348],[999,433],[999,516],[999,599],[999,683],[999,770],[999,851],[999,933],[999,1024],[999,1102],[999,1185],[999,1269],[999,1356],[999,1569],[999,1635],[999,1720],[999,1804],[999,1889],[999,1969],[999,2055],[999,2138],[999,2221],[999,2306],[999,2388],[999,2471],[999,2555],[999,2639],[999,2723],[999,2805],[999,2889],[999,2974],[999,3057],[999,3143],[999,3223],[999,3307],[999,3392],[999,3473],[67.7,3558],[65.6,3642],[65.4,3725],[65.4,3808],[65.4,3893],[65.1,3975],[62.1,4061],[58,4144],[52.4,4228],[50.7,4310],[50.3,4397],[49.2,4478],[73.3,23111],[73.2,23196],[73.1,23278],[73.1,23361],[73.1,23445],[73.1,23528],[73.1,23613],[73.1,23695],[73.1,23781],[73.1,23863],[73.1,23946],[73.1,24030],[73.1,24113],[73.1,24195],[73.1,24280],[73.1,24365],[73.1,24447],[73.1,24530],[73.1,24616],[73.5,24700],[73,26287],[73,26369],[73,26452],[73,26537],[73,26620],[73,26702],[73,26786],[73,26871],[73,26954],[73,27038]]",1,0,119.6751,126.0581,72.59880914,3.6231,"[{""rating"":72.59880913628473,""responseTime"":3.6231000000238396}]",space,5.8345,,126.0584,Half the time,50,126.0635,,,[],,0,0,0,0,1,audio/Narrative13Situation2.wav,audio/Narrative13Situation2.wav,audio/Narrative13Situation2.wav,audio/Narrative13Situation2.wav,2,2,2,2,,,,,,,,,,,,,,,,,,,,,,,,,,,,,,,,,,,,,,,
,,,,,,6634448bcfec693463ba71e4,2024-05-13_08h52.29.190,group3.1-3.2-social-tom,2023.2.2,MacIntel,59.84082341,65c5074098b851296ff0b7ed,6642372f30cfab3349bec0be,,,,,,,,,,,,,,,,,,,,,,,,,,,,,126.064,1,audio/Narrative7Situation1.wav,127.6268,space,127.6268,183.5119,"[[73.2,4634],[73.7,4714],[74.6,4797],[74.9,4879],[74.9,4963],[74.9,5048],[74.9,5129],[74.9,5212],[74.9,5297],[74.9,5379],[74.9,5467],[74.9,5547],[74.9,5632],[74.9,5716],[74.9,5800],[74.9,5884],[74.9,5965],[74.9,6051],[74.9,6133],[74.8,6721],[74.7,6801],[74.7,6885],[74.7,6966],[74.7,7054],[74.7,7136],[74.7,7221],[86,14738],[91.9,15075],[91.6,15160],[90.8,15241],[90.2,15323],[89.9,15407],[89.9,15491],[89.9,15576],[89.9,15660],[89.9,15742],[89.9,15824],[89.4,15910],[92.6,38635],[92.9,38723],[94.4,38803],[94.4,38886],[94.4,38972],[94.4,39054],[94.4,39137],[94.4,39220],[94.4,39306],[94.4,39387]]",1,0,183.5121,187.152,91.04908413,2.3092,"[{""rating"":91.04908413357205,""responseTime"":2.309199999988067}]",space,3.0861,,187.152,All the time,100,187.1562,,,[],,0,1,1,1,1,audio/Narrative7Situation1.wav,audio/Narrative8Situation1.wav,audio/Narrative5Situation1.wav,audio/Narrative6Situation1.wav,2,5,5,2,1.5409,,,,,,,,,,,,,,,,,,,,,,,,,,,,,,,,,,,,,,
,,,,,,6634448bcfec693463ba71e4,2024-05-13_08h52.29.190,group3.1-3.2-social-tom,2023.2.2,MacIntel,59.84082341,65c5074098b851296ff0b7ed,6642372f30cfab3349bec0be,,,,,,,,,,,,,,,,,,,,,,,,,,,,,187.1566,1,audio/Narrative7Situation2.wav,190.1597,,190.1598,197.631,"[[999,10],[999,82],[999,166],[999,249],[999,333],[999,417],[999,501],[999,583],[999,686],[999,768],[999,855],[999,935],[999,1018],[999,1104],[999,1185],[999,1269],[999,1353],[999,1437],[999,1519],[999,1604],[999,1689],[999,1770],[999,1854],[999,1938],[999,2021],[999,2106],[999,2188],[999,2271],[999,2358],[999,2439],[999,2525],[999,2608],[999,2690],[999,2775],[999,2859],[999,3000],[999,3075],[999,3160],[999,3241],[999,3325],[999,3408],[999,3491],[999,3577],[999,3659],[999,3742],[999,3827],[999,3909],[999,3995],[999,4078],[999,4162],[999,4245],[999,4329],[999,4411],[999,4495],[999,4579],[999,4662],[999,4745],[999,4828],[999,4912],[999,4996],[999,5081],[999,5164],[999,5248],[999,5330],[999,5417],[999,5499],[999,5582],[999,5665],[999,5749],[999,5833],[999,5916],[999,6000],[999,6083],[999,6166],[999,6252],[999,6334],[999,6416],[999,6501],[999,6584],[999,6668],[999,6751],[999,6834],[999,6918],[999,7002],[999,7088],[999,7169],[999,7254],[999,7336],[999,7420]]",1,0,197.6311,201.3417,49.93032667,2.3748,"[{""rating"":49.93032667371962,""responseTime"":2.3748000000119305}]",space,3.177,,201.3417,Not at all,0,201.3461,,,[],,0,2,2,2,1,audio/Narrative7Situation2.wav,audio/Narrative8Situation2.wav,audio/Narrative5Situation2.wav,audio/Narrative6Situation2.wav,3,3,3,3,,,,,,,,,,,,,,,,,,,,,,,,,,,,,,,,,,,,,,,
,,,,,,6634448bcfec693463ba71e4,2024-05-13_08h52.29.190,group3.1-3.2-social-tom,2023.2.2,MacIntel,59.84082341,65c5074098b851296ff0b7ed,6642372f30cfab3349bec0be,,,,,,,,,,,,,,,,,,,,,,,,,,,,,201.3462,1,audio/Narrative7Situation3.wav,209.347,,209.3471,218.6038,"[[999,10],[999,80],[999,167],[999,247],[999,334],[999,417],[999,499],[999,582],[999,705],[999,784],[999,867],[999,950],[999,1035],[999,1118],[999,1201],[999,1283],[999,1368],[999,1451],[999,1537],[999,1619],[999,1702],[999,1787],[999,1870],[999,1954],[999,2038],[999,2120],[999,2203],[999,2289],[999,2372],[999,2455],[999,2540],[999,2622],[999,2705],[999,2790],[999,2872],[999,2955],[999,3041],[999,3123],[999,3208],[999,3292],[999,3376],[999,3457],[999,3542],[999,3623],[999,3709],[999,3792],[999,3876],[999,3958],[999,4043],[999,4125],[999,4210],[999,4293],[999,4377],[999,4461],[999,4544],[999,4627],[999,4711],[999,4793],[999,4877],[999,4962],[999,5045],[999,5129],[999,5213],[999,5294],[999,5390],[999,5462],[999,5546],[999,5631],[999,5714],[999,5795],[999,5880],[999,5962],[999,6049],[999,6130],[999,6212],[999,6299],[999,6380],[999,6467],[999,6549],[60.8,6633],[62,6717],[64.1,6797],[64.7,6885],[64.7,6966],[64.7,7051],[64.7,7133],[68.5,7217]]",1,0,218.6039,222.4808,60.26079814,2.1036,"[{""rating"":60.26079813639322,""responseTime"":2.103600000023846}]",space,3.3513,,222.4809,Half the time,50,222.4864,,,[],,0,3,3,3,1,audio/Narrative7Situation3.wav,audio/Narrative8Situation3.wav,audio/Narrative5Situation3.wav,audio/Narrative6Situation3.wav,8,4,3,5,,,,,,,,,,,,,,,,,,,,,,,,,,,,,,,,,,,,,,,
,,,,,,6634448bcfec693463ba71e4,2024-05-13_08h52.29.190,group3.1-3.2-social-tom,2023.2.2,MacIntel,59.84082341,65c5074098b851296ff0b7ed,6642372f30cfab3349bec0be,,,,,,,,,,,,,,,,,,,,,,,,,,,,,222.4866,1,audio/Narrative7Situation4.wav,225.4889,,225.4889,237.2032,"[[60.9,9139],[60.9,9223],[60.9,9307],[60.9,9391],[60.9,9474],[60.9,9558],[60.9,9640],[60.9,9724],[60.9,9809],[64.5,9893],[67.8,9978],[66.8,10058],[66.3,10143]]",1,0,237.2033,240.3607,55.43183221,1.0347,"[{""rating"":55.431832207573784,""responseTime"":1.034699999988078}]",space,2.6227,,240.3609,Half the time,50,240.3631,,,[],,0,4,4,4,1,audio/Narrative7Situation4.wav,audio/Narrative8Situation4.wav,audio/Narrative5Situation4.wav,audio/Narrative6Situation4.wav,3,3,1,2,,,,,,,,,,,,,,,,,,,,,,,,,,,,,,,,,,,,,,,
,,,,,,6634448bcfec693463ba71e4,2024-05-13_08h52.29.190,group3.1-3.2-social-tom,2023.2.2,MacIntel,59.84082341,65c5074098b851296ff0b7ed,6642372f30cfab3349bec0be,,,,,,,,,,,,,,,,,,,,,,,,,,,,,240.3635,1,audio/Narrative7Situation5.wav,245.3771,,245.3772,253.8641,"[[999,13],[999,96],[999,179],[999,264],[999,346],[999,430],[999,515],[999,599],[999,705],[999,782],[999,867],[999,950],[999,1034],[999,1116],[999,1202],[999,1283],[999,1368],[999,1449],[999,1536],[999,1619],[999,1702],[999,1786],[999,1868],[999,1952],[999,2036],[999,2121],[999,2205],[999,2286],[999,2372],[999,2454],[999,2538],[999,2619],[999,2706],[999,2789],[999,2870],[999,2955],[999,3039],[999,3123],[999,3206],[999,3291],[999,3374],[999,3457],[999,3542],[999,3623],[999,3709],[999,3791],[999,3876],[999,3959],[999,4040],[999,4124],[999,4209],[999,4291],[999,4376],[999,4461],[999,4541],[999,4625],[999,4709],[999,4793],[999,4877],[999,4961],[999,5045],[999,5130],[999,5211],[999,5295],[999,5376],[999,5461],[999,5545],[999,5631],[999,5714],[999,5795],[999,5881],[999,5963],[999,6049],[999,6131],[999,6212],[999,6297],[999,6381],[999,6465],[999,6549],[999,6631],[999,6716],[999,6799],[999,6882],[999,6965],[999,7049],[999,7132],[999,7216],[999,7301],[999,7385],[999,7466],[999,7553],[999,7635],[999,7719],[999,7803],[999,7886],[999,7969],[999,8053],[999,8136],[999,8217],[999,8302],[999,8386],[999,8471]]",1,0,253.8642,255.8873,57.13195801,1.01,"[{""rating"":57.1319580078125,""responseTime"":1.009999999999991}]",space,1.4981,,255.8875,Half the time,50,255.8893,,,[],,0,5,5,5,1,audio/Narrative7Situation5.wav,audio/Narrative8Situation5.wav,audio/Narrative5Situation5.wav,audio/Narrative6Situation5.wav,5,2,5,2,,,,,,,,,,,,,,,,,,,,,,,,,,,,,,,,,,,,,,,
,,,,,,6634448bcfec693463ba71e4,2024-05-13_08h52.29.190,group3.1-3.2-social-tom,2023.2.2,MacIntel,59.84082341,65c5074098b851296ff0b7ed,6642372f30cfab3349bec0be,,,,,,,,,,,,,,,,,,,,,,,,,,,,,255.8896,1,audio/Narrative7Situation6.wav,258.8958,,258.8958,268.8719,"[[999,13],[999,83],[999,164],[999,249],[999,334],[999,417],[999,500],[999,583],[999,690],[999,768],[999,850],[999,934],[999,1020],[999,1104],[999,1184],[999,1267],[999,1353],[999,1434],[999,1517],[999,1601],[999,1684],[999,1770],[999,1856],[999,1936],[999,2022],[999,2105],[999,2189],[999,2270],[999,2354],[999,2438],[999,2522],[999,2604],[39.9,2692],[36.3,2774],[35.6,2858],[39.8,2941],[53.1,3023],[60.1,3111],[63.1,3190],[67.3,3277],[70,3357],[72.9,3446],[77.2,3526],[79,3609],[80.1,3693],[80.1,3775],[80.1,3861],[80.7,3941],[81.8,4029],[84.7,4110],[86.3,4194],[86.3,4275],[86.3,4362],[86.3,4443],[86.3,4528],[86.3,4611],[86.3,4693],[86.3,4777],[86.3,4861],[86.3,4943]]",1,0,268.872,271.2944,78.83232964,1.1632,"[{""rating"":78.83232964409721,""responseTime"":1.1631999999880804}]",space,1.8886,,271.2945,Not at all,0,271.2985,,,[],,0,6,6,6,1,audio/Narrative7Situation6.wav,audio/Narrative8Situation6.wav,audio/Narrative5Situation6.wav,audio/Narrative6Situation6.wav,3,2,3,2,,,,,,,,,,,,,,,,,,,,,,,,,,,,,,,,,,,,,,,
,,,,,,6634448bcfec693463ba71e4,2024-05-13_08h52.29.190,group3.1-3.2-social-tom,2023.2.2,MacIntel,59.84082341,65c5074098b851296ff0b7ed,6642372f30cfab3349bec0be,,,,,,,,,,,,,,,,,,,,,,,,,,,,,271.2987,1,audio/Narrative7Situation7.wav,276.3068,,276.307,293.4859,"[[77.4,1622],[75.3,1703],[75.3,1788],[75.3,1870],[75.3,1956],[76.3,2040],[81.2,2122],[83.9,2206],[84,2288],[84,2374],[84,2456],[84,2541],[84,2625],[84,2707],[84,2790],[84,2873],[84,2956],[84,3041],[84,3123],[84,3209],[84,3291],[84,3376],[84,3458],[84,3541],[84,3626],[84,3711],[84,3794],[84,3875],[84,3959],[84,4043],[84,4127],[84,4211],[84,4294],[84,4376],[84,4463],[84,4545],[84,4628],[84,4713],[84,4795],[84,4880],[84,4963],[84,5046],[84,5129],[84,5213],[84,5296],[84,5379],[84,5463],[84,5547],[84,5631],[84,5716],[84,5799],[84,5882],[84,5964],[84,6049],[84,6133],[84,6218],[84,6298],[84,6382],[84,6467],[84,6550],[84,6634],[84,6716],[84,6799],[84,6885],[84,6969],[84,7053],[84,7134],[84,7219],[84,7303],[84,7388],[84,7471],[84,7552],[84,7637],[84,7720],[84,7805],[84,7888],[84,7970],[84,8055],[84,8137],[84,8220],[84,8306],[84,8388],[84,8473],[84,8556],[84,8638],[84.4,8722],[89.3,8807],[92.7,8890],[94.8,8975],[95.4,9056],[96,9139],[96.1,9224],[96.1,9307],[96.1,9392],[96.1,9473],[95.1,16829]]",1,0,293.4861,295.9611,99.12222968,0.8133,"[{""rating"":99.12222968207465,""responseTime"":0.8133000000119068}]",space,1.9392,,295.9611,All the time,100,295.9671,,,[],,0,7,7,7,1,audio/Narrative7Situation7.wav,audio/Narrative8Situation7.wav,audio/Narrative5Situation7.wav,audio/Narrative6Situation7.wav,5,3,4,5,,,,,,,,,,,,,,,,,,,,,,,,,,,,,,,,,,,,,,,
,,,,,,6634448bcfec693463ba71e4,2024-05-13_08h52.29.190,group3.1-3.2-social-tom,2023.2.2,MacIntel,59.84082341,65c5074098b851296ff0b7ed,6642372f30cfab3349bec0be,,,,,,,,,,,,,,,,,,,,,,,,,,,,,295.9674,1,audio/Narrative7Situation8.wav,297.9829,,297.9829,308.0085,"[[999,0],[999,81],[999,165],[999,249],[999,332],[999,417],[999,500],[999,585],[999,701],[999,784],[999,868],[999,952],[999,1033],[999,1119],[999,1201],[999,1286],[999,1369],[999,1452],[999,1537],[999,1618],[999,1703],[999,1788],[999,1869],[999,1953],[999,2038],[999,2119],[999,2203],[78,2291],[78.8,2371],[79.6,2455],[81,2539],[81,2620],[81,2704],[81,2788],[81,2874],[81,2956],[94.9,9759],[91,9842],[90.4,9927],[90.3,10008]]",1,0,308.0085,310.4809,90.44381036,1.1268,"[{""rating"":90.44381035698785,""responseTime"":1.12680000001194}]",space,1.9384,,310.4809,All the time,100,310.4835,,,[],,0,8,8,8,1,audio/Narrative7Situation8.wav,audio/Narrative8Situation8.wav,audio/Narrative5Situation8.wav,audio/Narrative6Situation8.wav,2,3,3,5,,,,,,,,,,,,,,,,,,,,,,,,,,,,,,,,,,,,,,,
,,,,,,6634448bcfec693463ba71e4,2024-05-13_08h52.29.190,group3.1-3.2-social-tom,2023.2.2,MacIntel,59.84082341,65c5074098b851296ff0b7ed,6642372f30cfab3349bec0be,,,,,,,,,,,,,,,,,,,,,,,,,,,,,310.4837,1,audio/Narrative7Situation9.wav,312.488,,312.488,321.1114,"[[90.4,3291],[90.4,3376],[91.1,3457],[91.2,3543],[91,3625],[90.9,3710],[90.9,3793],[90.9,3875],[90.9,3961],[90.9,4042]]",1,0,321.1115,324.7199,89.295951,0.9991,"[{""rating"":89.29595099555121,""responseTime"":0.9991000000238728}]",space,3.0637,,324.7199,Not at all,0,324.7362,,,[],,0,9,9,9,1,audio/Narrative7Situation9.wav,audio/Narrative8Situation9.wav,audio/Narrative5Situation9.wav,audio/Narrative6Situation9.wav,2,3,3,4,,,,,,,,,,,,,,,,,,,,,,,,,,,,,,,,,,,,,,,
,,,,,,6634448bcfec693463ba71e4,2024-05-13_08h52.29.190,group3.1-3.2-social-tom,2023.2.2,MacIntel,59.84082341,65c5074098b851296ff0b7ed,6642372f30cfab3349bec0be,,,,,,,,,,,,,,,,,,,,,,,,,,,,,324.7366,1,audio/Narrative8Situation1.wav,329.75,,329.75,345.677,"[[87,2205],[77.7,3211],[76.5,3291],[76.4,3376],[76.4,3460],[76.4,3541],[75.6,3626],[63.7,3709],[58.3,3793],[58.3,3877],[58.3,3961],[53.3,4043],[50.8,4128],[50.5,4211],[50.3,4294],[49.8,4377],[49.8,4461],[49.8,4545],[49.8,4629],[49.8,4713],[49.8,4797],[49.8,4878],[49.8,4963],[49.8,5045],[49.8,5130],[49.8,5213],[49.8,5298],[49.8,5379],[49.8,5463],[49.8,5548],[49.8,5632],[49.8,5713],[49.8,5799],[49.8,5880],[49.8,5967],[49.8,6048],[49.8,6131],[49.8,6216],[49.8,6301],[49.8,6383],[49.8,6465],[49.8,6551],[49.8,6633],[49.8,6718],[49.8,6801],[49.8,6884],[49.8,6969],[49.8,7050],[49.8,7136],[49.8,7218],[49.8,7303],[49.8,7386],[49.8,7469],[49.8,7552],[49.8,7638],[49.8,7721],[49.8,7803],[49.8,7886],[49.8,7971],[49.8,8052],[49.8,8139],[49.8,8220],[49.8,8305],[49.8,8388],[49.8,8473],[49.8,8556],[49.8,8640],[49.8,8723],[49.8,8805],[49.8,8888],[49.8,8973],[49.8,9057],[49.8,9140],[49.8,9224],[49.8,9309],[49.8,9390],[49.8,9474],[49.8,9558],[49.8,9642],[49.8,9727],[49.8,9809],[49.8,9891],[49.8,9974],[49.8,10061],[49.8,10144],[49.8,10226],[49.8,10311],[49.8,10394],[49.8,10478],[49.8,10560],[49.8,10645],[49.8,10728],[51.4,10810],[57.7,10899],[62.2,10982],[64.1,11066],[64.3,11145],[64.3,11229],[64.3,11313],[64.3,11398],[67.1,11482],[71,11563],[71.5,11652],[71.6,11731],[71.6,11815],[71.6,11898],[71.6,11982],[71.6,12066],[71.6,12149],[71.6,12233],[71.6,12315],[71.6,12399],[71.6,12504],[71.6,12616],[71.6,12700],[71.6,12784],[71.6,12867],[71.6,12951],[71.6,13033],[71.6,13117],[71.6,13201],[71.6,13284],[71.6,13369],[71.6,13454],[71.6,13536],[71.6,13618],[71.6,13703],[71.6,13785],[71.6,13870],[83.8,14706],[82.9,14789],[82.9,14872],[83.4,14956],[84.1,15039]]",1,0,345.6772,352.0944,49.78890313,5.1518,"[{""rating"":64.82393900553384,""responseTime"":1.5796999999881223},{""rating"":54.33422512478299,""responseTime"":4.3940000000000055},{""rating"":49.788903130425346,""responseTime"":5.151800000011917}]",space,5.8811,,352.0945,Half the time,50,352.099,,,[],,0,10,10,10,1,audio/Narrative8Situation1.wav,audio/Narrative7Situation1.wav,audio/Narrative6Situation1.wav,audio/Narrative5Situation1.wav,5,2,2,5,,,,,,,,,,,,,,,,,,,,,,,,,,,,,,,,,,,,,,,
,,,,,,6634448bcfec693463ba71e4,2024-05-13_08h52.29.190,group3.1-3.2-social-tom,2023.2.2,MacIntel,59.84082341,65c5074098b851296ff0b7ed,6642372f30cfab3349bec0be,,,,,,,,,,,,,,,,,,,,,,,,,,,,,352.0992,1,audio/Narrative8Situation2.wav,355.1021,,355.1021,365.2598,"[[53,6516],[66.5,6600],[74.4,6685],[74.9,6766],[74.9,6851],[74.9,6934],[74.9,7018],[76.8,7101],[80.4,7185],[81.7,7268],[81.7,7351],[81.7,7436],[81.7,7519],[81.7,7604],[81.7,7686],[81.7,7769],[81.7,7853],[81.7,7938],[81.7,8018],[81.7,8102],[81.7,8186],[81.7,8271],[81.7,8356],[83.3,8439],[86.5,8522],[87.3,8606],[88.7,8688],[91.4,8773],[93.3,8856],[93.3,8939],[93.3,9023],[93.3,9106],[93.3,9191],[93.3,9272],[93.3,9359],[93.3,9442],[93.3,9522],[93.3,9608],[93.3,9691],[93.3,9776],[93.3,9857],[93.3,9941],[93.3,10026],[93.3,10125]]",1,0,365.2599,368.3188,90.65546672,1.1017,"[{""rating"":90.6554667154948,""responseTime"":1.1016999999880568}]",space,2.5291,,368.3188,Half the time,50,368.3211,,,[],,0,11,11,11,1,audio/Narrative8Situation2.wav,audio/Narrative7Situation2.wav,audio/Narrative6Situation2.wav,audio/Narrative5Situation2.wav,3,3,3,3,,,,,,,,,,,,,,,,,,,,,,,,,,,,,,,,,,,,,,,
,,,,,,6634448bcfec693463ba71e4,2024-05-13_08h52.29.190,group3.1-3.2-social-tom,2023.2.2,MacIntel,59.84082341,65c5074098b851296ff0b7ed,6642372f30cfab3349bec0be,,,,,,,,,,,,,,,,,,,,,,,,,,,,,368.3213,1,audio/Narrative8Situation3.wav,372.3291,,372.3292,394.7235,"[[71.2,7127],[61.1,7202],[60.4,7289],[60.4,7371],[60.4,7452],[60.4,7538],[58.1,7623],[54.7,7705],[54.7,7790],[54.7,7873],[54.7,7957],[54.7,8038],[54.7,8123],[54.7,8207],[54.7,8288],[54.7,8373],[54.7,8457],[54.7,8542],[54.7,8625],[54.7,8709],[54.7,8793],[54.7,8876],[54.7,8959],[54.5,9044],[51.3,9125],[49.4,9213],[49.3,9293],[49.3,9375],[49.3,9461],[49.3,9541],[49.3,9628],[50,9710],[55.2,9795],[58.5,9877],[61.3,9959],[63.5,10046],[63.7,10128],[63.7,10213],[63.7,10296],[63.7,10378],[63.7,10461],[63.7,10546],[63.7,10630],[63.7,10712],[63.7,10796],[63.7,10879],[63.7,10964],[63.7,11047],[63.7,11132],[63.7,11213],[63.7,11296],[63.7,11383],[63.7,11464],[63.7,11550],[63.7,11634],[63.7,11717],[63.7,11800],[63.7,11884],[63.7,11968],[63.7,12049],[63.7,12134],[63.7,12218],[63.7,12299],[63.7,12385],[63.7,12468],[63.7,12549],[63.7,12636],[63.7,12717],[63.7,12802],[63.7,12886],[63.7,12970],[63.7,13054],[63.7,13134],[63.7,13219],[63.7,13303],[63.7,13387],[63.7,13471],[63.7,13553],[63.7,13636],[63.7,13721],[63.7,13806],[63.7,13890],[63.7,13970],[63.7,14055],[63.7,14140],[64.4,14223],[64.4,14305],[64.4,14390],[64.1,14473],[63.6,14559],[63.6,14639],[63.3,14722],[62.5,14809],[62.5,14889],[62.5,14975],[62.5,15059],[62.5,15142],[62.5,15223],[62.5,15357],[62.5,15424],[62.5,15509],[62.5,15591],[62.5,15674],[62.5,15758],[62.5,15844],[62.5,15926],[62.5,16008],[62.5,16092],[62.5,16178],[62.5,16260],[62.5,16345],[62.5,16426],[62.5,16511],[62.5,16593],[62.5,16680],[62.5,16761],[62.5,16845],[62.5,16928],[62.5,17012],[62.5,17096],[62.5,17179],[62.5,17262],[62.5,17347],[62.5,17429],[62.5,17513],[62.5,17598],[62.5,17680],[62.5,17765],[62.5,17849],[62.5,17934],[62.5,18017],[62.5,18098],[62.5,18182],[62.5,18267],[62.5,18350],[62.5,18431],[62.5,18516],[62.5,18599],[62.5,18683],[62.5,18767],[62.5,18850],[62.5,18935],[62.5,19018],[62.5,19102],[62.5,19184],[62.5,19269],[62.5,19351],[62.5,19437],[62.5,19521],[62.5,19604],[62.5,19687],[62.5,19769],[62.5,19855],[62.5,19937],[62.5,20019],[62.5,20105],[62.5,20188],[62.5,20270],[62.5,20354],[62.5,20438],[62.5,20522],[62.5,20607],[62.5,20690],[62.5,20773],[62.5,20855],[62.5,20939],[62.5,21023],[62.5,21107],[62.5,21191],[62.5,21276],[62.5,21357],[62.5,21441],[62.5,21524],[62.5,21607],[62.5,21695],[62.5,21776],[62.5,21859],[62.5,21942],[62.5,22027],[62.5,22109],[62.5,22193],[62.5,22277],[62.5,22359]]",1,0,394.7237,396.5316,62.51259698,0.5006,"[{""rating"":62.5125969780816,""responseTime"":0.5005999999642086}]",space,1.2777,,396.5317,All the time,100,396.5365,,,[],,0,12,12,12,1,audio/Narrative8Situation3.wav,audio/Narrative7Situation3.wav,audio/Narrative6Situation3.wav,audio/Narrative5Situation3.wav,4,8,5,3,,,,,,,,,,,,,,,,,,,,,,,,,,,,,,,,,,,,,,,
,,,,,,6634448bcfec693463ba71e4,2024-05-13_08h52.29.190,group3.1-3.2-social-tom,2023.2.2,MacIntel,59.84082341,65c5074098b851296ff0b7ed,6642372f30cfab3349bec0be,,,,,,,,,,,,,,,,,,,,,,,,,,,,,396.5368,1,audio/Narrative8Situation4.wav,399.5525,,399.5525,413.7409,"[[63.3,7003],[66.2,7086],[67.7,7170],[69.6,7253],[72.6,7335],[73.6,7419],[73.9,7503],[77.1,7608],[79.7,7688],[81.1,7771],[81.1,7855],[81.1,7938],[81.1,8022],[81.1,8104],[81.1,8189],[81.1,8272],[80.9,8354]]",1,0,413.7409,416.4144,79.12957933,1.0904,"[{""rating"":79.12957933213976,""responseTime"":1.090399999976114}]",space,2.1392,,416.4144,Half the time,50,416.4186,,,[],,0,13,13,13,1,audio/Narrative8Situation4.wav,audio/Narrative7Situation4.wav,audio/Narrative6Situation4.wav,audio/Narrative5Situation4.wav,3,3,2,1,,,,,,,,,,,,,,,,,,,,,,,,,,,,,,,,,,,,,,,
,,,,,,6634448bcfec693463ba71e4,2024-05-13_08h52.29.190,group3.1-3.2-social-tom,2023.2.2,MacIntel,59.84082341,65c5074098b851296ff0b7ed,6642372f30cfab3349bec0be,,,,,,,,,,,,,,,,,,,,,,,,,,,,,416.4191,1,audio/Narrative8Situation5.wav,418.4199,,418.4199,426.6599,[],1,0,426.6599,430.203,62.6098548,2.7754,"[{""rating"":57.70160251193577,""responseTime"":1.517100000023845},{""rating"":62.60985480414496,""responseTime"":2.775399999976173}]",space,3.0077,,430.203,All the time,100,430.2078,,,[],,0,14,14,14,1,audio/Narrative8Situation5.wav,audio/Narrative7Situation5.wav,audio/Narrative6Situation5.wav,audio/Narrative5Situation5.wav,2,5,2,5,,,,,,,,,,,,,,,,,,,,,,,,,,,,,,,,,,,,,,,
,,,,,,6634448bcfec693463ba71e4,2024-05-13_08h52.29.190,group3.1-3.2-social-tom,2023.2.2,MacIntel,59.84082341,65c5074098b851296ff0b7ed,6642372f30cfab3349bec0be,,,,,,,,,,,,,,,,,,,,,,,,,,,,,430.2081,1,audio/Narrative8Situation6.wav,432.2228,,432.2229,438.6911,[],1,0,438.6912,442.5342,50.67142063,2.5178,"[{""rating"":50.671420627170136,""responseTime"":2.5178000000119596}]",space,3.2954,,442.5342,All the time,100,442.5363,,,[],,0,15,15,15,1,audio/Narrative8Situation6.wav,audio/Narrative7Situation6.wav,audio/Narrative6Situation6.wav,audio/Narrative5Situation6.wav,2,3,2,3,,,,,,,,,,,,,,,,,,,,,,,,,,,,,,,,,,,,,,,
,,,,,,6634448bcfec693463ba71e4,2024-05-13_08h52.29.190,group3.1-3.2-social-tom,2023.2.2,MacIntel,59.84082341,65c5074098b851296ff0b7ed,6642372f30cfab3349bec0be,,,,,,,,,,,,,,,,,,,,,,,,,,,,,442.5366,1,audio/Narrative8Situation7.wav,445.5441,,445.5442,457.6272,"[[999,11],[999,83],[999,164],[999,248],[999,333],[999,417],[999,501],[999,610],[999,700],[999,782],[999,867],[999,968],[999,1052],[999,1135],[999,1219],[999,1300],[999,1384],[999,1469],[999,1551],[999,1636],[999,1719],[999,1803],[999,1886],[999,1968],[999,2055],[999,2138],[999,2220],[999,2303],[999,2389],[999,2472],[999,2553],[999,2640],[999,2721],[999,2805],[999,2887],[999,2973],[999,3057],[999,3138],[999,3227],[999,3308],[66.9,3393],[68,3476],[68.4,3557],[68.4,3642],[68.4,3723],[68.4,3810],[68.4,3892],[68.4,3978],[68.4,4059],[68.4,4142],[68.4,4227],[68.4,4309],[69.6,4393],[74.5,4476],[77.9,4560],[77.9,4644],[77.9,4729],[77.9,4809],[77.9,4895],[77.9,4976],[77.9,5061],[77.9,5144],[77.1,5227],[75.7,5313],[74.7,5397],[73,5481],[72.9,5562],[72.9,5646],[72.9,5730],[72.9,5814],[72.9,5895],[72.9,5982],[72.9,6064],[70.5,6150],[56.9,6231],[52,6316],[52,6399],[52,6480],[52,6565],[52,6651],[52,6732],[52,6818],[52,6898],[52,6985],[52,7066],[52,7149],[52,7235],[52,7319],[52,7400],[52,7483],[52,7569],[52,7652],[52,7737],[52,7819],[52,7902],[52,7985],[52,8070],[52,8153],[52,8235],[52,8322],[52,8403],[52,8486],[52,8570],[52.1,8653],[53.3,8737],[53.6,8823],[53.6,8906],[53.6,8991],[53.6,9076],[53.6,9156],[53.6,9238],[53.5,9322],[53,9406],[52.3,9491],[51.8,9576],[51.3,9657],[50.9,9743],[50.8,9823],[50.7,9909],[50.4,9993],[50.4,10074],[50.4,10158],[50.4,10243],[50.4,10327],[54.7,10410],[68.1,10492],[77.9,10579],[81.6,10659],[82.2,10745],[82.2,10828],[82.2,10910],[82.2,10995],[82.2,11082],[85.9,11163],[89.3,11244],[89.3,11330],[89.3,11414],[89.3,11495],[89.3,11580],[89.3,11663],[89.3,11745],[89.3,11832],[89.3,11914],[89.3,11998],[89.3,12082]]",1,0,457.6276,460.6316,94.35107761,1.1247,"[{""rating"":94.35107760959201,""responseTime"":1.1246999999880813}]",space,2.4615,,460.6317,All the time,100,460.6336,,,[],,0,16,16,16,1,audio/Narrative8Situation7.wav,audio/Narrative7Situation7.wav,audio/Narrative6Situation7.wav,audio/Narrative5Situation7.wav,3,5,5,4,,,,,,,,,,,,,,,,,,,,,,,,,,,,,,,,,,,,,,,
,,,,,,6634448bcfec693463ba71e4,2024-05-13_08h52.29.190,group3.1-3.2-social-tom,2023.2.2,MacIntel,59.84082341,65c5074098b851296ff0b7ed,6642372f30cfab3349bec0be,,,,,,,,,,,,,,,,,,,,,,,,,,,,,460.6338,1,audio/Narrative8Situation8.wav,463.6424,,463.6424,476.5078,"[[84.3,2106],[78.4,2186],[78.2,2271],[78.2,2354],[78.2,2438],[78.2,2520],[78.2,2606],[79.7,2689],[82.1,2774],[82.1,2855],[82.1,2941],[82.1,3022],[82.1,3106],[82.1,3190],[82.1,3274],[82.1,3359],[82.1,3439],[82.1,3527],[82.1,3608],[82.1,3693],[82.1,3776],[82.1,3858],[82.1,3943],[82.1,4026],[82.1,4110],[82.1,4194],[82.1,4276],[82.1,4360],[82.1,4446],[82.1,4528],[82.1,4610],[82.1,4695],[82.1,4777],[82.1,4859],[82.1,4946],[83.9,5027],[90.1,5113],[93.4,5196],[93.9,5278],[93.9,5363],[93.9,5445],[93.9,5529],[93.9,5614],[93.9,5696],[93.9,5781],[93.9,5864],[93.9,5949],[93.9,6031],[93.9,6116],[93.9,6199],[93.9,6283],[93.9,6365],[93.9,6450],[93.9,6533],[93.9,6615],[93.9,6701],[93.9,6783],[93.9,6867],[93.9,6950],[93.9,7034],[93.9,7118],[93.9,7202],[93.9,7282],[93.9,7369],[93.9,7452],[93.9,7537],[93.9,7621],[93.9,7703],[93.9,7785],[93.9,7872],[93.9,7953],[93.9,8038],[93.9,8121],[93.9,8204],[93.9,8289],[93.9,8371],[93.9,8456],[93.9,8537],[93.9,8623],[93.9,8705],[93.9,8788],[93.9,8872],[93.9,8955],[93.9,9040],[93.9,9124],[93.9,9207],[93.9,9290],[93.9,9373],[93.9,9457],[93.9,9540],[93.9,9626],[93.9,9708],[93.9,9792],[93.9,9875],[93.9,9959],[93.9,10042],[93.9,10125],[93.9,10211],[93.9,10294],[93.9,10378],[93.9,10459],[93.9,10545],[93.9,10628],[93.9,10712],[93.9,10794],[93.9,10876],[93.9,10961],[93.9,11045],[93.9,11128],[93.9,11212],[93.9,11296],[93.9,11380],[93.9,11462],[93.9,11548],[93.9,11631],[94.3,11722],[95.4,11796],[96.9,11881],[97.3,11965],[97.2,12048],[97.2,12133],[97.2,12215],[97.2,12298],[97.2,12382],[97.2,12463],[97.2,12550],[97.2,12634],[97.2,12716],[97.2,12799]]",1,0,476.5081,479.0645,98.25017293,1.1972,"[{""rating"":98.25017293294272,""responseTime"":1.1971999999880722}]",space,2.0288,,479.0646,Not at all,0,479.0692,,,[],,0,17,17,17,1,audio/Narrative8Situation8.wav,audio/Narrative7Situation8.wav,audio/Narrative6Situation8.wav,audio/Narrative5Situation8.wav,3,2,5,3,,,,,,,,,,,,,,,,,,,,,,,,,,,,,,,,,,,,,,,
,,,,,,6634448bcfec693463ba71e4,2024-05-13_08h52.29.190,group3.1-3.2-social-tom,2023.2.2,MacIntel,59.84082341,65c5074098b851296ff0b7ed,6642372f30cfab3349bec0be,,,,,,,,,,,,,,,,,,,,,,,,,,,,,479.0695,1,audio/Narrative8Situation9.wav,482.0715,,482.0715,493.3867,"[[999,0],[999,86],[999,167],[999,252],[999,335],[999,419],[999,503],[999,586],[999,703],[999,787],[999,870],[999,955],[999,1036],[999,1122],[999,1204],[999,1288],[999,1372],[999,1456],[999,1540],[999,1622],[999,1705],[999,1788],[999,1872],[999,1955],[999,2038],[999,2124],[999,2206],[999,2292],[999,2374],[999,2457],[999,2542],[999,2625],[999,2709],[55.5,2793],[54.1,2875],[53.8,2960],[53.7,3041],[53.7,3125],[53.7,3244],[56.3,3327],[65.6,3412],[70.6,3493],[70.6,3579],[70.6,3660],[70.6,3744],[70.9,3827],[77.7,3913],[85.2,3996],[85.7,4078],[85.7,4163],[85.7,4246],[85.7,4329],[85.7,4413],[85.7,4495],[85.7,4579],[85.7,4665],[85.7,4748],[85.7,4830],[85.7,4914],[86.2,4999],[89.9,5081],[90.7,5166],[90.7,5247],[90.7,5332],[90.7,5415],[90.7,5498],[90.7,5582],[90.7,5667],[90.7,5749],[90.7,5834],[90.7,5917],[90.7,5999],[90.7,6085],[90.7,6170],[90.7,6251],[90.7,6335],[90.7,6418],[90.7,6501],[90.7,6584],[90.7,6669],[90.7,6757],[90.7,6835],[90.7,6920],[90.7,7004],[90.7,7086],[90.7,7169],[90.7,7254],[90.7,7337],[90.7,7422],[90.7,7505],[90.7,7588],[90.7,7673],[90.7,7757],[91,7839],[93.8,7922],[94.2,8006],[94.2,8088],[94.2,8173],[94.2,8257],[94.2,8339],[94.2,8422],[94.2,8505],[94.2,8591],[94.2,8673],[94.2,8757],[94.2,8840],[94.2,8925],[94.2,9009],[94.2,9092],[94.2,9174],[94.2,9260],[94.2,9344],[94.2,9428],[94.2,9509],[94.2,9592],[94.2,9677],[94.2,9760],[94.2,9845],[94.2,9928],[94.2,10012],[94.2,10094],[94.2,10179],[94.2,10263],[94.2,10347],[94.2,10430],[94.2,10513],[94.2,10595],[94.2,10680],[94.2,10764],[94.2,10847],[94.2,10929],[94.2,11015],[94.2,11098],[94.2,11180],[94.2,11265]]",1,0,493.3868,495.3918,92.20477634,1.0788,"[{""rating"":92.20477634006076,""responseTime"":1.0788000000119382}]",space,1.4735,,495.3918,Half the time,50,505.117,50.01867506,5.3859,"[{""rating"":50.018675062391495,""responseTime"":5.385899999976175}]",space,0,18,18,18,1,audio/Narrative8Situation9.wav,audio/Narrative7Situation9.wav,audio/Narrative6Situation9.wav,audio/Narrative5Situation9.wav,3,2,4,3,,,9.1974,,,,,,,,,,,,,,,,,,,,,,,,,,,,,,,,,,,,
,,,,,,6634448bcfec693463ba71e4,2024-05-13_08h52.29.190,group3.1-3.2-social-tom,2023.2.2,MacIntel,59.84082341,65c5074098b851296ff0b7ed,6642372f30cfab3349bec0be,,,,,,,,,,,,,,,,,,,,,,,,,,,508.4117,510.9825,510.9971,2,audio/Narrative13Situation2.wav,510.9973,,510.9973,540.7635,"[[999,0],[999,70],[999,153],[999,237],[999,321],[999,403],[999,488],[999,573],[999,690],[999,773],[999,854],[999,939],[999,1021],[999,1105],[999,1190],[999,1273],[999,1356],[999,1439],[999,1523],[999,1606],[999,1690],[999,1775],[999,1856],[999,1939],[999,2025],[999,2107],[999,2191],[999,2275],[999,2358],[999,2443],[999,2525],[999,2609],[999,2694],[999,2776],[999,2862],[999,2943],[999,3028],[999,3111],[999,3193],[999,3280],[999,3363],[999,3445],[52.8,3530],[52.6,3612],[52.6,3694],[51.4,3780],[49.6,3866],[49.6,3945],[49.6,4029],[49.6,4114],[49.6,4196],[49.6,4279],[49.6,4367],[49.6,4447],[49.6,4531],[49.6,4615],[49.6,4697],[49.6,4783],[49.6,4867],[49.6,4949],[49.6,5031],[49.6,5116],[49.6,5198],[49.6,5285],[49.6,5368],[49.6,5450],[49.6,5533],[49.6,5619],[49.6,5701],[49.6,5783],[49.6,5867],[49.6,5951],[49.6,6034],[49.6,6120],[49.6,6202],[49.6,6286],[49.6,6369],[49.6,6453],[49.6,6536],[49.6,6624],[49.6,6703],[49.6,6786],[49.6,6873],[49.6,6955],[49.6,7039],[49.6,7120],[49.6,7204],[49.6,7287],[49.6,7371],[49.6,7456],[49.6,7538],[49.6,7624],[49.6,7705],[49.6,7789],[49.6,7873],[49.6,7956],[49.6,8041],[49.6,8125],[49.6,8208],[49.6,8293],[49.6,8373],[49.6,8458],[49.6,8546],[49.6,8626],[49.6,8709],[49.6,8792],[49.6,8875],[49.6,8959],[49.6,9043],[49.6,9126],[49.6,9209],[49.6,9295],[49.6,9376],[49.6,9460],[49.6,9545],[49.6,9628],[49.6,9711],[49.6,9794],[49.6,9879],[49.6,9961],[49.6,10045],[49.6,10129],[49.6,10213],[49.6,10296],[49.6,10379],[49.6,10464],[49.6,10546],[49.6,10632],[49.6,10716],[49.6,10798],[49.6,10883],[49.6,10966],[49.6,11050],[49.6,11133],[49.6,11215],[49.6,11300],[49.6,11384],[49.6,11468],[49.6,11551],[49.6,11634],[49.6,11718],[49.6,11800],[49.6,11883],[49.6,11968],[49.6,12051],[49.6,12136],[49.6,12218],[49.6,12304],[49.6,12384],[49.6,12472],[49.6,12553],[49.6,12637],[49.6,12718],[49.6,12802],[49.6,12887],[49.6,12971],[49.6,13057],[49.6,13138],[49.6,13222],[49.6,13306],[49.6,13387],[49.6,13471],[49.6,13555],[49.6,13640],[49.6,13723],[49.6,13807],[49.6,13891],[49.6,13974],[49.6,14056],[49.6,14141],[49.6,14225],[49.6,14308],[49.6,14391],[49.6,14476],[49.6,14558],[49.6,14643],[49.6,14724],[49.6,14809],[49.6,14892],[49.6,14976],[49.6,15059],[49.6,15144],[49.6,15227],[49.6,15309],[49.6,15393],[49.6,15477],[49.6,15562],[49.6,15663],[49.6,15726],[49.6,15814],[49.6,15897],[49.6,15979],[49.6,16063],[49.6,16145],[49.6,16237],[49.6,16346],[49.6,16428],[49.6,16514],[49.6,16596],[49.6,16683],[49.6,16765],[49.6,16848],[49.6,16932],[49.6,17016],[49.6,17099],[49.6,17183],[49.6,17267],[49.6,17349],[49.6,17433],[49.6,17515],[49.6,17599],[49.6,17684],[49.6,17765],[49.6,17851],[49.6,17933],[49.6,18019],[49.6,18102],[49.6,18186],[49.6,18269],[49.6,18353],[49.6,18437],[49.6,18518],[49.6,18605],[49.6,18686],[49.6,18770],[49.6,18854],[49.6,18936],[49.6,19022],[49.6,19103],[49.6,19190],[49.6,19271],[49.6,19355],[49.6,19439],[49.6,19523],[49.6,19607],[49.6,19691],[49.6,19772],[49.6,19856],[49.6,19941],[49.6,20024],[49.6,20107],[49.6,20192],[49.6,20274],[49.6,20357],[49.6,20441],[49.6,20526],[49.6,20607],[49.6,20691],[49.6,20777],[49.6,20858],[49.6,20942],[49.6,21026],[49.6,21111],[49.6,21194],[49.6,21278],[49.6,21362],[44.8,21457],[41.5,21527],[40.2,21613],[40.2,21693],[42.9,21777],[48.7,21864],[52.2,21945],[54,22029],[55.7,22112],[55.9,22197],[55.7,22280],[54.7,22362],[53.1,22449],[51,22529],[50.4,22613],[49.3,22697],[49.2,22781],[49.2,22866],[49.2,22947],[49.4,23031],[49.8,23116],[50.1,23198],[50.7,23281],[51.2,23368],[51.7,23451],[52.1,23534],[52.7,23616],[53.1,23700],[53.3,23786],[53.7,23867],[53.8,23952],[53.8,24034],[53.8,24119],[53.8,24201],[53.8,24287],[53.8,24367],[53.8,24451],[53.8,24536],[53.8,24619],[53.8,24705],[53.8,24787],[53.8,24868],[53.8,24953],[53.8,25037],[53.8,25121],[53.8,25204],[53.8,25288],[53.8,25370],[53.8,25455],[53.8,25540],[53.8,25623],[53.8,25705],[53.8,25788],[53.8,25872],[53.8,25958],[53.8,26040],[53.8,26122],[53.8,26208],[53.8,26291],[53.8,26374],[53.8,26459],[53.8,26541],[53.8,26626],[53.8,26709],[53.8,26791],[53.8,26874],[53.8,26960],[53.8,27042],[53.8,27124],[53.8,27211],[53.8,27293],[53.8,27376],[53.8,27459],[53.8,27543],[53.8,27627],[53.8,27709],[53.8,27795],[53.8,27878],[53.8,27962],[53.8,28045],[53.8,28126],[53.8,28211],[53.8,28293],[53.8,28380],[53.8,28464],[53.8,28546],[53.8,28630],[53.8,28715],[53.8,28799],[53.8,28879],[53.8,28965],[53.8,29047],[53.8,29132],[53.8,29215],[53.8,29298],[53.8,29383],[53.8,29466],[53.8,29550],[53.8,29632],[53.8,29715]]",1,0,540.7637,540.7767,,,[],,,,540.7768,All the time,100,540.7821,,,[],,0,0,0,0,1,audio/Narrative13Situation2.wav,audio/Narrative13Situation2.wav,audio/Narrative13Situation2.wav,audio/Narrative13Situation2.wav,2,2,2,2,,,,,505.1288,508.4114,space,2.7653,,,,,,,,,,,,,,,,,,,,,,,,,,,,,,,
,,,,,,6634448bcfec693463ba71e4,2024-05-13_08h52.29.190,group3.1-3.2-social-tom,2023.2.2,MacIntel,59.84082341,65c5074098b851296ff0b7ed,6642372f30cfab3349bec0be,,,,,,,,,,,,,,,,,,,,,,,,,,,,,540.7824,2,audio/Narrative5Situation1.wav,545.793,,545.793,559.0794,"[[999,14],[999,82],[999,168],[999,252],[999,333],[999,417],[999,504],[999,586],[999,701],[999,784],[72.6,868],[50,6549],[54.3,6636],[56.9,6718],[58.3,6804],[59.9,6886],[60.6,6969],[60.7,7051],[60.7,7135],[60.7,7220],[60.7,7303],[60.7,7387],[60.7,7470],[60.7,7553],[60.7,7636],[60.7,7719],[60.7,7804],[60.7,7887],[60.7,7971],[60.7,8054],[60.7,8137],[60.7,8221],[60.7,8306],[60.7,8389],[60.7,8473],[60.7,8556],[60.7,8640],[60.7,8723],[60.7,8809],[60.7,8890],[60.7,8973],[60.7,9059],[60.7,9140],[60.7,9226],[60.7,9309],[60.7,9393],[60.7,9475],[60.7,9558],[60.7,9641],[60.7,9726],[60.7,9809],[60.7,9892],[60.7,9975],[60.7,10059],[60.7,10143],[60.7,10228],[60.7,10309],[60.7,10394],[63.7,10476],[68.8,10562],[69,10644],[69,10728],[69,10812],[69,10896],[69,10979],[69,11063],[69,11145],[69,11230],[69,11313],[68.9,11396],[65.8,11481],[65.3,11564],[65.3,11648],[65.3,11730],[65.3,11817],[65.3,11898],[65.3,11981],[65.3,12066],[65.3,12149],[65.3,12233],[65.3,12318],[65.3,12399],[65.3,12483],[65.3,12567],[65.3,12651],[65.3,12732],[65.3,12818],[65.3,12900],[65.3,12985],[65.3,13068],[65.3,13152],[65.3,13236]]",1,0,559.0795,561.9534,58.61302694,0.8844,"[{""rating"":58.613026936848954,""responseTime"":0.8843999999761536}]",space,2.3416,,561.9535,Not at all,0,561.9593,,,[],,0,1,1,1,1,audio/Narrative7Situation1.wav,audio/Narrative8Situation1.wav,audio/Narrative5Situation1.wav,audio/Narrative6Situation1.wav,2,5,5,2,,,,,,,,,,,,,,,,,,,,,,,,,,,,,,,,,,,,,,,
,,,,,,6634448bcfec693463ba71e4,2024-05-13_08h52.29.190,group3.1-3.2-social-tom,2023.2.2,MacIntel,59.84082341,65c5074098b851296ff0b7ed,6642372f30cfab3349bec0be,,,,,,,,,,,,,,,,,,,,,,,,,,,,,561.9597,2,audio/Narrative5Situation2.wav,564.9608,,564.9609,594.4244,"[[999,11],[999,82],[999,167],[999,250],[999,333],[999,418],[999,500],[999,585],[999,702],[999,785],[999,871],[999,953],[999,1038],[63,1121],[60.6,1206],[60.1,1286],[60.1,1372],[60.1,1453],[60.1,1537],[60.1,1622],[58.5,1705],[57.7,1789],[57.7,1874],[57.7,1954],[57.7,2038],[57.7,2122],[57.7,2206],[57.7,2289],[57.7,2373],[57.7,2456],[57.7,2541],[57.7,2625],[57.7,2710],[57.7,2790],[57.7,2875],[57.7,2960],[57.7,3041],[57.7,3126],[57.7,3209],[57.7,3293],[57.7,3377],[57.7,3459],[57.7,3542],[57.7,3627],[57.7,3709],[57.7,3793],[57.7,3879],[57.7,3961],[57.7,4045],[57.7,4129],[57.7,4211],[57.7,4296],[57.7,4377],[57.7,4462],[57.7,4547],[57.7,4629],[57.7,4714],[57.7,4798],[57.7,4881],[57.7,4962],[57.7,5047],[57.7,5130],[57.7,5214],[57.7,5298],[57.7,5382],[57.7,5464],[57.7,5549],[57.7,5634],[57.7,5715],[57.7,5798],[57.7,5884],[57.7,5966],[57.7,6052],[57.7,6134],[57.7,6216],[57.7,6299],[57.7,6384],[57.7,6468],[57.7,6552],[57.7,6636],[57.7,6717],[57.7,6801],[57.7,6884],[57.7,6967],[57.7,7052],[57.7,7136],[57.7,7221],[57.7,7302],[57.7,7385],[57.7,7470],[57.7,7556],[57.7,7639],[57.7,7723],[57.7,7803],[57.7,7889],[57.7,7974],[57.7,8057],[57.7,8137],[57.7,8223],[57.7,8307],[57.7,8389],[57.7,8475],[57.7,8556],[57.7,8640],[57.7,8723],[57.7,8808],[57.7,8889],[57.7,8977],[57.7,9057],[57.7,9142],[57.7,9225],[57.7,9310],[57.7,9392],[57.7,9475],[57.7,9560],[57.7,9642],[57.7,9727],[57.7,9810],[57.7,9892],[57.7,9978],[57.7,10059],[57.7,10144],[57.7,10229],[57.7,10313],[57.7,10395],[57.7,10480],[57.7,10562],[57.7,10646],[57.7,10731],[57.7,10813],[57.7,10896],[57.7,10980],[57.7,11064],[57.7,11148],[57.7,11232],[57.7,11314],[57.7,11396],[57.7,11482],[57.7,11565],[57.7,11649],[57.7,11731],[57.7,11817],[57.7,11900],[57.7,11982],[57.7,12065],[57.7,12150],[57.7,12233],[57.7,12318],[57.7,12401],[57.7,12483],[57.7,12567],[57.7,12652],[57.7,12733],[57.7,12817],[57.7,12903],[57.7,12984],[57.7,13068],[57.7,13154],[57.7,13235],[57.7,13318],[57.7,13403],[57.7,13487],[57.7,13568],[57.7,13656],[57.7,13737],[57.7,13821],[57.7,13905],[57.7,13988],[57.7,14072],[57.7,14156],[57.7,14239],[57.7,14323],[57.7,14404],[57.7,14490],[57.7,14572],[58.8,14656],[64.7,14739],[71.9,23603],[76.5,23683],[77.4,23765]]",1,0,594.4246,598.3208,74.63349236,1.3486,"[{""rating"":74.63349236382378,""responseTime"":1.3486000000239073}]",space,3.361,,598.3208,Half the time,50,598.325,,,[],,0,2,2,2,1,audio/Narrative7Situation2.wav,audio/Narrative8Situation2.wav,audio/Narrative5Situation2.wav,audio/Narrative6Situation2.wav,3,3,3,3,,,,,,,,,,,,,,,,,,,,,,,,,,,,,,,,,,,,,,,
,,,,,,6634448bcfec693463ba71e4,2024-05-13_08h52.29.190,group3.1-3.2-social-tom,2023.2.2,MacIntel,59.84082341,65c5074098b851296ff0b7ed,6642372f30cfab3349bec0be,,,,,,,,,,,,,,,,,,,,,,,,,,,,,598.3255,2,audio/Narrative5Situation3.wav,601.3435,,601.3435,615.2635,"[[73.1,5902],[68.4,5982],[60.8,6063],[59,6147],[59,6231],[59,6316],[59,6399],[59,6481],[59,6567],[59,6649],[59,6735],[59,6817],[59,6898],[59,6981],[59,7067],[59,7149],[59,7236],[59,7317],[59,7402],[59,7485],[59,7569],[59,7653],[59,7734],[59,7818],[59,7902],[59,7984],[59,8069],[59,8153],[59,8238],[59,8319],[59,8407],[59,8486],[59,8569],[59,8655],[59,8738],[59,8820],[59,8907],[59,8988],[59,9070],[59,9157],[59,9242],[59,9324],[59,9407],[59,9491],[59,9575],[59,9655],[59,9740],[59,9825],[59,9908],[59,9992],[59,10074],[59,10157],[59,10241],[59,10326],[59,10411],[59,10493],[59,10579],[59,10659],[60.5,10742],[66.4,10829],[74.3,10909],[76,10993],[76,11078],[76,11162],[76.4,11246],[82.4,11327],[86.8,11414],[89.7,11494],[89.7,11577],[89.7,11663],[89.7,11744],[89.7,11831],[89.7,11912],[89.7,11996],[92,12081],[92.2,12163],[92.2,12248],[92.2,12332],[92.2,12414],[92.2,12497],[92.2,12582],[92.2,12667],[92.2,12750],[92.2,12833],[92.2,12917],[92.2,13000],[92.2,13083],[92.2,13168],[92.2,13251],[92.2,13334],[92.2,13417],[92.2,13502],[92.2,13584],[92.2,13670],[92.2,13752],[92.2,13836],[92.2,13919]]",1,0,615.2636,617.3682,92.24868774,0.8591,"[{""rating"":92.24868774414062,""responseTime"":0.6246999999881382},{""rating"":92.24868774414062,""responseTime"":0.8591000000238864}]",space,1.5711,,617.3682,All the time,100,617.3725,,,[],,0,3,3,3,1,audio/Narrative7Situation3.wav,audio/Narrative8Situation3.wav,audio/Narrative5Situation3.wav,audio/Narrative6Situation3.wav,8,4,3,5,,,,,,,,,,,,,,,,,,,,,,,,,,,,,,,,,,,,,,,
,,,,,,6634448bcfec693463ba71e4,2024-05-13_08h52.29.190,group3.1-3.2-social-tom,2023.2.2,MacIntel,59.84082341,65c5074098b851296ff0b7ed,6642372f30cfab3349bec0be,,,,,,,,,,,,,,,,,,,,,,,,,,,,,617.3728,2,audio/Narrative5Situation4.wav,618.3875,,618.3875,638.774,"[[89.7,12300],[85.9,12382],[85.8,12465],[85.8,12550],[85.5,12632],[85.5,12718],[85.5,12799],[85.5,12883],[85.5,12966],[85.5,13050],[85.5,13135],[85.5,13217],[85.5,13301],[85.5,13384],[83.8,13469],[82.1,13552],[80.2,13636],[77.8,13720],[77,13802],[76.8,13886],[76.7,13969],[76.2,14054],[76,14136],[76,14220],[76,14305],[76,14387],[76,14471],[76,14554],[76,14638],[76,14722],[76,14805],[76,14889],[76,14972],[76,15055],[76,15139],[76,15223],[76,15307],[76,15389],[76,15473],[76,15557],[76,15641],[76,15724],[76,15807],[76,15890],[76,15976],[76,16058],[76,16143],[76,16227],[76,16308],[68.4,16394],[52.2,16475],[48.1,16562],[50.9,16894],[51.4,16979],[51.7,17062],[51.7,17146],[51.7,17229],[53.2,17314],[54.6,17396],[54.6,17479],[54.6,17561],[54.6,17646],[54.6,17730],[54.6,17814],[54.6,17898],[54.6,17980],[54.6,18063],[54.6,18147],[54.6,18231],[54.6,18317],[54.6,18399],[54.6,18483],[54.6,18565],[54.6,18648],[54.6,18733],[54.6,18816],[54.6,18899],[54.6,18984],[54.6,19065],[54.6,19149],[54.6,19233],[54.6,19317],[54.6,19402],[54.6,19485],[54.6,19569],[54.6,19651],[54.6,19735],[54.6,19819],[54.6,19901],[54.6,19985],[54.6,20070],[54.6,20152],[54.5,20235],[54.5,20319]]",1,0,638.7741,640.8298,54.46065267,0.4947,"[{""rating"":54.460652669270836,""responseTime"":0.49470000004771464}]",space,1.5295,,640.8299,All the time,100,640.8319,,,[],,0,4,4,4,1,audio/Narrative7Situation4.wav,audio/Narrative8Situation4.wav,audio/Narrative5Situation4.wav,audio/Narrative6Situation4.wav,3,3,1,2,,,,,,,,,,,,,,,,,,,,,,,,,,,,,,,,,,,,,,,
,,,,,,6634448bcfec693463ba71e4,2024-05-13_08h52.29.190,group3.1-3.2-social-tom,2023.2.2,MacIntel,59.84082341,65c5074098b851296ff0b7ed,6642372f30cfab3349bec0be,,,,,,,,,,,,,,,,,,,,,,,,,,,,,640.8321,2,audio/Narrative5Situation5.wav,645.843,,645.843,661.251,"[[94.2,6952],[93.6,7035],[93.7,7120],[94.2,7204],[94.2,7287],[94.2,7370],[94.2,7454],[94.2,7539],[94.2,7620],[94.2,7705],[94.2,7786],[94.2,7873],[94.2,7956],[94.2,8039],[94.2,8122],[94.2,8206],[94.2,8290],[94.2,8371],[94.2,8458],[94.2,8540],[94.2,8625],[94.2,8707],[94.2,8790],[94.2,8872],[94.2,8958],[94.2,9042],[94.2,9124],[94.2,9208],[94.2,9292],[94.2,9377],[94.2,9460],[94.2,9543],[94.2,9627],[94.2,9709],[94.2,9793],[94.2,9876],[94.2,9960],[94.2,10044],[94.2,10128],[94.2,10211],[94.2,10295],[94.2,10378],[94.2,10461],[94.2,10545],[94.2,10630],[94.2,10711],[94.2,10795],[94.2,10879],[94.2,10964],[94.2,11046],[94.2,11131],[94.2,11213],[94.2,11296],[94.2,11380],[94.2,11464],[94.2,11546],[94.2,11631],[94.2,11713],[94.2,11799],[94.2,11881],[94.2,11966],[94.2,12048],[94.2,12134],[94.2,12216],[94.2,12301],[94.2,12382],[94.2,12466],[94.2,12550],[94.2,12633],[94.2,12717],[94.2,12801],[94.2,12885],[94.2,12968],[94.2,13053],[94.2,13136],[94.2,13220],[94.2,13302],[94.2,13384],[94.2,13470],[94.2,13553],[94.2,13635],[94.2,13722],[94.2,13803],[94.2,13888],[94.2,13971],[94.2,14055],[94.2,14141],[94.2,14220],[94.2,14306],[94.2,14388],[94.2,14471],[94.2,14557],[94.2,14639],[94.2,14722],[94.2,14807],[94.2,14889],[94.2,14975],[94.2,15058],[94.2,15139],[94.2,15224],[94.2,15307],[94.2,15393]]",1,0,661.2512,665.1292,94.21391805,2.1695,"[{""rating"":94.2139180501302,""responseTime"":1.8955000000000837},{""rating"":94.2139180501302,""responseTime"":2.1695000000000846}]",space,3.3442,,665.1293,Not at all,0,665.1348,,,[],,0,5,5,5,1,audio/Narrative7Situation5.wav,audio/Narrative8Situation5.wav,audio/Narrative5Situation5.wav,audio/Narrative6Situation5.wav,5,2,5,2,,,,,,,,,,,,,,,,,,,,,,,,,,,,,,,,,,,,,,,
,,,,,,6634448bcfec693463ba71e4,2024-05-13_08h52.29.190,group3.1-3.2-social-tom,2023.2.2,MacIntel,59.84082341,65c5074098b851296ff0b7ed,6642372f30cfab3349bec0be,,,,,,,,,,,,,,,,,,,,,,,,,,,,,665.1352,2,audio/Narrative5Situation6.wav,668.137,,668.137,673.8015,[],1,0,673.8019,679.7856,48.15260145,2.9018,"[{""rating"":48.15260145399306,""responseTime"":2.9018000000119173}]",space,5.4545,,679.7856,Not at all,0,679.7883,,,[],,0,6,6,6,1,audio/Narrative7Situation6.wav,audio/Narrative8Situation6.wav,audio/Narrative5Situation6.wav,audio/Narrative6Situation6.wav,3,2,3,2,,,,,,,,,,,,,,,,,,,,,,,,,,,,,,,,,,,,,,,
,,,,,,6634448bcfec693463ba71e4,2024-05-13_08h52.29.190,group3.1-3.2-social-tom,2023.2.2,MacIntel,59.84082341,65c5074098b851296ff0b7ed,6642372f30cfab3349bec0be,,,,,,,,,,,,,,,,,,,,,,,,,,,,,679.7886,2,audio/Narrative5Situation7.wav,683.7978,,683.7978,704.8362,"[[999,10],[999,81],[999,165],[999,248],[999,333],[999,416],[999,498],[999,583],[999,691],[999,765],[999,851],[999,932],[999,1015],[999,1100],[999,1183],[999,1268],[999,1352],[999,1436],[999,1517],[999,1602],[999,1685],[999,1768],[999,1852],[999,1935],[999,2018],[999,2102],[999,2187],[999,2269],[999,2353],[999,2438],[999,2519],[999,2605],[999,2689],[999,2771],[999,2857],[999,2939],[999,3023],[999,3104],[999,3191],[999,3271],[999,3357],[999,3439],[999,3525],[999,3608],[999,3690],[999,3776],[999,3857],[999,3941],[999,4024],[999,4110],[999,4191],[999,4275],[999,4360],[999,4442],[999,4524],[999,4611],[999,4692],[999,4777],[999,4861],[999,4943],[999,5028],[999,5113],[999,5194],[999,5278],[999,5362],[999,5443],[999,5528],[999,5612],[999,5697],[999,5779],[999,5864],[999,5947],[999,6028],[999,6116],[999,6196],[999,6282],[999,6365],[999,6449],[999,6533],[999,6613],[999,6700],[999,6781],[999,6866],[999,6949],[999,7035],[999,7117],[999,7199],[999,7284],[999,7367],[999,7450],[999,7534],[999,7617],[999,7703],[999,7786],[57.9,7871],[65.9,7952],[71.1,8040],[72.6,8120],[73,8201],[73,8286],[73,8368],[73,8454],[73,8539],[73,8620],[73,8704],[73,8789],[73,8872],[73,8953],[73,9040],[73,9123],[73,9204],[73,9289],[73,9371],[73,9457],[73,9539],[73,9625],[73,9706],[73,9789],[73,9874],[73,9956],[73,10042],[73,10126],[73,10207],[73,10291],[73,10376],[73,10457],[73,10542],[73,10628],[73,10708],[73,10793],[73,10875],[73,10959],[73,11044],[73,11126],[73,11212],[73,11293],[73,11377],[73,11461],[73,11544],[73,11629],[73,11711],[73,11794],[73,11878],[73,11962],[73,12046],[73,12129],[73,12215],[73,12296],[73,12380],[73,12465],[73,12547],[73,12631],[73,12716],[73,12799],[73,12883],[73,12964],[73,13048],[73,13133],[73,13216],[73,13298],[73,13384],[73,13465],[73,13549],[73,13633],[73,13716],[73,13801],[73,13884],[73,13967],[73,14051],[73,14135],[73,14218],[73,14301],[73,14387],[73,14468],[73,14552],[73,14635],[73,14719],[73,14802],[73,14891],[73,14971],[73.3,15062],[74.6,15139],[75,15223],[74.5,15307],[74.8,15389],[77.5,15475],[77.9,15556],[77.9,15639],[77.9,15724],[77.9,15805],[77.9,15890],[77.9,15973],[77.9,16057],[77.9,16140],[77.9,16224],[77.9,16307],[77.9,16390],[77.9,16474],[77.9,16557],[77.9,16640],[77.9,16726],[77.9,16807],[77.9,16891],[77.9,16976],[77.9,17061],[77.9,17144],[77.9,17226],[77.9,17310],[77.9,17394],[77.9,17478],[77.9,17562],[77.9,17646],[77.9,17727],[77.9,17812],[77.9,17895],[77.9,17980],[77.9,18062],[77.9,18148],[77.9,18229],[77.9,18312],[77.9,18398],[77.9,18480],[77.9,18561],[77.9,18648],[77.9,18729],[77.9,18815],[77.9,18896],[77.9,18983],[77.9,19065],[77.9,19146],[77.9,19233],[77.9,19315],[77.9,19401],[77.9,19483],[77.9,19565],[77.9,19650],[77.9,19733],[77.9,19819],[77.9,19899],[77.9,19983],[77.9,20070],[77.9,20151],[77.9,20237],[77.9,20320],[77.9,20403],[77.9,20485],[77.9,20570],[77.9,20653],[77.9,20738],[77.9,20818],[77.9,20903],[77.9,20988]]",1,0,704.8363,706.3888,77.892846,0.5351,"[{""rating"":77.89284600151909,""responseTime"":0.5350999999642454}]",space,1.0265,,706.3889,Not at all,0,706.3911,,,[],,0,7,7,7,1,audio/Narrative7Situation7.wav,audio/Narrative8Situation7.wav,audio/Narrative5Situation7.wav,audio/Narrative6Situation7.wav,5,3,4,5,,,,,,,,,,,,,,,,,,,,,,,,,,,,,,,,,,,,,,,
,,,,,,6634448bcfec693463ba71e4,2024-05-13_08h52.29.190,group3.1-3.2-social-tom,2023.2.2,MacIntel,59.84082341,65c5074098b851296ff0b7ed,6642372f30cfab3349bec0be,,,,,,,,,,,,,,,,,,,,,,,,,,,,,706.3914,2,audio/Narrative5Situation8.wav,709.3991,,709.3991,718.2202,"[[88,6715],[92.2,6799],[94.3,6883],[94.3,6966],[94.3,7051],[94.3,7133],[94.3,7216],[94.3,7302],[94.3,7384],[94.3,7468],[94.3,7550],[94.3,7634],[94.3,7719],[94.3,7802],[94.3,7884],[94.3,7969],[94.3,8052],[94.3,8136],[94.3,8220],[94.3,8302],[94.3,8387],[94.3,8470],[94.3,8555],[94.3,8638],[94.3,8721],[94.3,8805]]",1,0,718.2203,726.3081,94.25538805,1.7853,"[{""rating"":94.25538804796008,""responseTime"":1.785299999952258}]",space,7.5569,,726.3081,All the time,100,726.3245,,,[],,0,8,8,8,1,audio/Narrative7Situation8.wav,audio/Narrative8Situation8.wav,audio/Narrative5Situation8.wav,audio/Narrative6Situation8.wav,2,3,3,5,,,,,,,,,,,,,,,,,,,,,,,,,,,,,,,,,,,,,,,
,,,,,,6634448bcfec693463ba71e4,2024-05-13_08h52.29.190,group3.1-3.2-social-tom,2023.2.2,MacIntel,59.84082341,65c5074098b851296ff0b7ed,6642372f30cfab3349bec0be,,,,,,,,,,,,,,,,,,,,,,,,,,,,,726.325,2,audio/Narrative5Situation9.wav,729.3332,,729.3333,768.8901,"[[999,11],[999,82],[999,167],[999,252],[999,334],[999,417],[999,501],[999,587],[999,688],[999,768],[999,851],[999,937],[999,1021],[999,1104],[999,1186],[999,1270],[999,1355],[999,1438],[999,1523],[999,1605],[999,1688],[999,1771],[999,1857],[999,1938],[999,2021],[999,2106],[999,2190],[999,2274],[999,2358],[999,2439],[999,2523],[999,2607],[999,2692],[999,2774],[999,2858],[999,2941],[999,3027],[999,3108],[999,3193],[999,3277],[999,3359],[999,3444],[999,3525],[999,3609],[999,3693],[999,3778],[999,3860],[999,3945],[999,4028],[999,4110],[999,4195],[999,4280],[999,4363],[999,4446],[999,4531],[999,4613],[999,4696],[999,4781],[999,4863],[999,4946],[999,5031],[999,5114],[999,5200],[64,5282],[63.9,5366],[63.9,5447],[63.9,5533],[67.3,5617],[78.8,5701],[83.2,5781],[83.2,5865],[83.2,5952],[83.2,6032],[83.2,6116],[83.2,6200],[83.2,6285],[83.2,6368],[83.2,6449],[83.2,6534],[85.8,6617],[89.6,6705],[90,6785],[90,6868],[90,6953],[90,7037],[90,7118],[90,7203],[90,7287],[90,7368],[90,7455],[90,7535],[90,7619],[90,7704],[90,7787],[90,7874],[90,7955],[90,8037],[90,8122],[90,8204],[90,8290],[90,8372],[90,8455],[90,8540],[90,8623],[90,8704],[90,8793],[90,8876],[90,8958],[90,9043],[90,9125],[90,9207],[90,9293],[90,9374],[90,9460],[90,9542],[90,9626],[90,9711],[90,9794],[90,9875],[90,9959],[90,10044],[90,10128],[90,10212],[90,10292],[90,10377],[90,10463],[90,10544],[90,10629],[90,10712],[90,10797],[90,10880],[90,10961],[90,11048],[90,11129],[90,11213],[90,11297],[90,11380],[90,11465],[90,11547],[90,11633],[90,11716],[90,11797],[90,11881],[90,11964],[90,12050],[90,12134],[90,12217],[90,12298],[90,12383],[90,12467],[90,12552],[90,12634],[90,12719],[90,12801],[90,12884],[90,12969],[90,13051],[90,13136],[90,13220],[90,13303],[90,13387],[90,13469],[90,13553],[90,13637],[90,13721],[90,13805],[90,13886],[90,13971],[90,14055],[90,14140],[90,14223],[90,14304],[90,14387],[90,14471],[90,14557],[90,14638],[90,14723],[90,14806],[90,14891],[90,14973],[90,15060],[90,15140],[90,15223],[90,15307],[90,15391],[90,15476],[90,15558],[90,15641],[90,15725],[90,15809],[90,15892],[90,15977],[90,16058],[90,16144],[90,16226],[90,16311],[90,16394],[90,16478],[90,16560],[90,16644],[90,16729],[90,16812],[90,16894],[90,16979],[90,17062],[90,17146],[90,17230],[90,17313],[90,17396],[90,17482],[90,17564],[90,17648],[90,17730],[90,17814],[90,17898],[90,17981],[90,18063],[90,18148],[90,18230],[90,18316],[90,18399],[90,18484],[90,18566],[90,18648],[90,18733],[90,18817],[90,18902],[90,18984],[90,19067],[90,19152],[90,19234],[90,19318],[90,19402],[90,19486],[90,19570],[90,19653],[90,19736],[90,19819],[90,19904],[90,19987],[90,20069],[90,20152],[90,20239],[90,20320],[90,20405],[90,20487],[90,20571],[90,20655],[90,20740],[90,20822],[90,20905],[90,20990],[90,21073],[90,21158],[90,21240],[90,21324],[90,21408],[90,21490],[90,21573],[90,21658],[90,21740],[90,21824],[90,21909],[90,21992],[90,22075],[90,22159],[90,22243],[90,22326],[90,22411],[90,22495],[90,22577],[90,22660],[90,22744],[90,22828],[90,22911],[90,22995],[90,23079],[90,23163],[90,23245],[90,23330],[90,23413],[90,23495],[90,23581],[90,23662],[90,23749],[90,23832],[90,23916],[90,23998],[90,24080],[90,24164],[90,24247],[90,24334],[90,24414],[90,24498],[90,24582],[90,24667],[90,24751],[90,24832],[90,24916],[90,25000],[90,25085],[90,25168],[90,25252],[90,25334],[90,25417],[90,25503],[90,25586],[90,25670],[90,25752],[90,25837],[90,25920],[90,26002],[90,26087],[90,26170],[90,26254],[90,26338],[90,26419],[90,26504],[90,26586],[90,26674],[90,26756],[90,26840],[90,26922],[90,27004],[90,27090],[90,27174],[90,27256],[90,27342],[90,27425],[90,27507],[90,27592],[90,27675],[90,27759],[90,27841],[90,27924],[90,28007],[90,28092],[90,28176],[90,28260],[90,28344],[90,28424],[90,28510],[90,28593],[90,28677],[90,28759],[90,28845],[90,28926],[90,29009],[90,29096],[90,29176],[90,29262],[90,29345],[90,29429],[90,29512],[90,29595],[90,29679],[90,29763],[90,29848],[90,29932],[90,30013],[90,30096],[90,30183],[90,30264],[90,30348],[90,30432],[90,30514],[90,30598],[90,30681],[90,30764],[90,30848],[90,30932],[90,31017],[90,31099],[90,31185],[90,31266],[90,31349],[90,31434],[90,31517],[90,31602],[90,31684],[90,31770],[90,31854],[90,31934],[90,32019],[90,32103],[90,32185],[90,32269],[90,32355],[90,32435],[90,32519],[90,32603],[90,32687],[90,32772],[90,32854],[90,32937],[90,33021],[90,33105],[90,33191],[90,33272],[90,33357],[90,33439],[90,33525],[90,33606],[90,33693],[90,33774],[90,33856],[90,33940],[90,34023],[90,34107],[90,34190],[90,34274],[90,34359],[90,34442],[90,34525],[90,34608],[90,34695],[90,34776],[90,34859],[90,34942],[90,35028],[90,35112],[90,35193],[90,35278],[90,35361],[90,35445],[90,35528],[90,35612],[90,35696],[90,35779],[90,35863],[90,35946],[90,36029],[90,36113],[90,36195],[90,36282],[90,36364],[90,36449],[90,36530],[90,36616],[90,36699],[90,36783],[90,36867],[90,36950],[90,37031],[90,37118],[90,37202],[90,37283],[90,37365],[90,37449],[90,37533],[90,37617],[90,37702],[90,37786],[90,37867],[90,37953],[90,38036],[90,38118],[90,38204],[90,38286],[90,38371],[90,38454],[90,38535],[90,38622],[90,38702],[90,38788],[90,38870],[90,38953],[90,39038],[90,39121],[90,39206],[90,39289],[90,39374],[90,39455],[90,39538]]",1,0,768.8902,771.195,89.96418423,0.8043,"[{""rating"":89.9641842312283,""responseTime"":0.8043000000119491}]",space,1.7713,,771.195,All the time,100,771.1971,,,[],,0,9,9,9,1,audio/Narrative7Situation9.wav,audio/Narrative8Situation9.wav,audio/Narrative5Situation9.wav,audio/Narrative6Situation9.wav,2,3,3,4,,,,,,,,,,,,,,,,,,,,,,,,,,,,,,,,,,,,,,,
,,,,,,6634448bcfec693463ba71e4,2024-05-13_08h52.29.190,group3.1-3.2-social-tom,2023.2.2,MacIntel,59.84082341,65c5074098b851296ff0b7ed,6642372f30cfab3349bec0be,,,,,,,,,,,,,,,,,,,,,,,,,,,,,771.1976,2,audio/Narrative6Situation1.wav,773.2,,773.2,799.7722,"[[63.3,1925],[41.6,2005],[30.1,2088],[30.1,2173],[30.1,2255],[17.5,2339],[9.5,2423],[9.5,2508],[9.5,2591],[9.5,2675],[9.5,2759],[9.5,2840],[9.5,2926],[0.9,3008],[12.5,3509],[30.9,3595],[32.7,3675],[32.6,3760],[32.6,3845],[32.6,3928],[32.6,4009],[32.6,4095],[32.6,4177],[32.6,4263],[32.6,4345],[32.6,4430],[32.6,4511],[32.6,4595],[32.6,4681],[32.6,4762],[32.6,4845],[32.6,4931],[32.6,5012],[32.6,5098],[32.6,5180],[32.6,5263],[32.6,5347],[32.6,5430],[32.6,5515],[32.6,5599],[32.6,5683],[32.6,5764],[32.6,5850],[32.6,5932],[32.6,6017],[32.6,6100],[32.6,6183],[32.6,6267],[32.6,6349],[32.6,6434],[32.6,6517],[32.6,6600],[32.6,6684],[32.6,6767],[32.6,6853],[32.6,6934],[32.6,7017],[32.6,7104],[35.1,7185],[43.5,7272],[45.8,7354],[45.8,7437],[45.8,7521],[45.8,7603],[46.4,7687],[49.1,7770],[49.2,7855],[49.2,7938],[49.2,8024],[49.2,8106],[49.2,8187],[49.2,8272],[49.2,8357],[49.2,8440],[49.2,8524],[49.2,8609],[49.2,8689],[49.2,8774],[49.2,8855],[49.2,8940],[49.2,9023],[49.2,9109],[49.2,9192],[49.2,9274],[49.2,9358],[49.2,9443],[49.2,9527],[49.2,9610],[49.2,9694],[49.2,9776],[49.2,9861],[49.2,9944],[49.2,10027],[49.2,10111],[49.2,10195],[49.2,10278],[49.2,10361],[49.2,10444],[49.2,10527],[49.2,10614],[49.2,10695],[49.2,10780],[49.2,10863],[49.2,10949],[49.2,11030],[49.2,11114],[49.2,11196],[49.2,11280],[49.2,11363],[49.2,11447],[49.2,11533],[49.2,11614],[49.2,11699],[49.2,11782],[49.2,11865],[49.2,11949],[49.2,12068],[49.2,12150],[49.2,12232],[49.2,12315],[49.2,12399],[49.2,12483],[49.2,12566],[49.2,12651],[49.2,12735],[49.2,12819],[49.2,12901],[49.2,12985],[49.2,13068],[49.2,13151],[49.2,13235],[49.2,13320],[49.2,13403],[49.2,13486],[49.2,13571],[49.2,13653],[49.2,13736],[49.2,13821],[49.2,13903],[49.2,13988],[49.2,14070],[49.2,14155],[49.2,14238],[49.2,14322],[49.2,14405],[49.2,14488],[49.2,14573],[49.2,14655],[49.2,14740],[49.2,14822],[49.2,14908],[49.2,14990],[49.2,15075],[49.2,15158],[49.2,15242],[49.2,15324],[49.2,15407],[49.2,15491],[49.2,15575],[49.2,15658],[49.2,15742],[49.2,15825],[49.2,15908],[49.2,15993],[49.2,16076],[49.2,16160],[49.2,16244],[49.2,16326],[49.2,16412],[49.2,16496],[49.2,16577],[49.2,16660],[49.2,16745],[49.2,16829],[49.2,16913],[49.2,16995],[49.2,17080],[49.2,17162],[49.2,17246],[49.2,17330],[49.2,17414],[49.2,17498],[49.2,17579],[49.2,17665],[49.2,17747],[49.2,17832],[49.2,17915],[49.2,17998],[49.2,18081],[49.2,18167],[49.2,18248],[49.2,18332],[49.2,18416],[49.2,18500],[49.2,18581],[49.2,18666],[49.2,18750],[49.2,18834],[49.2,18917],[49.2,19002],[49.2,19084],[49.2,19168],[49.2,19251],[49.2,19334],[49.2,19420],[49.2,19502],[49.2,19586],[49.2,19670],[49.2,19753],[49.2,19838],[49.2,19919],[49.2,20005],[49.2,20088],[49.2,20172],[49.2,20256],[49.2,20338],[49.2,20421],[49.2,20504],[49.2,20589],[49.2,20674],[49.2,20756],[49.2,20839],[49.2,20922],[49.2,21006],[49.2,21089],[49.2,21173],[49.2,21257],[49.2,21342],[49.2,21424],[49.2,21507],[49.2,21591],[49.2,21676],[49.2,21758],[49.2,21842],[49.2,21926],[49.2,22011],[49.2,22094],[49.2,22176],[49.2,22259],[49.2,22343],[49.2,22427],[49.2,22510],[49.2,22593],[49.2,22677],[49.2,22760],[49.2,22844],[49.2,22928],[49.2,23013],[49.2,23095],[49.2,23178],[49.2,23263],[49.2,23345],[49.2,23429],[49.2,23513],[49.2,23596],[49.2,23681],[49.2,23763],[49.2,23847],[49.2,23931],[49.2,24014],[50.7,24099],[59.8,24184],[64.4,24272],[65.4,24350],[65.4,24432],[65.4,24518],[71.8,24601],[84.1,24682],[84.5,24766],[84.5,24849],[84.5,24933],[84.5,25017],[84.5,25100],[84.5,25184],[84.5,25267],[84.5,25351],[84.5,25434],[84.5,25518],[84.5,25602],[84.5,25684],[84.5,25769],[84.5,25852],[84.5,25936],[84.5,26021],[84.5,26103],[84.5,26188],[84.5,26280],[84.5,26353],[84.5,26438],[84.5,26521]]",1,0,799.7724,801.5257,84.9978892,0.7306,"[{""rating"":84.99788920084636,""responseTime"":0.7306000000238555}]",space,1.22,,801.5257,All the time,100,801.5281,,,[],,0,10,10,10,1,audio/Narrative8Situation1.wav,audio/Narrative7Situation1.wav,audio/Narrative6Situation1.wav,audio/Narrative5Situation1.wav,5,2,2,5,,,,,,,,,,,,,,,,,,,,,,,,,,,,,,,,,,,,,,,
,,,,,,6634448bcfec693463ba71e4,2024-05-13_08h52.29.190,group3.1-3.2-social-tom,2023.2.2,MacIntel,59.84082341,65c5074098b851296ff0b7ed,6642372f30cfab3349bec0be,,,,,,,,,,,,,,,,,,,,,,,,,,,,,801.5283,2,audio/Narrative6Situation2.wav,804.5349,,804.5349,833.0285,"[[84.6,1453],[83.1,1536],[82.8,1621],[82.8,1703],[83.7,1787],[84.7,1873],[84.7,1953],[84.7,2038],[84.7,2122],[84.7,2206],[84.7,2288],[84.7,2372],[84.7,2457],[84.7,2540],[84.7,2623],[84.7,2705],[84.7,2791],[84.7,2872],[84.7,2956],[84.7,3040],[84.7,3123],[84.7,3208],[84.7,3291],[84.7,3375],[84.7,3457],[84.7,3542],[84.7,3625],[84.7,3709],[84.7,3793],[84.7,3875],[84.7,3958],[84.7,4043],[84.7,4128],[84.7,4210],[84.7,4293],[84.7,4376],[84.7,4461],[84.7,4543],[84.7,4628],[84.7,4711],[84.7,4795],[84.7,4879],[84.7,4963],[84.7,5044],[84.7,5129],[84.7,5212],[84.7,5296],[84.7,5380],[84.7,5463],[84.7,5548],[84.7,5630],[84.7,5714],[84.7,5797],[84.7,5882],[84.7,5966],[84.7,6049],[84.7,6130],[84.7,6214],[84.7,6298],[84.7,6382],[84.7,6466],[84.7,6550],[84.7,6633],[84.7,6717],[84.7,6802],[84.7,6884],[84.7,6967],[84.7,7051],[84.7,7135],[84.7,7218],[84.7,7302],[84.7,7385],[84.7,7467],[84.7,7554],[84.7,7636],[84.7,7720],[84.7,7803],[84.7,7887],[84.7,7970],[84.7,8053],[84.7,8137],[84.7,8221],[84.7,8305],[84.7,8387],[84.7,8472],[84.7,8556],[84.7,8639],[84.7,8722],[84.7,8804],[84.7,8890],[84.7,8972],[84.7,9056],[84.7,9139],[84.7,9224],[84.7,9308],[84.7,9392],[84.7,9474],[84.7,9558],[84.7,9641],[84.7,9726],[84.7,9807],[84.7,9891],[84.7,9976],[84.7,10059],[84.7,10144],[84.7,10226],[84.7,10308],[84.7,10394],[84.7,10476],[84.7,10562],[84.7,10643],[84.7,10727],[84.7,10811],[84.7,10895],[84.7,10980],[84.7,11061],[84.7,11146],[84.7,11228],[84.7,11312],[84.7,11397],[84.7,11479],[84.7,11562],[84.7,11647],[84.7,11731],[84.7,11814],[84.7,11897],[84.7,11982],[84.7,12064],[84.7,12147],[84.7,12231],[84.7,12315],[84.7,12399],[84.7,12480],[84.7,12565],[84.7,12648],[84.7,12733],[84.7,12816],[84.7,12901],[84.7,12984],[84.7,13067],[84.7,13151],[84.7,13235],[84.7,13318],[84.7,13403],[84.7,13484],[84.7,13567],[84.7,13651],[84.7,13736],[84.7,13820],[84.7,13905],[84.7,13986],[84.7,14068],[84.7,14154],[84.7,14237],[84.7,14322],[84.7,14403],[84.7,14487],[84.7,14571],[84.7,14655],[84.7,14739],[84.7,14823],[84.7,14904],[84.7,14988],[84.7,15075],[84.7,15156],[84.7,15241],[84.7,15322],[84.7,15408],[84.7,15492],[84.7,15575],[84.7,15659],[84.7,15741],[84.7,15825],[84.7,15909],[84.7,15994],[84.7,16076],[84.7,16158],[84.7,16243],[84.7,16326],[84.7,16412],[84.7,16494],[84.7,16577],[84.7,16660],[84.7,16743],[84.7,16826],[84.7,16910],[84.7,16994],[84.7,17078],[84.7,17160],[84.7,17247],[84.7,17328],[84.7,17412],[84.7,17496],[84.7,17580],[84.7,17662],[84.7,17748],[84.7,17831],[84.7,17913],[84.7,17998],[84.7,18082],[84.7,18164],[84.7,18248],[84.7,18331],[84.7,18414],[84.7,18498],[84.7,18581],[84.7,18666],[84.7,18749],[84.7,18833],[84.7,18916],[84.7,18998],[84.7,19083],[84.7,19167],[84.7,19251],[84.7,19334],[84.7,19418],[84.7,19501],[84.7,19584],[84.7,19667],[84.7,19753],[84.7,19835],[84.7,19920],[84.7,20003],[84.7,20085],[84.7,20169],[84.7,20253],[84.7,20336],[84.7,20420],[84.7,20503],[84.7,20588],[84.7,20671],[84.7,20754],[84.7,20838],[84.7,20921],[84.7,21007],[84.7,21088],[84.7,21172],[84.7,21255],[84.7,21339],[84.7,21425],[84.7,21506],[84.7,21590],[84.7,21673],[84.7,21756],[84.7,21841],[84.7,21923],[84.7,22007],[84.7,22091],[84.7,22174],[84.7,22258],[84.7,22343],[84.7,22425],[84.7,22508],[84.7,22592],[84.7,22677],[84.7,22760],[84.7,22842],[84.7,22927],[84.7,23010],[84.7,23094],[84.7,23178],[84.7,23261],[84.7,23344],[84.7,23427],[84.7,23513],[84.7,23595],[84.7,23678],[84.7,23762],[84.7,23845],[84.7,23930],[84.7,24012],[84.7,24095],[84.7,24180],[84.7,24263],[84.7,24347],[84.7,24430],[84.7,24513],[84.7,24597],[84.7,24681],[84.7,24766],[84.7,24848],[84.7,24932],[84.7,25016],[84.7,25098],[84.7,25183],[84.7,25266],[84.7,25349],[84.7,25433],[84.7,25517],[84.7,25601],[84.7,25684],[84.7,25766],[84.7,25851],[84.7,25934],[84.7,26017],[84.7,26102],[84.7,26185],[84.7,26269],[84.7,26354],[84.7,26438],[84.7,26519],[84.7,26602],[84.7,26687],[84.7,26770],[84.7,26855],[84.7,26939],[84.7,27022],[84.7,27104],[84.7,27191],[84.7,27272],[84.7,27356],[84.7,27437],[84.7,27521],[84.7,27606],[84.7,27688],[84.7,27773],[84.7,27857],[84.7,27942],[84.7,28024],[84.7,28110],[84.7,28191],[84.7,28274],[84.7,28359],[84.7,28442]]",1,0,833.0285,835.3361,83.69064331,1.5214,"[{""rating"":83.69064331054688,""responseTime"":1.521399999976211}]",space,1.7763,,835.3361,Half the time,50,835.343,,,[],,0,11,11,11,1,audio/Narrative8Situation2.wav,audio/Narrative7Situation2.wav,audio/Narrative6Situation2.wav,audio/Narrative5Situation2.wav,3,3,3,3,,,,,,,,,,,,,,,,,,,,,,,,,,,,,,,,,,,,,,,
,,,,,,6634448bcfec693463ba71e4,2024-05-13_08h52.29.190,group3.1-3.2-social-tom,2023.2.2,MacIntel,59.84082341,65c5074098b851296ff0b7ed,6642372f30cfab3349bec0be,,,,,,,,,,,,,,,,,,,,,,,,,,,,,835.3432,2,audio/Narrative6Situation3.wav,840.3464,,840.3465,852.9469,"[[87.3,12600]]",1,0,852.9469,856.0398,82.15809292,1.3166,"[{""rating"":82.15809292263455,""responseTime"":1.3166000000238682}]",space,2.5591,,856.0398,Half the time,50,856.0413,,,[],,0,12,12,12,1,audio/Narrative8Situation3.wav,audio/Narrative7Situation3.wav,audio/Narrative6Situation3.wav,audio/Narrative5Situation3.wav,4,8,5,3,,,,,,,,,,,,,,,,,,,,,,,,,,,,,,,,,,,,,,,
,,,,,,6634448bcfec693463ba71e4,2024-05-13_08h52.29.190,group3.1-3.2-social-tom,2023.2.2,MacIntel,59.84082341,65c5074098b851296ff0b7ed,6642372f30cfab3349bec0be,,,,,,,,,,,,,,,,,,,,,,,,,,,,,856.0415,2,audio/Narrative6Situation4.wav,858.0432,,858.0433,870.6612,"[[999,0],[999,83],[999,169],[999,251],[999,335],[999,420],[999,502],[999,584],[999,702],[999,786],[999,868],[999,951],[999,1036],[999,1119],[999,1202],[999,1286],[999,1369],[999,1453],[999,1537],[999,1622],[999,1704],[999,1788],[84.6,1872],[82.7,1955],[82.6,2038],[82.6,2122],[82.6,2206],[82.6,2290],[82.6,2372],[82.6,2457],[82.6,2540],[82.6,2623],[82.6,2707],[82.6,2791],[82.6,2875],[82.6,2957],[82.6,3042],[82.6,3126],[82.6,3208],[82.6,3292],[82.6,3375],[82.6,3459],[82.6,3542],[82.6,3626],[82.6,3711],[82.6,3793],[82.6,3877],[82.6,3959],[82.6,4044],[82.6,4130],[82.6,4210],[82.6,4296],[82.6,4378],[82.6,4461],[82.6,4546],[82.6,4629],[82.6,4714],[82.6,4796],[82.6,4879],[82.6,4963],[82.6,5048],[82.6,5131],[82.6,5214],[82.6,5299],[82.6,5382],[82.6,5466],[82.6,5548],[82.6,5631],[82.6,5715],[82.6,5798],[82.6,5883],[82.6,5966],[82.6,6048],[82.6,6133],[82.6,6216],[82.6,6300],[82.6,6385],[82.6,6468],[82.6,6550],[82.6,6634],[82.6,6718],[82.6,6802],[82.6,6884],[82.6,6969],[82.6,7053],[82.6,7134],[82.6,7220],[82.6,7302],[82.6,7388],[82.6,7469],[82.6,7555],[82.6,7635],[82.6,7720],[82.6,7805],[82.6,7887],[82.6,7973],[82.6,8055],[82.6,8138],[82.6,8222],[82.6,8305],[82.6,8387],[82.6,8472],[82.6,8558],[82.6,8640],[82.6,8724],[82.6,8806],[82.6,8892],[82.6,8973],[82.6,9057],[82.6,9141],[82.6,9225],[82.6,9310],[82.6,9392],[82.6,9474],[82.6,9560],[82.6,9642],[82.6,9727],[82.6,9810],[82.6,9895],[82.6,9978],[82.6,10059],[82.6,10145],[82.6,10227],[82.6,10312],[82.6,10395],[85.9,10478],[93.3,10563],[95.9,10644],[95.9,10729],[95.9,10812],[95.9,10894],[95.9,10980],[97.3,11064],[98.7,11145],[98.7,11229],[98.7,11312],[98.7,11399],[98.7,11481],[98.7,11565],[98.7,11648],[98.7,11731],[98.7,11814],[98.7,11899],[98.7,11982],[98.7,12066],[98.7,12149],[98.7,12233],[98.7,12316],[98.7,12400],[98.7,12482],[98.7,12567]]",1,0,870.6613,872.6322,96.61911011,0.7355,"[{""rating"":96.61911010742188,""responseTime"":0.7355000000000018}]",space,1.441,,872.6323,All the time,100,872.6381,,,[],,0,13,13,13,1,audio/Narrative8Situation4.wav,audio/Narrative7Situation4.wav,audio/Narrative6Situation4.wav,audio/Narrative5Situation4.wav,3,3,2,1,,,,,,,,,,,,,,,,,,,,,,,,,,,,,,,,,,,,,,,
,,,,,,6634448bcfec693463ba71e4,2024-05-13_08h52.29.190,group3.1-3.2-social-tom,2023.2.2,MacIntel,59.84082341,65c5074098b851296ff0b7ed,6642372f30cfab3349bec0be,,,,,,,,,,,,,,,,,,,,,,,,,,,,,872.6385,2,audio/Narrative6Situation5.wav,874.6394,,874.6394,882.6096,[],1,0,882.6097,885.6517,83.2873959,2.1582,"[{""rating"":83.28739590115018,""responseTime"":2.158199999988028}]",space,2.5064,,885.6517,All the time,100,885.6547,,,[],,0,14,14,14,1,audio/Narrative8Situation5.wav,audio/Narrative7Situation5.wav,audio/Narrative6Situation5.wav,audio/Narrative5Situation5.wav,2,5,2,5,,,,,,,,,,,,,,,,,,,,,,,,,,,,,,,,,,,,,,,
,,,,,,6634448bcfec693463ba71e4,2024-05-13_08h52.29.190,group3.1-3.2-social-tom,2023.2.2,MacIntel,59.84082341,65c5074098b851296ff0b7ed,6642372f30cfab3349bec0be,,,,,,,,,,,,,,,,,,,,,,,,,,,,,885.655,2,audio/Narrative6Situation6.wav,887.6566,,887.6567,898.7213,"[[88.2,6047],[88.2,6133],[88.2,6216],[88.2,6300],[88.2,6382],[88.2,6465],[88.2,6552],[88.2,6633],[88.2,6717],[88.2,6800],[88.2,6884],[88.2,6969],[88.2,7050],[88.2,7135],[88.2,7219],[88.2,7302],[88.2,7385],[88.2,7470],[88.2,7552],[88.2,7636],[88.2,7719],[88.2,7806],[88.2,7886],[88.2,7969],[88.2,8054],[88.2,8137],[88.2,8221],[88.2,8304],[88.2,8388],[88.2,8471],[88.2,8556],[88.2,8640],[88.2,8722],[88.2,8806],[88.2,8889],[88.2,8974],[88.2,9056],[88.2,9140],[86,9224],[80.1,9309],[74.1,9393],[70.7,9477],[70.7,9558],[70.7,9641],[70.7,9726],[70.7,9809],[70.7,9893],[70.7,9974],[72.5,10058],[77.4,10143],[78.7,10226],[78.8,10312],[78.8,10394],[78.8,10477],[78.8,10561],[78.8,10643],[78.8,10728],[78.8,10811],[78.8,10895],[78.8,10978],[78.8,11064]]",1,0,898.7214,901.3124,79.71274482,0.7978,"[{""rating"":79.7127448187934,""responseTime"":0.7978000000119891}]",space,2.0451,,901.3124,All the time,100,901.3146,,,[],,0,15,15,15,1,audio/Narrative8Situation6.wav,audio/Narrative7Situation6.wav,audio/Narrative6Situation6.wav,audio/Narrative5Situation6.wav,2,3,2,3,,,,,,,,,,,,,,,,,,,,,,,,,,,,,,,,,,,,,,,
,,,,,,6634448bcfec693463ba71e4,2024-05-13_08h52.29.190,group3.1-3.2-social-tom,2023.2.2,MacIntel,59.84082341,65c5074098b851296ff0b7ed,6642372f30cfab3349bec0be,,,,,,,,,,,,,,,,,,,,,,,,,,,,,901.3148,2,audio/Narrative6Situation7.wav,906.3222,,906.3222,931.1726,"[[82.6,5454],[76.1,5699],[73.6,5868],[74.1,5955],[75.4,6035],[75.4,6117],[75.4,6200],[75.4,6285],[75.4,6366],[75.4,6450],[75.4,6536],[75.4,6620],[75.4,6703],[75.4,6787],[75.4,6868],[75.4,6955],[75.4,7037],[75.4,7120],[75.4,7204],[75.4,7288],[75.4,7373],[75.4,7456],[75.4,7538],[75.4,7622],[75.4,7704],[75.4,7789],[75.4,7873],[75.4,7957],[75.4,8039],[75.4,8122],[75.4,8206],[75.4,8290],[75.4,8374],[79.1,8455],[90.2,8542],[94.9,8624],[95.3,8709],[95.3,8793],[95.3,8876],[95.3,8958],[95.3,9041],[95.3,9123],[95.3,9208],[95.3,9290],[95.3,9376],[95.3,9461],[95.3,9541],[95.3,9628],[95.3,9711],[95.3,9793],[95.3,9878],[95.3,9961],[95.3,10045],[95.3,10128],[95.3,10210],[95.3,10294],[95.3,10378],[95.3,10463],[95.3,10545],[95.3,10629],[95.3,10714],[95.3,10798],[95.3,10878],[95.3,10961],[95.3,11045],[95.3,11128],[95.3,11215],[95.3,11297],[95.3,11380],[95.3,11463],[95.3,11546],[95.3,11633],[95.3,11715],[95.3,11798],[95.3,11884],[95.3,11965],[95.3,12052],[95.3,12134],[95.3,12219],[95.3,12301],[95.3,12382],[95.3,12469],[95.3,12550],[95.3,12636],[95.3,12719],[95.3,12801],[95.3,12884],[95.3,12968],[95.3,13053],[95.3,13134],[95.3,13219],[95.3,13304],[95.3,13386],[95.3,13468],[95.3,13552],[95.3,13638],[95.3,13720],[95.3,13804],[95.3,13886],[95.3,13972],[95.3,14054],[95.3,14136],[95.3,14221],[95.3,14304],[95.3,14391],[95.3,14472],[95.3,14557],[95.3,14641],[95.3,14721],[95.3,14806],[95.3,14891],[95.3,14976],[95.3,15057],[95.3,15140],[95.3,15225],[95.3,15308],[95.3,15391],[95.3,15474],[95.3,15557],[95.3,15641],[95.3,15725],[95.3,15810],[95.3,15894],[95.3,15978],[95.3,16060],[95.3,16145],[95.3,16229],[95.3,16312],[95.3,16394],[95.3,16480],[95.3,16563],[95.3,16644],[95.3,16730],[95.3,16812],[95.3,16895],[95.3,16980],[95.3,17063],[95.3,17147],[95.3,17229],[95.3,17315],[95.3,17397],[95.3,17480],[95.3,17565],[95.3,17647],[95.3,17730],[95.3,17816],[95.3,17897],[95.3,17982],[95.3,18066],[95.3,18148],[95.3,18231],[95.3,18318],[95.3,18399],[95.3,18483],[95.3,18568],[95.3,18650],[95.3,18733],[95.3,18818],[95.3,18901],[95.3,18984],[95.3,19069],[95.3,19153],[95.3,19235],[95.3,19320],[95.3,19402],[95.3,19485],[95.3,19569],[95.3,19653],[95.3,19737],[95.3,19818],[95.3,19905],[95.3,19986],[95.3,20070],[95.3,20156],[95.3,20237],[95.3,20322],[95.3,20405],[95.3,20488],[95.3,20572],[95.3,20655],[95.3,20739],[95.3,20822],[95.3,20904],[95.3,20989],[95.3,21073],[95.3,21156],[95.3,21241],[95.3,21325],[95.3,21408],[95.3,21491],[95.3,21576],[95.3,21659],[95.3,21743],[95.3,21826],[95.3,21909],[95.3,21993],[95.3,22075],[95.3,22160],[95.3,22242],[95.3,22326],[95.3,22411],[95.3,22496],[95.3,22577],[95.3,22662],[95.3,22745],[95.3,22827],[95.3,22912],[95.3,22996],[95.3,23079],[95.3,23163],[95.3,23247],[95.3,23331],[95.3,23414],[95.3,23495],[95.3,23580],[95.3,23663],[95.3,23748],[95.3,23830],[95.3,23914],[95.3,23999],[95.3,24080],[95.2,24165],[93.1,24250],[90.4,24333],[88.6,24418],[88.5,24498],[88.5,24581],[88.5,24666],[88.5,24750],[88.5,24833]]",1,0,931.1727,933.0935,90.59261746,0.8468,"[{""rating"":90.59261745876736,""responseTime"":0.8468000000118536}]",space,1.3884,,933.0935,Not at all,0,933.0986,,,[],,0,16,16,16,1,audio/Narrative8Situation7.wav,audio/Narrative7Situation7.wav,audio/Narrative6Situation7.wav,audio/Narrative5Situation7.wav,3,5,5,4,,,,,,,,,,,,,,,,,,,,,,,,,,,,,,,,,,,,,,,
,,,,,,6634448bcfec693463ba71e4,2024-05-13_08h52.29.190,group3.1-3.2-social-tom,2023.2.2,MacIntel,59.84082341,65c5074098b851296ff0b7ed,6642372f30cfab3349bec0be,,,,,,,,,,,,,,,,,,,,,,,,,,,,,933.0989,2,audio/Narrative6Situation8.wav,938.108,,938.1081,944.9611,"[[90,1036],[87.6,1122],[87.1,1202],[86.9,1286],[86.7,1371],[86.7,1453],[86.7,1536],[86.7,1620],[86.7,1702],[86.7,1787],[86.7,1871],[86.7,1953],[86.7,2037],[86.7,2123],[86.7,2206],[86.7,2288],[86.7,2370],[86.7,2456],[86.7,2538],[86.7,2623],[86.7,2706],[86.7,2789],[86.7,2873],[86.7,2956],[86.7,3040],[86.7,3139],[86.7,3275],[86.7,3358],[86.7,3441],[86.7,3527],[86.7,3608],[86.7,3692],[86.7,3777],[86.7,3860],[86.7,3942],[86.7,4027],[86.7,4110],[86.7,4193],[86.7,4276],[86.7,4360],[86.7,4443],[86.7,4529],[86.7,4612],[86.7,4695],[86.7,4778],[86.7,4863],[86.7,4946],[86.7,5030],[86.7,5125],[86.7,5246],[86.7,5332],[86.7,5414],[86.7,5496],[86.7,5581],[86.7,5665],[86.7,5748],[86.7,5832],[86.7,5917],[86.7,5999],[86.7,6082],[86.7,6168],[86.7,6251],[86.7,6333],[86.7,6417],[86.7,6501],[86.7,6583],[86.7,6667],[86.7,6750],[86.7,6835]]",1,0,944.9612,947.2164,85.98280165,0.965,"[{""rating"":85.98280164930556,""responseTime"":0.9650000000000318}]",space,1.7239,,947.2164,Not at all,0,947.218,,,[],,0,17,17,17,1,audio/Narrative8Situation8.wav,audio/Narrative7Situation8.wav,audio/Narrative6Situation8.wav,audio/Narrative5Situation8.wav,3,2,5,3,,,,,,,,,,,,,,,,,,,,,,,,,,,,,,,,,,,,,,,
,,,,,,6634448bcfec693463ba71e4,2024-05-13_08h52.29.190,group3.1-3.2-social-tom,2023.2.2,MacIntel,59.84082341,65c5074098b851296ff0b7ed,6642372f30cfab3349bec0be,,,,,,,,,,,,,,,,,,,,,,,,,,,,,947.2184,2,audio/Narrative6Situation9.wav,951.2247,,951.2248,961.1885,"[[999,12],[999,85],[999,168],[999,252],[999,336],[999,419],[999,501],[999,586],[999,704],[999,787],[999,870],[999,955],[999,1038],[999,1120],[999,1203],[999,1288],[999,1372],[999,1456],[82.2,1538],[82.2,1622],[82.2,1707],[82.2,1789],[82.2,1872],[82.2,1956],[82.2,2038],[82.2,2122],[82.2,2206],[82.2,2289],[82.2,2373],[82.2,2460],[82.2,2541],[82.2,2626],[82.2,2709],[82.2,2791],[82.2,2875],[82.2,2959],[82.2,3043],[82.2,3126],[82.2,3211],[82.2,3292],[82.2,3378],[82.2,3461],[82.2,3547],[82.2,3627],[82.2,3712],[82.2,3793],[82.2,3879],[82.2,3963],[82.2,4047],[82.2,4128],[82.2,4211],[82.2,4296],[82.2,4379],[82.2,4464],[82.2,4546],[82.2,4632],[82.2,4713],[82.2,4797],[82.2,4879],[82.2,4964],[82.2,5047],[82.2,5130],[82.2,5217],[82.2,5299],[82.2,5382],[82.2,5466],[82.2,5548],[82.2,5632],[82.2,5717],[82.2,5802],[82.2,5883],[82.2,5966],[82.2,6049],[82.2,6135],[82.2,6219],[82.2,6301],[82.2,6387],[82.2,6467],[82.2,6553],[82.2,6636],[82.2,6719],[82.2,6803],[82.2,6889],[82.2,6969],[82.2,7053],[82.2,7138],[82.2,7221],[82.2,7303],[82.2,7389],[82.2,7473],[82.2,7554],[82.2,7638],[82.2,7723],[82.2,7804],[82.2,7888],[82.2,7974],[82.2,8055],[82.2,8142],[82.2,8222],[82.2,8309],[82.2,8391],[82.2,8474],[82.2,8558],[82.2,8642],[82.2,8723],[82.2,8808],[82.2,8893],[82.2,8976],[82.2,9061],[82.2,9141],[82.2,9225],[82.2,9311],[82.2,9393],[82.2,9480],[82.2,9561],[82.2,9645],[82.2,9726],[82.2,9811],[82.2,9895]]",1,0,961.1887,966.0686,73.45416599,2.0012,"[{""rating"":73.45416598849826,""responseTime"":2.0011999999881027}]",space,4.3491,,966.0688,Half the time,50,977.9158,50.03445095,7.8297,"[{""rating"":50.03445095486111,""responseTime"":7.829699999988065}]",space,0,18,18,18,1,audio/Narrative8Situation9.wav,audio/Narrative7Situation9.wav,audio/Narrative6Situation9.wav,audio/Narrative5Situation9.wav,3,2,4,3,,,11.2999,,,,,,,,,,,,,,,,,,,,,,,,,,,,,,,,,,,,
,,,,,,6634448bcfec693463ba71e4,2024-05-13_08h52.29.190,group3.1-3.2-social-tom,2023.2.2,MacIntel,59.84082341,65c5074098b851296ff0b7ed,6642372f30cfab3349bec0be,,,,,,,,,,,,,,,,,,,,,,,,,,,,,,,,,,,,,,,,,,,,,,,,,,,,,,,,,,,,,,,,,,,,,,,,977.9267,1021.5133,space,43.0649,,1021.5138,1028.2528,space,6.4076,,,,,,,,,,,,,,,,,,,,,,,,,,
,,,,,,6634448bcfec693463ba71e4,2024-05-13_08h52.29.190,group3.1-3.2-social-tom,2023.2.2,MacIntel,59.84082341,65c5074098b851296ff0b7ed,6642372f30cfab3349bec0be,,,,,,,,,,,,,,,,,,,,,,,,,,,,,1030.8569,1,audio/Narrative8Situation9.wav,1032.8642,,,,,,,1064.7974,1067.0374,73.35222032,0.8821,"[{""rating"":73.35222032335069,""responseTime"":0.882100000023911}]",space,1.7095,,1064.7824,Not at all,0,1064.7973,,,[],,,,,,,,,,,2,2,2,2,,,,,,,,,,,,,,,1028.2654,1030.8406,1032.8645,3,1064.7823,"[[999,1],[999,82],[999,172],[999,249],[999,329],[999,413],[999,498],[999,582],[999,665],[999,750],[999,832],[999,914],[999,1000],[999,1081],[999,1165],[999,1251],[999,1336],[999,1418],[999,1499],[999,1582],[999,1667],[999,1753],[999,1833],[999,1919],[999,2001],[999,2087],[999,2169],[999,2251],[999,2335],[999,2422],[999,2502],[999,2587],[999,2672],[999,2753],[999,2838],[999,2923],[999,3005],[999,3089],[999,3172],[999,3256],[999,3339],[999,3423],[999,3508],[999,3590],[48.7,3674],[48.7,3756],[48.7,3838],[48.7,3923],[48.7,4008],[48.7,4092],[48.7,4175],[48.7,4256],[48.7,4341],[48.7,4423],[48.7,4508],[48.7,4593],[48.7,4674],[48.7,4761],[48.7,4842],[48.7,4927],[49.6,5012],[57.3,5091],[64.1,5177],[65.1,5261],[65.1,5343],[65.1,5426],[65.1,5512],[65.1,5596],[65.1,5679],[65.1,5760],[65.1,5843],[65.1,5928],[65.1,6010],[65.1,6095],[65.1,6180],[65.1,6261],[65.1,6345],[65.1,6430],[65.1,6513],[65.1,6599],[65.1,6682],[65.1,6765],[65.1,6850],[65.1,6932],[65.1,7014],[65.1,7099],[65.1,7184],[65.1,7266],[65.1,7350],[65.1,7435],[65.1,7517],[65.1,7601],[65.1,7684],[65.1,7768],[65.1,7851],[65.1,7936],[65.1,8018],[65.1,8101],[65.1,8185],[65.1,8268],[67.6,8353],[75.9,8436],[75.9,8519],[75.9,8604],[75.9,8685],[75.9,8771],[75.9,8854],[75.9,8938],[74.3,9022],[70.5,9106],[70,9188],[70,9272],[70,9355],[70,9439],[70,9522],[70,9605],[70,9690],[70,9775],[70,9856],[70,9941],[65.3,10023],[63.2,10109],[63.2,10191],[63.2,10275],[63.2,10358],[63.2,10441],[63.2,10525],[63.2,10609],[63.2,10692],[63.2,10775],[63.2,10859],[63.2,10943],[63.2,11027],[63.2,11109],[63.2,11196],[63.2,11279],[63.2,11361],[63.2,11444],[63.2,11528],[63.2,11611],[63.2,11694],[63.2,11779],[65.5,11860],[71.6,11943],[74.8,12028],[75.1,12111],[75.1,12195],[75.1,12279],[75.1,12363],[75.1,12447],[75.1,12531],[75.1,12614],[75.1,12699],[75.1,12781],[75.1,12865],[75.1,12948],[75.1,13033],[75.1,13115],[76.6,13199],[81.3,13283],[82.8,13363],[82.8,13448],[82.8,13532],[82.8,13614],[82.8,13700],[82.8,13783],[82.8,13866],[82.8,13949],[82.8,14033],[82.8,14116],[82.8,14200],[82.8,14283],[82.8,14368],[82.8,14450],[82.8,14534],[82.8,14618],[82.8,14702],[82.8,14786],[82.8,14870],[82.8,14954],[82.8,15036],[82.8,15122],[82.8,15204],[82.8,15286],[82.8,15372],[82.8,15455],[82.8,15539],[82.8,15622],[82.8,15704],[82.8,15789],[82.8,15874],[82.8,15955],[82.8,16040],[82.8,16122],[82.8,16207],[82.8,16290],[82.8,16374],[82.8,16458],[82.8,16541],[82.8,16623],[82.8,16708],[82.8,16791],[82.8,16876],[82.8,16957],[82.8,17040],[82.8,17126],[82.8,17207],[82.8,17293],[82.8,17375],[82.8,17458],[82.8,17544],[82.8,17625],[82.8,17712],[82.8,17795],[82.8,17878],[82.8,17962],[82.8,18043],[82.8,18128],[82.8,18211],[82.8,18294],[82.8,18378],[82.8,18460],[82.8,18545],[82.8,18631],[82.8,18714],[82.8,18797],[82.8,18879],[82.8,18963],[82.8,19048],[82.8,19132],[82.8,19214],[82.8,19298],[82.8,19381],[82.8,19465],[82.8,19549],[80.3,19633],[74.9,19717],[73.3,19798],[73.3,19882],[73.3,19966],[73.3,20051],[73,20134],[68.9,20217],[67.1,20299],[67.1,20383],[67.1,20467],[67.1,20551],[67.1,20637],[67.1,20719],[67.1,20802],[67.1,20885],[67.1,20969],[67.1,21054],[67.1,21137],[67.1,21222],[67.1,21302],[67.1,21386],[67.1,21470],[67.1,21555],[67.1,21638],[67.1,21722],[67.1,21805],[67.1,21888],[67.1,21973],[67.1,22056],[67.1,22138],[67.1,22224],[67.1,22305],[67.1,22391],[67.1,22474],[67.1,22557],[67.1,22641],[67.1,22724],[67.1,22807],[67.1,22890],[67.1,22974],[67.1,23058],[67.1,23141],[67.1,23226],[67.1,23309],[67.1,23391],[67.1,23473],[67.1,23559],[67.1,23644],[67.1,23726],[67.1,23809],[67.1,23895],[67.1,23976],[67.1,24059],[67.1,24144],[67.1,24229],[67.1,24312],[67.1,24394],[67.1,24478],[67.1,24563],[67.1,24645],[67.1,24729],[67.1,24812],[67.1,24897],[70.7,24981],[74.9,25065],[75.5,25146],[75.5,25230],[75.5,25313],[75.5,25398],[75.5,25480],[75.5,25568],[75.5,25649],[75.5,25732],[75.5,25816],[75.5,25900],[75.5,25982],[75.5,26066],[75.5,26149],[75.5,26233],[75.5,26316],[75.5,26399],[75.5,26485],[75.5,26569],[75.5,26652],[75.5,26733],[75.5,26819],[75.5,26902],[75.5,26987],[75.5,27070],[75.5,27151],[75.5,27237],[75.5,27318],[75.5,27401],[75.5,27488],[75.5,27569],[75.5,27653],[75.5,27738],[75.5,27819],[75.5,27903],[75.5,27987],[75.5,28071],[75.5,28154],[75.5,28237],[75.5,28323],[75.5,28405],[75.5,28490],[75.5,28574],[75.5,28655],[75.5,28738],[75.5,28823],[75.5,28905],[75.5,28991],[75.5,29074],[75.5,29157],[75.5,29241],[75.5,29323],[75.5,29409],[75.5,29492],[75.5,29575],[75.5,29659],[75.5,29743],[75.5,29827],[75.5,29908],[75.5,29992],[75.5,30078],[75.5,30158],[75.5,30245],[75.5,30326],[75.5,30411],[75.5,30495],[75.5,30580],[75.5,30663],[75.5,30745],[75.5,30830],[75.5,30912],[75.5,30996],[75.5,31081],[75.5,31163],[75.5,31247],[75.5,31329],[75.5,31415],[75.5,31498],[75.5,31581],[75.5,31663],[75.5,31749],[75.5,31831],[75.5,31917]]",0,0,0,0,1,"Larry had recently lost his family, job and home, and was now living on his own in the park. He had most of his belongings, including some clothes, a blanket, and his mother’s special necklace. His family had been very important to him and he felt as though he did not have much going for him. One of his first days in the park he came across a family that did not have much food and looked very cold. He decided to give them some of his food and his blanket.","Larry had recently lost his family, job and home, and was now living on his own in the park. He had most of his belongings, including some clothes, a blanket, and his mother’s special necklace. His family had been very important to him and he felt as though he did not have much going for him. One of his first days in the park he came across a family that did not have much food and looked very cold. He decided to give them some of his food and his blanket.","Larry had recently lost his family, job and home, and was now living on his own in the park. He had most of his belongings, including some clothes, a blanket, and his mother’s special necklace. His family had been very important to him and he felt as though he did not have much going for him. One of his first days in the park he came across a family that did not have much food and looked very cold. He decided to give them some of his food and his blanket.","Larry had recently lost his family, job and home, and was now living on his own in the park. He had most of his belongings, including some clothes, a blanket, and his mother’s special necklace. His family had been very important to him and he felt as though he did not have much going for him. One of his first days in the park he came across a family that did not have much food and looked very cold. He decided to give them some of his food and his blanket.",,,,,,,,,,
,,,,,,6634448bcfec693463ba71e4,2024-05-13_08h52.29.190,group3.1-3.2-social-tom,2023.2.2,MacIntel,59.84082341,65c5074098b851296ff0b7ed,6642372f30cfab3349bec0be,,,,,,,,,,,,,,,,,,,,,,,,,,,,,1067.0382,1,audio/Narrative8Situation9.wav,1069.1414,space,,,,,,1102.7327,1104.988,73.51444668,1.4748,"[{""rating"":73.51444668240018,""responseTime"":1.47480000001201}]",space,1.7127,,1102.7302,All the time,100,1102.7327,,,[],,,,,,,,,,,6,2,3,9,2.0911,,,,,,,,,,,,,,,,1069.1414,3,1102.7301,"[[73.3,3759],[72.4,3846],[71.4,3927],[70.1,4011],[69.9,4094],[69.9,4177],[69.9,4260],[69.9,4345],[69.9,4429],[63,4511],[47.9,4595],[46.8,4678],[46.8,4762],[44.9,4847],[30.1,4929],[27.7,5013],[27.7,5096],[27.7,5181],[19.6,5265],[16.7,5345],[16.7,5429],[16.7,5516],[16.7,5598],[16.7,5682],[16.7,5764],[16.7,5848],[16.7,5932],[16.7,6016],[16.7,6101],[16.7,6183],[16.7,6268],[16.7,6348],[16.7,6432],[16.7,6518],[16.7,6600],[16.7,6683],[16.7,6768],[16.7,6850],[16.7,6933],[16.7,7018],[16.7,7103],[16.7,7186],[16.7,7268],[16.7,7355],[16.7,7436],[16.7,7520],[16.7,7602],[16.7,7686],[16.7,7768],[16.7,7853],[16.7,7938],[16.7,8022],[16.7,8103],[16.7,8187],[16.7,8271],[16.7,8356],[16.7,8440],[16.7,8521],[16.7,8606],[16.7,8690],[16.7,8773],[16.7,8858],[16.7,8939],[16.7,9026],[16.7,9107],[16.7,9189],[16.7,9276],[16.7,9356],[16.7,9442],[16.7,9525],[16.7,9607],[16.7,9693],[16.7,9775],[16.7,9860],[16.7,9944],[16.7,10025],[16.7,10111],[16.7,10192],[16.7,10277],[16.7,10361],[16.7,10445],[16.7,10529],[16.7,10610],[16.7,10695],[16.7,10778],[16.7,10861],[16.7,10946],[16.7,11029],[16.7,11114],[16.7,11195],[16.7,11279],[16.7,11363],[16.7,11447],[16.7,11530],[16.7,11615],[16.7,11696],[16.7,11783],[16.7,11865],[16.7,11947],[16.7,12033],[16.7,12115],[19.6,12205],[24.9,12283],[29.7,12365],[33.2,12451],[33.2,12533],[33.2,12618],[33.2,12701],[33.2,12782],[33.2,12868],[33.2,12950],[33.2,13035],[33.2,13118],[33.2,13200],[33.2,13285],[33.2,13369],[33.2,13452],[33.2,13537],[33.2,13618],[33.2,13702],[33.2,13785],[33.2,13868],[33.2,13955],[33.2,14036],[33.2,14119],[33.2,14204],[33.2,14289],[33.2,14372],[33.2,14456],[33.2,14539],[33.2,14622],[33.2,14704],[33.2,14791],[33.2,14872],[33.2,14955],[33.2,15040],[33.2,15121],[33.2,15209],[33.2,15292],[33.2,15372],[33.2,15458],[33.2,15540],[33.2,15623],[33.2,15707],[33.2,15792],[33.2,15876],[33.2,15957],[33.2,16044],[33.2,16158],[33.2,16241],[33.2,16325],[33.2,16408],[33.2,16495],[33.2,16575],[33.2,16659],[33.2,16742],[33.2,16828],[33.2,16909],[33.2,16993],[33.2,17077],[33.2,17161],[33.2,17244],[33.2,17328],[33.2,17411],[33.8,17496],[37.5,17578],[42.3,17664],[44.8,17747],[45,17829],[46.7,17914],[48,17996],[48,18082],[48,18163],[48,18246],[48,18330],[48,18413],[48,18497],[49.4,18582],[52,18664],[52.6,18749],[52.6,18833],[52.6,18918],[52.6,18999],[52.6,19082],[52.6,19167],[52.6,19251],[52.6,19333],[52.6,19416],[52.6,19503],[52.6,19585],[52.6,19667],[52.6,19753],[52.6,19834],[52.6,19918],[52.6,20001],[52.6,20085],[52.6,20168],[52.6,20252],[52.6,20337],[52.6,20421],[52.6,20503],[52.6,20587],[52.6,20670],[52.6,20755],[52.6,20839],[52.6,20921],[52.6,21004],[52.6,21088],[52.6,21173],[52.6,21257],[52.6,21342],[52.6,21422],[52.6,21505],[52.6,21590],[52.6,21675],[52.6,21757],[52.6,21842],[55.8,21925],[61.4,22007],[73.9,33556]]",0,1,1,1,1,"It was just another Sunday afternoon for Lucy, she was on her way to the farmer's market to pick up some produce. When she arrived at the old train depot that housed the market, she noticed two men fighting on the steps. Before she could call for help, one of the men crumpled to his knees. The other man dropped an object that appeared to be a knife and ran off. When Lucy approached the crime scene she realized that the man who had been murdered was the Mayor and that he had a gunshot wound.","One day at work, Margaret walked up to her partner, Al, to ask him to talk to the chief of staff at the local hospital where she worked as a nurse.","Luke always thought of himself as an honest man. That's why during his evening jog around the swamp, he pondered his recent affair with the receptionist at work. Luke looked up at the sky and asked God why he was so weak and unfaithful. He thought of the impact this would have on his family and told God of his conflicted feelings toward telling his wife Marta.","Linda and Amy had been best friends since kindergarten, they even found homes on the same street in the forest on the edge of town. Their biggest fight had been over who gets the bigger slice of cake, until Amy married Dan. Linda loathed Dan, she thought he was manipulative and had a violent temper. She only put up with him because Amy loved him. ",,,,,,,,,,
,,,,,,6634448bcfec693463ba71e4,2024-05-13_08h52.29.190,group3.1-3.2-social-tom,2023.2.2,MacIntel,59.84082341,65c5074098b851296ff0b7ed,6642372f30cfab3349bec0be,,,,,,,,,,,,,,,,,,,,,,,,,,,,,1104.989,1,audio/Narrative8Situation9.wav,1108.9968,,,,,,,1127.5617,1132.2118,73.70656331,2.5267,"[{""rating"":73.70656331380209,""responseTime"":2.526699999988068}]",space,4.1125,,1127.5476,Not at all,0,1127.5616,,,[],,,,,,,,,,,4,5,2,2,,,,,,,,,,,,,,,,,1108.9968,3,1127.5476,"[[68.1,4929],[66.2,5015],[66.2,5097],[66.2,5180],[66.2,5264],[66.2,5348],[66.2,5431],[66.2,5516],[66.2,5597],[66.2,5683],[66.2,5766],[66.2,5848],[66.2,5932],[66.2,6016],[66.2,6100],[66.2,6184],[66.2,6266],[66.2,6351],[66.2,6433],[66.2,6516],[66.2,6601],[66.2,6686],[66.2,6767],[66.2,6851],[66.2,6935],[66.2,7019],[66.2,7101],[66.2,7186],[66.2,7269],[66.2,7353],[66.2,7437],[66.2,7519],[66.2,7603],[66.2,7688],[66.2,7776],[66.2,7854],[66.2,7937],[66.2,8021],[66.2,8104],[66.2,8188],[66.2,8273],[66.2,8355],[66.2,8440],[66.2,8522],[66.2,8607],[66.2,8690],[66.2,8772],[66.2,8858],[66.2,8940],[66.2,9024],[66.2,9107],[66.2,9193],[66.2,9275],[66.2,9358],[66.2,9442],[66.2,9526],[66.2,9608],[66.2,9693],[66.2,9775],[66.2,9860],[66.2,9943],[66.2,10026],[66.2,10110],[66.2,10193],[66.2,10277],[66.2,10361],[66.2,10444],[66.2,10527],[66.2,10610],[66.2,10694],[66.2,10778],[66.2,10862],[66.2,10946],[66.2,11029],[66.2,11112],[66.2,11196],[66.2,11279],[67.9,11363],[75.6,11450],[77.4,11530],[77.4,11614],[77.4,11697],[77.4,11781],[77.4,11864],[77.4,11948],[77.4,12033],[77.4,12116],[77.4,12198],[77.4,12282],[77.4,12366],[77.4,12449],[77.4,12535],[77.4,12617],[77.4,12701],[77.4,12783],[77.4,12867],[77.4,12952],[77.4,13034],[77.4,13118],[77.4,13201],[77.4,13285],[77.4,13370],[77.4,13452],[77.4,13535],[77.4,13619],[77.4,13702],[77.4,13786],[77.4,13869],[77.4,13953],[77.4,14038],[77.4,14120],[77.4,14205],[77.4,14287],[77.4,14371],[77.4,14454],[77.4,14540],[77.4,14621],[77.4,14705],[77.4,14790],[77.4,14874],[77.4,14956],[77.4,15041],[77.4,15123],[77.4,15207],[77.4,15292],[77.4,15373],[77.4,15456],[77.4,15542],[77.4,15626],[77.4,15709],[77.4,15791],[77.4,15876],[77.4,15959],[77.4,16042],[77.4,16125],[77.4,16209],[77.4,16293],[77.4,16377],[77.4,16461],[77.4,16545],[77.4,16627],[77.4,16711],[77.4,16795],[77.4,16879],[77.4,16962],[77.4,17045],[77.4,17129],[77.4,17212],[77.4,17295],[77.4,17379],[77.4,17462],[77.4,17549],[77.4,17631],[77.4,17712],[77.4,17799],[77.4,17880],[77.4,17965],[77.4,18049],[77.4,18131],[77.4,18217],[77.4,18299],[77.4,18384],[77.4,18466],[77.4,18550]]",0,2,2,2,1,On the ground beside him was a pen that she had mistaken for a knife. Lucy looked for the gunman and saw a suspicious man in black with distinct pointy features darting into an alley across the street. Cops who were nearby chased the man who had fled and arrested him.,"While waiting outside the chief of staff's office, Al heard nondescript shouting and yelling, there was a loud clatter in the room and then an eerie silence. An unfamiliar employee ran hastily out of the office with a terrified look on their face.","Suddenly, Luke heard a woman call out his name and when he turned around he saw Carly, his receptionist, across the road with a gun in her hand. Carly ran to him and explained how she had followed him here to confess her love. She exclaimed if Luke didn't love her back that she would kill him and his family. Carly explained that the only way they could be together is to kill Marta.","This feeling of hate between Amy and Dan was mutual, Dan didn't like how much time his wife spent with her and thought Amy was creating distance between their marriage. That's why Dan decided to try and tarnish Linda's reputation with his wife, in hopes it would get rid of her. He came home one afternoon and exclaimed that Linda had tried to kiss him. Amy was taken aback and immediately called Linda to confront her about these accusations. When Linda arrived she denied having made a move on Dan, but discovered Dan had enlisted the help of his friend Will who said he witnessed it all happen.",,,,,,,,,,
,,,,,,6634448bcfec693463ba71e4,2024-05-13_08h52.29.190,group3.1-3.2-social-tom,2023.2.2,MacIntel,59.84082341,65c5074098b851296ff0b7ed,6642372f30cfab3349bec0be,,,,,,,,,,,,,,,,,,,,,,,,,,,,,1132.2121,1,audio/Narrative8Situation9.wav,1134.2153,,,,,,,1146.0946,1149.3074,58.01272922,2.3546,"[{""rating"":65.49290974934895,""responseTime"":1.5203999999760072},{""rating"":58.012729220920136,""responseTime"":2.3546000000237655}]",space,2.6832,,1146.0809,All the time,100,1146.0946,,,[],,,,,,,,,,,2,2,1,4,,,,,,,,,,,,,,,,,1134.2154,3,1146.0809,"[[68.5,3512],[68.7,3591],[68.7,3675],[68.7,3758],[68.7,3842],[68.7,3925],[68.7,4009],[68.7,4092],[68.7,4176],[68.7,4260],[68.7,4343],[68.7,4427],[68.7,4510],[68.7,4594],[68.7,4678],[68.7,4761],[68.7,4844],[68.7,4928],[68.7,5012],[68.7,5096],[68.7,5179],[68.7,5263],[68.7,5346],[68.7,5430],[68.7,5514],[68.7,5597],[68.7,5681],[68.7,5764],[68.7,5847],[68.7,5932],[68.7,6015],[68.7,6097],[68.7,6182],[68.7,6266],[68.7,6349],[68.7,6432],[68.7,6516],[68.7,6600],[68.7,6682],[68.7,6766],[68.7,6849],[68.7,6932],[68.7,7017],[68.7,7101],[68.7,7185],[68.7,7267],[68.7,7353],[68.7,7436],[68.7,7519],[68.7,7601],[68.7,7685],[68.7,7771],[68.7,7854],[68.7,7937],[68.7,8020],[68.7,8103],[68.7,8187],[68.7,8271],[68.7,8353],[68.7,8438],[68.7,8521],[68.7,8606],[68.7,8688],[68.7,8773],[68.7,8856],[68.7,8938],[68.7,9021],[68.7,9108],[68.7,9189],[68.7,9274],[68.7,9356],[68.7,9441],[68.7,9525],[68.7,9608],[68.7,9692],[68.7,9775],[68.7,9858],[68.7,9943],[68.7,10027],[68.7,10109],[68.7,10193],[68.7,10278],[68.7,10360],[68.7,10443],[68.7,10528],[68.7,10610],[68.7,10692],[68.7,10777],[68.7,10861],[68.7,10946],[68.7,11073],[68.7,11145],[68.7,11230],[68.7,11312],[68.7,11398],[68.7,11481],[68.7,11563],[68.7,11647],[68.7,11733],[68.7,11814]]",0,3,3,3,1,"But Lucy knew the charged man was innocent, which meant the killer was free. Lucy vowed to find out who the real murderer was and to stop him at all costs.","Al explained to the chief of staff that Margaret wanted to be excused from her absences last week. The chief of staff, Susan, revealed that she wanted to fire Margaret and never see her again. Susan and Al had been having an affair and she wanted Margaret ""out of the picture"". Al was conflicted, but agreed it would be for the best.","Luke thought of his child and felt like this was his only option. He agreed to the plan and called his wife to meet him at the swamp to watch the sunset with him. When she arrived, Marta called out for her husband, but found Carly waiting for her. She immediately drew her gun and shot her in the chest, knocking her unconscious.","Since it was their word against her own, she decided to go home and admit defeat. She knew how much it would hurt Amy to know the truth.",,,,,,,,,,
