exp_question,consent.started,consent.stopped,consentResponse.keys,consentResponse.rt,consentResponse.duration,participantID,date,expName,psychopyVersion,OS,frameRate,STUDY_ID,SESSION_ID,opening1.started,opening1.stopped,keyEndingOpening1.keys,keyEndingOpening1.rt,keyEndingOpening1.duration,volumeAdjust.started,volumeAdjust.stopped,endingAdjust.keys,endingAdjust.rt,endingAdjust.duration,opening2.started,opening2.stopped,keyEndingOpening.keys,keyEndingOpening.rt,keyEndingOpening.duration,mouse.x,mouse.y,mouse.leftButton,mouse.midButton,mouse.rightButton,mouse.time,instructionLoop.thisRepN,instructionLoop.thisTrialN,instructionLoop.thisN,instructionLoop.thisIndex,instructionLoop.ran,readyForAudio.started,readyForAudio.stopped,fixation.started,run,audio_played,fixation.stopped,endPractice.keys,audioPre.started,audioPre.stopped,continuousResponses_audio,continuousSlider.response,continuousSlider.rt,intRating.started,intRating.stopped,intQuestionSlider.response,intQuestionSlider.rt,intQuestionSlider.history,confirmResponse.keys,confirmResponse.rt,confirmResponse.duration,catchQuestion.started,catch_label,catch_value,catchQuestion.stopped,catchQuestionSlider.response,catchQuestionSlider.rt,catchQuestionSlider.history,confirmResponse_2.keys,audioRunLoop.thisRepN,audioRunLoop.thisTrialN,audioRunLoop.thisN,audioRunLoop.thisIndex,audioRunLoop.ran,conditions1_1,conditions2_1,conditions1_2,conditions2_2,dur1_1,dur2_1,dur1_2,dur2_2,endPractice.rt,endPractice.duration,confirmResponse_2.rt,confirmResponse_2.duration,runIntervalBreak.started,runIntervalBreak.stopped,endingBreakKey.keys,endingBreakKey.rt,endingBreakKey.duration,connection.started,connection.stopped,connectionEnding.keys,connectionEnding.rt,connectionEnding.duration,readyForText.started,readyForText.stopped,textPre.started,run_dup,textPre.stopped,continuousResponses_text,textRunLoop.thisRepN,textRunLoop.thisTrialN,textRunLoop.thisN,textRunLoop.thisIndex,textRunLoop.ran,text1_1,text1_2,text2_1,text2_2,runBreakText.started,runBreakText.stopped,endingBreakKey_2.keys,endingBreakKey_2.rt,endingBreakKey_2.duration,ending.started,ending.stopped,endingEnding.keys,endingEnding.rt,endingEnding.duration
tom,0.001,21.099,y,20.71,,663a5d5b61177a372e6f7452,2024-05-13_08h27.08.127,group3.1-3.2-social-tom,2023.2.2,MacIntel,76.92307692,65c5074098b851296ff0b7ed,664230fd91c9f13387da9f31,,,,,,,,,,,,,,,,,,,,,,,,,,,,,,,,,,,,,,,,,,,,,,,,,,,,,,,,,,,,,,,,,,,,,,,,,,,,,,,,,,,,,,,,,,,,,,,,,,,,,,,,,,
,,,,,,663a5d5b61177a372e6f7452,2024-05-13_08h27.08.127,group3.1-3.2-social-tom,2023.2.2,MacIntel,76.92307692,65c5074098b851296ff0b7ed,664230fd91c9f13387da9f31,21.1,29.629,space,8.454,,,,,,,,,,,,,,,,,,,,,,,,,,,,,,,,,,,,,,,,,,,,,,,,,,,,,,,,,,,,,,,,,,,,,,,,,,,,,,,,,,,,,,,,,,,,,,,,,,,,,,
,,,,,,663a5d5b61177a372e6f7452,2024-05-13_08h27.08.127,group3.1-3.2-social-tom,2023.2.2,MacIntel,76.92307692,65c5074098b851296ff0b7ed,664230fd91c9f13387da9f31,,,,,,29.631,52.845,space,22.884,,,,,,,,,,,,,,,,,,,,,,,,,,,,,,,,,,,,,,,,,,,,,,,,,,,,,,,,,,,,,,,,,,,,,,,,,,,,,,,,,,,,,,,,,,,,,,,,,
,,,,,,663a5d5b61177a372e6f7452,2024-05-13_08h27.08.127,group3.1-3.2-social-tom,2023.2.2,MacIntel,76.92307692,65c5074098b851296ff0b7ed,664230fd91c9f13387da9f31,,,,,,,,,,,52.859,87.166,space,34.237,,[],[],[],[],[],[],0,0,0,0,1,,,,,,,,,,,,,,,,,,,,,,,,,,,,,,,,,,,,,,,,,,,,,,,,,,,,,,,,,,,,,,,,,,,,,,,,,,,,,,,,
,,,,,,663a5d5b61177a372e6f7452,2024-05-13_08h27.08.127,group3.1-3.2-social-tom,2023.2.2,MacIntel,76.92307692,65c5074098b851296ff0b7ed,664230fd91c9f13387da9f31,,,,,,,,,,,87.217,126.776,space,38.98,,[],[],[],[],[],[],1,0,1,0,1,,,,,,,,,,,,,,,,,,,,,,,,,,,,,,,,,,,,,,,,,,,,,,,,,,,,,,,,,,,,,,,,,,,,,,,,,,,,,,,,
,,,,,,663a5d5b61177a372e6f7452,2024-05-13_08h27.08.127,group3.1-3.2-social-tom,2023.2.2,MacIntel,76.92307692,65c5074098b851296ff0b7ed,664230fd91c9f13387da9f31,,,,,,,,,,,126.783,198.818,space,71.882,,[],[],[],[],[],[],2,0,2,0,1,,,,,,,,,,,,,,,,,,,,,,,,,,,,,,,,,,,,,,,,,,,,,,,,,,,,,,,,,,,,,,,,,,,,,,,,,,,,,,,,
,,,,,,663a5d5b61177a372e6f7452,2024-05-13_08h27.08.127,group3.1-3.2-social-tom,2023.2.2,MacIntel,76.92307692,65c5074098b851296ff0b7ed,664230fd91c9f13387da9f31,,,,,,,,,,,198.824,217.698,space,18.768,,[],[],[],[],[],[],3,0,3,0,1,,,,,,,,,,,,,,,,,,,,,,,,,,,,,,,,,,,,,,,,,,,,,,,,,,,,,,,,,,,,,,,,,,,,,,,,,,,,,,,,
,,,,,,663a5d5b61177a372e6f7452,2024-05-13_08h27.08.127,group3.1-3.2-social-tom,2023.2.2,MacIntel,76.92307692,65c5074098b851296ff0b7ed,664230fd91c9f13387da9f31,,,,,,,,,,,217.699,291.822,space,74.06,,[],[],[],[],[],[],4,0,4,0,1,,,,,,,,,,,,,,,,,,,,,,,,,,,,,,,,,,,,,,,,,,,,,,,,,,,,,,,,,,,,,,,,,,,,,,,,,,,,,,,,
,,,,,,663a5d5b61177a372e6f7452,2024-05-13_08h27.08.127,group3.1-3.2-social-tom,2023.2.2,MacIntel,76.92307692,65c5074098b851296ff0b7ed,664230fd91c9f13387da9f31,,,,,,,,,,,,,,,,,,,,,,,,,,,291.852,294.409,294.581,1,audio/Narrative13Situation2.wav,296.591,,296.593,326.339,"[[999,7],[999,246],[999,345],[999,436],[999,544],[999,636],[999,742],[999,842],[999,942],[999,1079],[999,1180],[999,1278],[999,1379],[999,1480],[999,1579],[999,1680],[999,1780],[999,1879],[999,1979],[999,2079],[999,2179],[999,2278],[999,2379],[999,2480],[999,2579],[999,2680],[999,2778],[999,2879],[999,2980],[999,3079],[999,3180],[999,3278],[999,3379],[999,3479],[999,3579],[999,3679],[999,3780],[999,3882],[999,3979],[999,4080],[999,4179],[999,4280],[999,4379],[999,4480],[999,4579],[999,4679],[999,4778],[999,4879],[999,4979],[999,5079],[999,5182],[999,5280],[999,5381],[999,5480],[999,5581],[999,5680],[999,5780],[999,5879],[999,5979],[999,6080],[999,6179],[999,6278],[999,6379],[999,6479],[999,6579],[999,6679],[999,6778],[999,6879],[999,6980],[999,7079],[999,7180],[999,7278],[999,7381],[999,7479],[999,7579],[999,7679],[999,7781],[999,7881],[999,7979],[999,8080],[999,8179],[999,8278],[999,8379],[999,8479],[999,8579],[999,8680],[999,8778],[999,8879],[999,8979],[999,9078],[999,9180],[999,9278],[999,9379],[999,9479],[999,9580],[999,9679],[999,9778],[999,9879],[999,9979],[999,10079],[999,10180],[999,10280],[999,10379],[999,10492],[999,10609],[999,10730],[999,10833],[999,10989],[999,11198],[999,11295],[999,11396],[999,11495],[999,11604],[999,11783],[999,11896],[999,11997],[999,12095],[999,12194],[999,12295],[999,12396],[999,12495],[999,12598],[999,12696],[999,12797],[999,12896],[999,12996],[999,13095],[999,13194],[999,13297],[999,13394],[999,13496],[999,13596],[999,13694],[999,13795],[999,13963],[66,14074],[66.3,14173],[67.2,14283],[67.4,14379],[67.4,14479],[67.4,14579],[67.4,14680],[67.4,14778],[67.4,14879],[67.4,14979],[67.4,15079],[67.4,15179],[67.4,15278],[67.4,15379],[67.4,15479],[67.4,15579],[67.4,15679],[67.4,15780],[67.4,15879],[67.4,15979],[67.4,16079],[67.4,16179],[67.4,16278],[67.4,16379],[67.4,16479],[67.4,16579],[67.4,16677],[67.4,16778],[67.4,16879],[67.4,16978],[67.4,17080],[67.4,17179],[67.4,17278],[67.4,17379],[67.4,17479],[67.4,17579],[67.4,17679],[67.4,17778],[67.4,17879],[67.4,17979],[67.4,18078],[67.4,18179],[67.4,18278],[67.4,18379],[67.4,18479],[67.4,18579],[67.4,18679],[67.4,18780],[67.4,18879],[67.4,18979],[67.4,19079],[67.4,19177],[67.4,19278],[67.4,19379],[67.4,19479],[67.4,19579],[67.4,19679],[67.4,19778],[67.4,19879],[67.4,19980],[67.4,20078],[67.4,20180],[67.4,20278],[67.4,20378],[67.4,20479],[67.4,20579],[67.4,20679],[67.4,20778],[70.3,20879],[72.2,20978],[72.2,21080],[72.4,21179],[72.6,21278],[72.6,21378],[72.6,21479],[72.6,21579],[72.6,21679],[72.6,21778],[72.6,21879],[72.6,21979],[72.6,22079],[72.6,22180],[72.6,22278],[72.6,22379],[72.6,22479],[72.6,22578],[72.6,22679],[72.6,22778],[72.6,22878],[72.6,22980],[72.6,23079],[72.6,23179],[72.6,23278],[72.6,23379],[72.6,23479],[72.6,23579],[72.6,23679],[72.6,23778],[72.6,23879],[72.6,23979],[72.6,24079],[72.6,24179],[72.6,24278],[72.6,24379],[72.6,24479],[72.6,24580],[72.6,24679],[72.6,24778],[72.6,24879],[72.6,24979],[72.6,25079],[72.6,25177],[72.6,25278],[72.6,25379],[72.6,25479],[72.6,25578],[72.6,25679],[72.6,25778],[72.6,25879],[72.6,25979],[72.6,26078],[72.6,26180],[72.6,26278],[72.6,26379],[72.6,26479],[72.6,26579],[72.6,26677],[72.6,26778],[72.6,26879],[72.6,26979],[72.6,27079],[72.6,27179],[72.6,27278],[72.6,27379],[72.6,27479],[72.6,27578],[72.6,27679],[72.6,27778],[72.6,27879],[72.6,27979],[73.2,28081],[76.9,28180],[79.3,28283],[80.1,28384],[80.3,28492],[81,28598],[81.7,28697],[81.7,28795],[81.7,28896],[81.7,28996],[81.7,29095],[81.7,29194],[81.7,29295],[81.7,29394],[81.7,29496],[81.7,29595],[81.7,29696]]",1,0,326.339,338.94,80.41666667,10.788,"[{""rating"":80.41666666666667,""responseTime"":10.788000000000011}]",space,12.05,,338.94,Not at all,0,338.959,,,[],,0,0,0,0,1,audio/Narrative13Situation2.wav,audio/Narrative13Situation2.wav,audio/Narrative13Situation2.wav,audio/Narrative13Situation2.wav,2,2,2,2,,,,,,,,,,,,,,,,,,,,,,,,,,,,,,,,,,,,,,,
,,,,,,663a5d5b61177a372e6f7452,2024-05-13_08h27.08.127,group3.1-3.2-social-tom,2023.2.2,MacIntel,76.92307692,65c5074098b851296ff0b7ed,664230fd91c9f13387da9f31,,,,,,,,,,,,,,,,,,,,,,,,,,,,,338.96,1,audio/Narrative7Situation1.wav,342.837,space,342.837,398.72,"[[999,2],[999,117],[999,217],[999,316],[999,413],[999,504],[999,600],[999,701],[999,800],[999,901],[999,1000],[999,1100],[999,1199],[999,1355],[999,1600],[999,1783],[999,1894],[999,1996],[999,2093],[999,2189],[999,2297],[999,2396],[999,2495],[999,2590],[999,2691],[999,2788],[999,2891],[999,2995],[999,3096],[999,3189],[999,3297],[999,3389],[999,3489],[999,3588],[999,3689],[999,3790],[999,3889],[999,3996],[999,4090],[999,4189],[999,4293],[999,4391],[999,4490],[999,4597],[999,4696],[999,4800],[999,4901],[67.4,5004],[66.1,5103],[66.3,5199],[66.5,5302],[66.8,5401],[66.8,5500],[66.8,5600],[66.8,5701],[66.8,5800],[66.8,5899],[67.6,6002],[68.1,6100],[68.1,6201],[68.5,6300],[68.9,6401],[69.2,6500],[69.3,6600],[69.3,6699],[69.3,6800],[69.3,6901],[69.3,7000],[69.3,7100],[69.3,7199],[69.3,7300],[69.3,7399],[69.3,7501],[69.3,7600],[69.3,7699],[69.3,7800],[69.3,7899],[69.3,8000],[69.3,8100],[69.3,8201],[69.3,8300],[69.3,8399],[69.3,8500],[69.3,8601],[69.3,8699],[69.3,8800],[69.3,8899],[69.3,9000],[69.3,9100],[69.3,9199],[69.3,9300],[69.3,9399],[69.3,9501],[69.3,9600],[69.3,9699],[69.3,9800],[69.3,9899],[69.3,10001],[69.3,10100],[69.3,10201],[69.3,10300],[69.3,10399],[69.3,10500],[69.3,10600],[69.3,10699],[69.3,10800],[69.3,10899],[69.3,11000],[69.3,11101],[69.3,11199],[69.3,11300],[69.3,11399],[69.3,11500],[69.3,11600],[69.3,11699],[69.3,11800],[73.8,11899],[76.1,12002],[77.5,12101],[78.2,12199],[78.3,12300],[78.3,12399],[78.3,12500],[78.3,12600],[78.3,12699],[78.3,12800],[78.3,12899],[78.3,13001],[78.3,13100],[78.3,13199],[78.3,13300],[78.3,13399],[78.3,13500],[78.3,13600],[78.3,13699],[78.3,13800],[78.3,13899],[78.3,14000],[78.3,14102],[78.3,14201],[78.3,14300],[78.3,14401],[78.3,14500],[78.3,14600],[78.3,14699],[78.3,14800],[78.3,14899],[78.3,15000],[78.3,15101],[78.3,15199],[78.3,15300],[78.3,15399],[78.3,15499],[78.3,15600],[78.3,15699],[78.3,15800],[78.3,15899],[78.3,16000],[78.3,16100],[78.3,16199],[78.3,16300],[78.3,16401],[78.3,16499],[78.3,16600],[78.3,16699],[78.3,16800],[78.3,16899],[78.3,17000],[78.3,17100],[78.3,17199],[78.3,17300],[78.3,17399],[78.3,17500],[78.3,17598],[78.3,17699],[78.3,17799],[78.3,17899],[78.3,18000],[78.3,18100],[78.3,18199],[78.3,18300],[78.3,18399],[78.6,18500],[82.4,18598],[83.3,18699],[84.3,18800],[84.3,18899],[84.3,19000],[84.3,19100],[84.3,19199],[84.3,19300],[84.3,19399],[84.3,19500],[84.3,19600],[84.3,19701],[84.3,19800],[84.3,19899],[84.3,20000],[84.3,20100],[84.3,20199],[84.3,20300],[84.3,20399],[84.3,20500],[84.3,20600],[84.3,20699],[84.3,20800],[84.3,20899],[84.3,21000],[84.3,21100],[84.3,21199],[84.3,21300],[84.3,21399],[84.3,21500],[84.3,21600],[84.3,21701],[84.3,21800],[84.3,21899],[84.3,21999],[84.3,22100],[84.3,22199],[84.3,22300],[84.3,22399],[84.3,22500],[84.3,22600],[84.3,22699],[84.3,22800],[84.3,22899],[84.3,23000],[84.3,23100],[84.3,23199],[84.3,23300],[84.3,23399],[84.3,23500],[84.3,23600],[84.3,23699],[84.3,23800],[84.3,23899],[84.3,23999],[84.3,24100],[84.3,24199],[84.3,24300],[84.3,24399],[84.3,24500],[84.3,24600],[84.3,24699],[87.6,24800],[88.8,24901],[89.3,25000],[89.9,25100],[89.9,25199],[89.9,25300],[89.9,25399],[89.9,25500],[89.9,25600],[89.9,25699],[89.9,25800],[89.9,25899],[89.9,25999],[89.9,26100],[89.9,26199],[89.9,26300],[89.9,26399],[89.9,26500],[89.9,26600],[89.9,26699],[89.9,26800],[89.9,26899],[89.9,27000],[89.9,27101],[89.9,27199],[89.9,27299],[89.9,27399],[89.9,27500],[89.9,27600],[89.9,27699],[89.9,27800],[89.9,27899],[89.9,28000],[89.9,28098],[89.9,28199],[89.9,28300],[89.9,28399],[89.9,28500],[89.9,28600],[89.9,28699],[89.9,28800],[89.9,28899],[89.9,29000],[89.9,29100],[89.9,29199],[89.9,29299],[89.9,29399],[89.9,29499],[89.9,29600],[89.9,29699],[89.9,29800],[89.9,29899],[89.9,30000],[89.9,30100],[89.9,30199],[89.9,30300],[89.9,30399],[89.9,30500],[89.9,30600],[89.9,30699],[89.9,30800],[89.9,30899],[89.9,31000],[89.9,31100],[89.9,31199],[89.9,31300],[89.9,31399],[89.9,31500],[89.9,31600],[89.9,31699],[89.9,31800],[89.9,31899],[89.9,31999],[89.9,32100],[89.9,32199],[89.9,32300],[89.9,32399],[89.9,32500],[89.9,32598],[89.9,32699],[89.9,32799],[89.9,32899],[89.9,33000],[89.9,33098],[89.9,33201],[89.9,33300],[90,33401],[90.6,33499],[91.4,33601],[92.4,33699],[92.4,33800],[92.4,33899],[92.4,34000],[92.4,34100],[92.4,34199],[92.4,34300],[92.4,34399],[92.4,34500],[92.4,34600],[92.4,34699],[92.4,34800],[92.4,34899],[92.4,35000],[92.4,35098],[92.4,35199],[92.4,35300],[92.4,35399],[92.4,35500],[92.4,35600],[92.4,35699],[92.4,35800],[92.4,35899],[92.4,36000],[92.4,36100],[92.4,36199],[92.4,36300],[92.4,36399],[92.4,36500],[92.4,36598],[92.4,36699],[92.4,36800],[92.4,36899],[92.4,36999],[92.4,37100],[92.4,37199],[92.4,37300],[92.4,37399],[92.4,37500],[92.4,37600],[92.4,37699],[92.4,37800],[92.4,37899],[92.4,37999],[92.4,38098],[92.4,38199],[92.4,38300],[92.4,38401],[92.4,38500],[92.4,38600],[92.4,38699],[92.4,38800],[92.4,38899],[92.4,38999],[92.4,39100],[92.4,39199],[92.4,39300],[92.4,39399],[92.4,39500],[92.4,39600],[92.4,39699],[92.4,39800],[92.4,39899],[92.4,40000],[92.4,40098],[92.4,40199],[92.4,40299],[92.4,40399],[92.4,40500],[92.4,40600],[92.4,40699],[92.4,40800],[92.4,40899],[92.4,41000],[93.8,41100],[94.6,41199],[95.1,41300],[95.6,41399],[95.6,41499],[95.6,41600],[95.6,41699],[95.6,41800],[95.6,41899],[95.6,42000],[95.6,42100],[95.6,42199],[95.6,42299],[95.6,42399],[95.6,42500],[95.6,42600],[95.6,42699],[95.6,42800],[95.6,42899],[95.6,43000],[95.6,43100],[95.6,43199],[95.6,43300],[95.6,43399],[95.6,43500],[95.6,43598],[95.6,43699],[95.6,43800],[95.6,43899],[95.6,44000],[95.6,44100],[95.6,44199],[95.6,44299],[95.6,44399],[95.6,44499],[95.6,44600],[95.6,44699],[95.6,44800],[95.6,44899],[95.6,45000],[95.6,45100],[95.6,45199],[95.6,45300],[95.6,45399],[95.6,45500],[95.6,45598],[95.6,45699],[95.6,45800],[95.6,45899],[95.6,46000],[95.6,46100],[95.6,46199],[95.6,46300],[95.6,46399],[95.6,46499],[95.6,46600],[95.6,46699],[95.6,46800],[95.6,46899],[95.6,47000],[95.6,47100],[95.6,47199],[95.6,47300],[95.6,47399],[95.6,47500],[95.6,47598],[95.6,47699],[95.6,47800],[95.6,47899],[95.6,48000],[95.6,48100],[95.6,48199],[95.6,48300],[95.6,48399],[95.6,48499],[95.6,48598],[95.6,48699],[95.6,48800],[95.6,48899],[95.6,48999],[92.9,49100],[88.3,49199],[86.8,49302],[86.8,49399],[86.8,49499],[86.9,49598],[86.9,49699],[86.9,49799],[86.9,49899],[86.9,49999],[86.9,50100],[86.9,50199],[86.9,50300],[86.9,50399],[86.9,50499],[86.9,50600],[86.9,50699],[86.9,50800],[86.9,50899],[86.9,51000],[86.9,51098],[86.9,51199],[86.9,51300],[86.9,51399],[86.9,51499],[86.9,51600],[86.9,51699],[86.9,51800],[86.9,51899],[86.9,51999],[86.9,52100],[86.9,52199],[86.9,52300],[86.9,52399],[86.9,52500],[86.9,52600],[86.9,52699],[86.9,52800],[86.9,52899],[86.9,52999],[86.9,53098],[86.9,53199],[86.9,53300],[86.9,53399],[86.9,53499],[86.9,53600],[86.9,53699],[86.9,53800],[86.9,53899],[86.9,53999],[86.9,54100],[86.9,54199],[86.9,54300],[86.9,54399],[86.9,54500],[86.9,54598],[86.9,54699],[86.9,54800],[86.9,54899],[86.9,55000],[86.9,55098],[86.9,55199],[86.9,55299],[86.9,55399],[86.9,55500],[86.9,55600],[86.9,55699],[86.9,55799]]",1,0,398.721,404.703,89.02777778,3.298,"[{""rating"":89.02777777777777,""responseTime"":3.298000000000002}]",space,5.437,,404.704,Not at all,0,404.717,,,[],,0,1,1,1,1,audio/Narrative7Situation1.wav,audio/Narrative8Situation1.wav,audio/Narrative5Situation1.wav,audio/Narrative6Situation1.wav,2,5,5,2,3.843,,,,,,,,,,,,,,,,,,,,,,,,,,,,,,,,,,,,,,
,,,,,,663a5d5b61177a372e6f7452,2024-05-13_08h27.08.127,group3.1-3.2-social-tom,2023.2.2,MacIntel,76.92307692,65c5074098b851296ff0b7ed,664230fd91c9f13387da9f31,,,,,,,,,,,,,,,,,,,,,,,,,,,,,404.718,1,audio/Narrative7Situation2.wav,407.72,,407.721,415.204,"[[999,0],[999,105],[999,206],[999,300],[999,387],[999,497],[999,593],[999,689],[999,788],[999,891],[999,994],[999,1081],[999,1182],[999,1281],[999,1382],[999,1482],[999,1581],[999,1682],[999,1781],[999,1882],[999,1982],[999,2081],[999,2182],[999,2281],[999,2382],[999,2482],[999,2583],[999,2682],[999,2781],[999,2882],[999,2982],[999,3081],[999,3182],[999,3281],[999,3382],[999,3482],[999,3581],[999,3682],[999,3781],[999,3882],[999,3982],[999,4083],[999,4182],[999,4281],[999,4382],[999,4482],[999,4581],[999,4682],[999,4781],[999,4882],[999,4982],[999,5081],[999,5182],[999,5281],[999,5382],[999,5482],[999,5581],[999,5682],[999,5781],[999,5882],[999,5982],[999,6083],[999,6182],[999,6283],[999,6382],[999,6483],[999,6581],[999,6682],[999,6783],[999,6882],[999,6982],[999,7081],[999,7182],[999,7281],[999,7394]]",1,0,415.204,424.503,41.38888889,8.197,"[{""rating"":41.388888888888886,""responseTime"":8.197000000000003}]",space,8.752,,424.503,All the time,100,424.518,,,[],,0,2,2,2,1,audio/Narrative7Situation2.wav,audio/Narrative8Situation2.wav,audio/Narrative5Situation2.wav,audio/Narrative6Situation2.wav,3,3,3,3,,,,,,,,,,,,,,,,,,,,,,,,,,,,,,,,,,,,,,,
,,,,,,663a5d5b61177a372e6f7452,2024-05-13_08h27.08.127,group3.1-3.2-social-tom,2023.2.2,MacIntel,76.92307692,65c5074098b851296ff0b7ed,664230fd91c9f13387da9f31,,,,,,,,,,,,,,,,,,,,,,,,,,,,,424.518,1,audio/Narrative7Situation3.wav,432.519,,432.519,441.787,"[[999,0],[999,113],[999,217],[999,317],[999,399],[999,500],[999,600],[999,701],[999,800],[999,906],[999,1000],[999,1100],[999,1199],[999,1300],[999,1399],[999,1500],[999,1600],[999,1701],[999,1800],[999,1932],[999,2028],[999,2129],[999,2223],[999,2329],[999,2430],[999,2524],[999,2632],[999,2728],[999,2822],[999,2920],[999,3031],[999,3129],[999,3237],[999,3343],[999,3451],[60.6,3569],[60.6,3697],[60.6,3797],[60.6,3896],[60.6,3992],[60.6,4088],[60.6,4192],[60.6,4295],[60.6,4396],[60.6,4495],[60.6,4586],[60.6,4684],[60.6,4783],[60.6,4884],[60.6,4983],[60.6,5083],[60.6,5182],[60.6,5283],[60.6,5384],[60.6,5483],[60.6,5583],[60.6,5682],[60.6,5783],[60.6,5882],[60.6,5983],[60.6,6083],[60.6,6184],[60.6,6283],[60.6,6384],[60.6,6483],[60.6,6584],[60.6,6684],[60.6,6783],[60.6,6882],[60.6,6983],[60.6,7083],[60.6,7182],[60.6,7283],[60.6,7382],[60.6,7483],[60.6,7584],[60.6,7682],[60.6,7783],[60.6,7882],[60.6,7983],[60.6,8083],[60.6,8182],[60.6,8283],[60.6,8384],[60.6,8483],[60.6,8584],[60.6,8684],[60.6,8783],[60.6,8884],[61.4,9024],[67.2,9120],[67.2,9216]]",1,0,441.787,444.586,58.47222222,1.949,"[{""rating"":58.47222222222223,""responseTime"":1.9490000000000123}]",space,2.251,,444.586,Half the time,50,444.601,,,[],,0,3,3,3,1,audio/Narrative7Situation3.wav,audio/Narrative8Situation3.wav,audio/Narrative5Situation3.wav,audio/Narrative6Situation3.wav,8,4,3,5,,,,,,,,,,,,,,,,,,,,,,,,,,,,,,,,,,,,,,,
,,,,,,663a5d5b61177a372e6f7452,2024-05-13_08h27.08.127,group3.1-3.2-social-tom,2023.2.2,MacIntel,76.92307692,65c5074098b851296ff0b7ed,664230fd91c9f13387da9f31,,,,,,,,,,,,,,,,,,,,,,,,,,,,,444.602,1,audio/Narrative7Situation4.wav,447.603,,447.603,459.336,"[[999,0],[999,100],[999,199],[999,298],[999,391],[999,492],[999,596],[999,690],[999,790],[999,894],[999,996],[999,1086],[999,1199],[999,1295],[999,1382],[999,1483],[999,1582],[999,1683],[999,1783],[999,1882],[999,1981],[999,2082],[999,2182],[999,2283],[999,2382],[999,2483],[999,2581],[999,2682],[999,2783],[999,2882],[999,2983],[999,3081],[999,3182],[999,3281],[999,3382],[999,3483],[999,3582],[999,3682],[999,3783],[999,3882],[999,3983],[999,4082],[999,4182],[999,4305],[44.9,4416],[44.4,4516],[44.2,4625],[44,4730],[44.2,4824],[44.2,4923],[44.2,5028],[44.2,5122],[44.2,5228],[44.2,5331],[44.2,5423],[44.2,5524],[44.2,5633],[44.2,5733],[44.2,5832],[49.6,5932],[52.9,6108],[56.3,6221],[57.4,6317],[58.2,6415],[58.5,6519],[58.5,6615],[58.5,6716],[58.5,6814],[58.5,6915],[58.5,7014],[58.5,7117],[58.5,7216],[58.5,7315],[58.5,7415],[58.5,7516],[58.5,7615],[59.7,7716],[64.9,7817],[68.3,7920],[69.7,8019],[69.9,8115],[70.6,8216],[71,8314],[71,8415],[71,8514],[71,8615],[71,8716],[71,8817],[71,8915],[71,9016],[71,9117],[71,9216],[71,9315],[71,9415],[71,9516],[71,9615],[71,9716],[71,9815],[71,9915],[71,10016],[71,10115],[71,10216],[71,10315],[71,10415],[71,10516],[71,10615],[71,10716],[71,10814],[71,10915],[71,11016],[71,11115],[71,11216],[71,11315],[71,11415],[71,11516],[71,11615],[71,11699]]",1,0,459.336,461.085,70.97222222,0.913,"[{""rating"":70.97222222222223,""responseTime"":0.9130000000000109}]",space,1.219,,461.085,Half the time,50,461.097,,,[],,0,4,4,4,1,audio/Narrative7Situation4.wav,audio/Narrative8Situation4.wav,audio/Narrative5Situation4.wav,audio/Narrative6Situation4.wav,3,3,1,2,,,,,,,,,,,,,,,,,,,,,,,,,,,,,,,,,,,,,,,
,,,,,,663a5d5b61177a372e6f7452,2024-05-13_08h27.08.127,group3.1-3.2-social-tom,2023.2.2,MacIntel,76.92307692,65c5074098b851296ff0b7ed,664230fd91c9f13387da9f31,,,,,,,,,,,,,,,,,,,,,,,,,,,,,461.098,1,audio/Narrative7Situation5.wav,466.102,,466.102,474.592,"[[999,0],[999,110],[999,209],[999,303],[999,411],[999,512],[999,606],[999,713],[999,799],[999,916],[999,1015],[999,1116],[999,1216],[999,1315],[999,1416],[999,1515],[999,1616],[999,1716],[999,1815],[999,1916],[999,2016],[999,2116],[999,2216],[999,2317],[999,2416],[999,2515],[999,2616],[999,2716],[999,2815],[999,2916],[999,3016],[999,3117],[999,3216],[999,3319],[38.1,3418],[37.9,3516],[37.9,3616],[37.9,3716],[37.9,3817],[37.9,3915],[37.9,4016],[37.9,4116],[37.9,4216],[37.9,4317],[37.9,4416],[37.9,4515],[37.9,4615],[37.9,4716],[34.6,4817],[32.5,4918],[32.4,5019],[32.4,5201],[32.4,5299],[32.4,5399],[32.4,5500],[32.4,5600],[32.4,5701],[32.4,5799],[32.4,5899],[32.4,6000],[32.4,6100],[32.4,6201],[32.4,6299],[32.4,6399],[32.4,6500],[32.4,6600],[32.4,6699],[32.4,6799],[32.5,6901],[34.6,7000],[47.9,7102],[54.4,7201],[60.4,7303],[63.9,7403],[67.1,7519],[67.2,7616],[67.2,7716],[67.2,7817],[67.2,7916],[67.2,8016],[67.2,8115],[67.2,8216],[67.2,8317],[67.2,8413]]",1,0,474.593,477.779,58.33333333,2.074,"[{""rating"":58.333333333333336,""responseTime"":2.0739999999999554}]",space,2.613,,477.779,All the time,100,477.796,,,[],,0,5,5,5,1,audio/Narrative7Situation5.wav,audio/Narrative8Situation5.wav,audio/Narrative5Situation5.wav,audio/Narrative6Situation5.wav,5,2,5,2,,,,,,,,,,,,,,,,,,,,,,,,,,,,,,,,,,,,,,,
,,,,,,663a5d5b61177a372e6f7452,2024-05-13_08h27.08.127,group3.1-3.2-social-tom,2023.2.2,MacIntel,76.92307692,65c5074098b851296ff0b7ed,664230fd91c9f13387da9f31,,,,,,,,,,,,,,,,,,,,,,,,,,,,,477.796,1,audio/Narrative7Situation6.wav,480.802,,480.802,490.78,"[[999,0],[999,112],[999,216],[999,316],[999,415],[999,508],[999,613],[999,711],[999,816],[999,937],[999,1033],[999,1133],[999,1233],[999,1333],[999,1432],[999,1533],[999,1634],[999,1734],[999,1834],[999,1934],[999,2033],[999,2134],[999,2233],[999,2333],[999,2434],[999,2533],[999,2634],[999,2733],[35.1,2836],[34.7,2932],[34.7,3033],[34.7,3134],[34.7,3233],[35.8,3334],[50.7,3432],[54.3,3533],[59.3,3633],[61,3735],[62.5,3833],[63.5,3932],[64,4033],[64,4134],[64,4234],[64,4333],[64,4434],[64,4533],[64.2,4634],[64.2,4733],[64.2,4834],[64.2,4932],[64.3,5033],[64.4,5134],[66.4,5235],[67.6,5347],[69.7,5445],[71.4,5541],[71.4,5633],[71.4,5734],[71.4,5833],[71.4,5934],[71.4,6033],[71.4,6134],[71.4,6234],[71.4,6334],[71.4,6434],[71.4,6533],[71.4,6634],[71.4,6734],[74.4,6839],[74.7,6935],[75.7,7048],[76.4,7150],[76.5,7246],[76.5,7346],[76.5,7450],[76.5,7550],[76.5,7650],[76.5,7750],[76.5,7850],[76.5,7949],[76.5,8049],[76.5,8149],[76.5,8250],[76.5,8350],[76.5,8449],[76.5,8549],[76.5,8650],[76.5,8750],[76.5,8850],[76.5,8950],[76.5,9050],[76.5,9149],[76.5,9249],[76.5,9350],[76.5,9449],[76.5,9549],[76.5,9649],[76.5,9750],[76.5,9850],[76.5,9941]]",1,0,490.78,493.035,66.38888889,1.357,"[{""rating"":66.38888888888889,""responseTime"":1.356999999999971}]",space,1.717,,493.035,Half the time,50,493.049,,,[],,0,6,6,6,1,audio/Narrative7Situation6.wav,audio/Narrative8Situation6.wav,audio/Narrative5Situation6.wav,audio/Narrative6Situation6.wav,3,2,3,2,,,,,,,,,,,,,,,,,,,,,,,,,,,,,,,,,,,,,,,
,,,,,,663a5d5b61177a372e6f7452,2024-05-13_08h27.08.127,group3.1-3.2-social-tom,2023.2.2,MacIntel,76.92307692,65c5074098b851296ff0b7ed,664230fd91c9f13387da9f31,,,,,,,,,,,,,,,,,,,,,,,,,,,,,493.05,1,audio/Narrative7Situation7.wav,498.053,,498.053,515.247,"[[999,0],[999,115],[999,214],[999,315],[999,399],[999,497],[999,598],[999,697],[999,798],[999,899],[999,997],[999,1097],[999,1198],[999,1298],[999,1399],[999,1498],[999,1598],[999,1697],[999,1798],[999,1897],[999,1998],[999,2098],[999,2198],[999,2298],[999,2399],[999,2498],[999,2603],[999,2698],[999,2800],[999,2899],[999,2997],[999,3098],[999,3198],[999,3298],[999,3399],[999,3500],[999,3597],[999,3701],[999,3798],[999,3899],[999,3997],[999,4097],[999,4198],[999,4298],[999,4399],[999,4498],[999,4598],[999,4697],[999,4798],[999,4897],[45.8,5000],[38.1,5098],[36.5,5198],[36.5,5298],[36.5,5399],[36.5,5498],[36.5,5597],[36.5,5698],[36.5,5798],[36.5,5897],[36.5,5998],[36.5,6097],[36.5,6197],[36.5,6298],[36.5,6399],[36.5,6498],[36.5,6598],[36.5,6697],[36.5,6798],[36.5,6897],[36.5,6997],[36.5,7097],[36.5,7198],[36.5,7298],[36.5,7399],[36.5,7498],[36.5,7599],[36.5,7698],[36.5,7798],[36.5,7899],[36.5,7998],[36.5,8098],[36.5,8197],[36.5,8298],[36.5,8399],[36.5,8498],[36.5,8598],[36.5,8698],[36.5,8798],[36.5,8899],[36.5,8998],[36.5,9098],[36.5,9197],[36.5,9298],[36.5,9400],[36.5,9498],[36.5,9598],[36.7,9698],[54.2,9798],[58.1,9900],[58.1,9997],[58.1,10097],[60.3,10212],[61.9,10307],[64.9,10418],[65,10514],[65,10615],[65,10716],[65,10815],[65,10915],[65,11014],[65,11115],[65,11214],[65,11315],[65,11414],[65,11515],[65,11614],[65,11714],[65,11815],[65,11914],[65,12015],[65,12114],[65,12216],[65,12314],[65,12415],[65,12514],[65,12615],[65,12716],[65,12814],[65,12915],[65,13014],[65,13114],[65,13214],[65,13315],[65,13414],[65,13515],[65,13615],[65,13716],[65,13814],[65,13914],[65,14014],[65,14114],[65,14216],[65,14314],[65,14414],[65.1,14516],[65.8,14614],[66.3,14716],[66.8,14815],[67.9,14914],[69,15015],[69.9,15114],[70.3,15216],[70.4,15326],[70.4,15414],[70.4,15515],[70.4,15614],[70.4,15716],[70.4,15814],[70.4,15915],[70.4,16014],[70.4,16114],[70.4,16214],[70.4,16314],[70.4,16415],[70.4,16514],[70.4,16614],[70.4,16714],[70.4,16814],[70.4,16914],[70.4,17015],[70.4,17110]]",1,0,515.247,517.769,54.02777778,1.902,"[{""rating"":54.02777777777777,""responseTime"":1.9020000000000437}]",space,1.984,,517.769,All the time,100,517.784,,,[],,0,7,7,7,1,audio/Narrative7Situation7.wav,audio/Narrative8Situation7.wav,audio/Narrative5Situation7.wav,audio/Narrative6Situation7.wav,5,3,4,5,,,,,,,,,,,,,,,,,,,,,,,,,,,,,,,,,,,,,,,
,,,,,,663a5d5b61177a372e6f7452,2024-05-13_08h27.08.127,group3.1-3.2-social-tom,2023.2.2,MacIntel,76.92307692,65c5074098b851296ff0b7ed,664230fd91c9f13387da9f31,,,,,,,,,,,,,,,,,,,,,,,,,,,,,517.785,1,audio/Narrative7Situation8.wav,519.785,,519.785,529.802,"[[54.4,2213],[49.7,4015],[51.8,4115],[53.6,4216],[50.1,4316],[40.7,4417],[39.7,4515],[39.7,4616],[39.6,4716],[39.6,4816],[39.6,4915],[39.6,5016],[39.6,5115],[39.6,5216],[39.6,5316],[43.8,5415],[58.6,5518],[59.6,5616],[65.1,5717],[67.2,5816],[67.2,5917],[67.2,6015],[67.2,6115],[67.2,6216],[67.2,6317],[67.2,6415],[67.4,6515],[67.9,6616],[68.6,6716],[69.3,6817],[70.4,6915],[70.6,7016],[70.7,7115],[71,7227],[71.8,7318],[72.2,7415],[72.6,7515],[72.8,7615],[72.8,7716],[72.9,7817],[72.9,7917],[72.9,8016],[72.9,8115],[72.9,8216],[72.9,8317],[72.9,8417],[72.9,8516],[72.9,8615],[72.9,8716],[72.9,8817],[72.9,8915],[72.9,9015],[72.9,9120],[72.9,9216],[72.9,9316],[72.9,9417],[72.9,9516],[72.9,9615],[72.9,9716],[72.9,9817],[72.9,9917],[72.9,10000]]",1,0,529.802,531.602,63.19444444,1.196,"[{""rating"":63.19444444444444,""responseTime"":1.1960000000000264}]",space,1.268,,531.602,All the time,100,531.612,,,[],,0,8,8,8,1,audio/Narrative7Situation8.wav,audio/Narrative8Situation8.wav,audio/Narrative5Situation8.wav,audio/Narrative6Situation8.wav,2,3,3,5,,,,,,,,,,,,,,,,,,,,,,,,,,,,,,,,,,,,,,,
,,,,,,663a5d5b61177a372e6f7452,2024-05-13_08h27.08.127,group3.1-3.2-social-tom,2023.2.2,MacIntel,76.92307692,65c5074098b851296ff0b7ed,664230fd91c9f13387da9f31,,,,,,,,,,,,,,,,,,,,,,,,,,,,,531.613,1,audio/Narrative7Situation9.wav,533.618,,533.618,542.263,"[[57.2,3416],[58.8,3517],[62.1,3615],[63.2,3716],[63.2,3816],[63.2,3916],[63.2,4015],[69.2,4115],[70.6,4216],[70.6,4316],[72.4,4417],[76.3,4519],[76.4,4616],[76.7,4716],[77.4,4816],[77.4,4917],[77.2,5018],[77.2,5115],[77.1,5216],[77.1,5316],[77.1,5416],[77.1,5517],[77.1,5615],[77.1,5716],[77.1,5817],[77.1,5916],[77.1,6017],[77.1,6116],[77.1,6216],[77.1,6317],[76.9,6417],[76.8,6517],[76.5,6616],[76.3,6716],[76,6817],[76,6917],[76,7017],[76,7115],[76,7216],[76,7316],[76,7417],[76,7515],[76,7615],[76,7716],[76.3,7816],[76.4,7917],[76.4,8018],[76.5,8115],[76.8,8216],[76.9,8316],[77.1,8416],[77.1,8517],[77.1,8605]]",1,0,542.263,544.484,73.19444444,1.354,"[{""rating"":73.19444444444446,""responseTime"":1.3540000000000418}]",space,1.693,,544.484,Half the time,50,560.251,49.58333333,11.948,"[{""rating"":49.583333333333336,""responseTime"":11.947999999999979}]",space,0,9,9,9,1,audio/Narrative7Situation9.wav,audio/Narrative8Situation9.wav,audio/Narrative5Situation9.wav,audio/Narrative6Situation9.wav,2,3,3,4,,,15.235,,,,,,,,,,,,,,,,,,,,,,,,,,,,,,,,,,,,
,,,,,,663a5d5b61177a372e6f7452,2024-05-13_08h27.08.127,group3.1-3.2-social-tom,2023.2.2,MacIntel,76.92307692,65c5074098b851296ff0b7ed,664230fd91c9f13387da9f31,,,,,,,,,,,,,,,,,,,,,,,,,,,,,560.251,1,audio/Narrative8Situation1.wav,565.251,,565.251,581.185,"[[49.7,11366],[49.7,11471],[49.7,11568],[49.7,11667],[49.7,11766],[49.7,11877],[51.8,11966],[55.7,12065],[56.1,12165],[56.9,12266],[57.9,12365],[58.1,12466],[58.1,12565],[58.1,12665],[58.1,12765],[58.1,12865],[57.9,12968],[57.5,13067],[57.1,13167],[57.1,13266],[57.1,13365],[57.1,13466],[57.1,13565],[57.1,13665],[57.1,13765],[57.1,13865],[57.1,13966],[60.7,14065],[71.9,14168],[72.8,14266],[72.8,14365],[72.8,14466],[72.5,14567],[70.4,14667],[69.2,14765],[69.2,14867],[69.2,14966],[69.2,15065],[69,15165],[68.8,15266],[68.2,15365],[62.2,15468],[57.6,15565],[57.5,15665],[57.5,15765],[57.5,15865]]",1,0,581.185,584.035,63.33333333,1.329,"[{""rating"":63.33333333333333,""responseTime"":1.3289999999999509}]",space,2.318,,584.035,Not at all,0,584.052,,,[],,0,10,10,10,1,audio/Narrative8Situation1.wav,audio/Narrative7Situation1.wav,audio/Narrative6Situation1.wav,audio/Narrative5Situation1.wav,5,2,2,5,,,,,,,,,,,,,,,,,,,,,,,,,,,,,,,,,,,,,,,
,,,,,,663a5d5b61177a372e6f7452,2024-05-13_08h27.08.127,group3.1-3.2-social-tom,2023.2.2,MacIntel,76.92307692,65c5074098b851296ff0b7ed,664230fd91c9f13387da9f31,,,,,,,,,,,,,,,,,,,,,,,,,,,,,584.052,1,audio/Narrative8Situation2.wav,587.068,,587.068,597.192,"[[60.3,3014],[59.3,3116],[58.5,3216],[58.3,3315],[58.3,3414],[58.3,3533],[56.7,3634],[51.8,3735],[51.7,3831],[51.7,3932],[51.4,4031],[50.1,4149],[50,4250],[50,4350],[50,4449],[50,4548],[50,4649],[50,4749],[50,4848],[50,4948],[50,5049],[49.9,5173],[46.1,5269],[44.6,5365],[44.4,5466],[44.4,5565],[44.4,5665],[44.4,5765],[44.4,5865],[44.4,5964],[44.4,6064],[44.4,6164],[44.4,6265],[44.4,6368],[44.4,6466],[44.4,6565],[44.4,6665],[44.6,6765],[44.6,6865],[44.6,6966],[44.6,7065],[44.6,7165],[44.6,7264],[44.6,7365],[44.6,7466],[44.2,7564],[44,7665],[44,7765],[44,7865],[44,7966],[44,8064],[44,8164],[44,8264],[44,8365],[44.9,8464],[63.2,8567],[66.7,8665],[68.3,8766],[74,8865],[74.6,8966],[74.7,9065],[74.7,9165],[74.9,9265],[74.9,9365],[74.9,9466],[74.9,9565],[74.9,9665],[74.9,9764],[74.9,9865],[74.9,9966],[74.9,10055]]",1,0,597.193,599.668,75,1.656,"[{""rating"":75,""responseTime"":1.655999999999949}]",space,1.943,,599.668,Not at all,0,599.678,,,[],,0,11,11,11,1,audio/Narrative8Situation2.wav,audio/Narrative7Situation2.wav,audio/Narrative6Situation2.wav,audio/Narrative5Situation2.wav,3,3,3,3,,,,,,,,,,,,,,,,,,,,,,,,,,,,,,,,,,,,,,,
,,,,,,663a5d5b61177a372e6f7452,2024-05-13_08h27.08.127,group3.1-3.2-social-tom,2023.2.2,MacIntel,76.92307692,65c5074098b851296ff0b7ed,664230fd91c9f13387da9f31,,,,,,,,,,,,,,,,,,,,,,,,,,,,,599.678,1,audio/Narrative8Situation3.wav,603.684,,603.684,626.077,"[[74.4,1917],[74.9,2015],[75.3,2115],[75,2216],[74.6,2316],[74.4,2415],[74.4,2515],[74.4,2615],[74.4,2716],[74.4,2816],[74.4,2917],[74.4,3016],[74.4,3116],[74.9,3216],[76.1,3317],[76.1,3415],[76.3,3515],[76.4,3615],[76.4,3716],[76.5,3816],[76.5,3915],[76.5,4016],[76.5,4116],[76.5,4216],[76.5,4316],[76.5,4415],[76.5,4515],[76.5,4616],[76.5,4716],[76.5,4816],[76.5,4915],[76.5,5016],[76.5,5115],[76.5,5216],[76.5,5317],[76.5,5417],[76.5,5515],[76.5,5615],[76.5,5716],[76.5,5817],[76.4,5915],[76.4,6016],[76.3,6115],[76.1,6216],[76,6316],[75.7,6415],[75.4,6515],[74.9,6617],[74.7,6716],[74.7,6816],[74.7,6915],[74.7,7015],[74.7,7116],[74.9,7216],[74.9,7316],[74.9,7415],[74.9,7516],[74.9,7616],[74.9,7716],[74.9,7816],[74.9,7915],[74.9,8016],[74.9,8115],[74.9,8216],[74.9,8316],[74.9,8417],[74.9,8515],[74.9,8615],[74.9,8716],[74.9,8816],[74.9,8915],[74.9,9015],[74.9,9115],[74.9,9216],[74.9,9317],[74.9,9417],[74.9,9515],[74.9,9615],[74.9,9716],[74.9,9816],[74.7,9915],[74.7,10015],[74.7,10115],[74.7,10216],[74.7,10316],[74.7,10417],[74.7,10516],[74.7,10616],[74.7,10716],[74.7,10816],[74.7,10915],[74.7,11015],[74.7,11115],[74.7,11216],[74.7,11316],[74.7,11415],[74.7,11516],[74.7,11615],[74.7,11716],[74.4,11816],[72.8,11917],[72.5,12015],[70.6,12116],[67.1,12216],[66.9,12316],[66.9,12414],[66.9,12515],[66.8,12615],[66.5,12716],[65.6,12816],[65.4,12917],[65.4,13015],[65.4,13115],[65.7,13216],[65.7,13316],[65.7,13415],[65.7,13515],[65.7,13615],[65.7,13716],[65.7,13817],[65.7,13915],[65.7,14015],[65.7,14115],[65.7,14216],[65.7,14316],[65.7,14415],[65.7,14514],[65.7,14615],[65.7,14716],[65.7,14814],[65.7,14915],[65.7,15014],[65.7,15116],[65.7,15216],[65.7,15316],[65.7,15415],[65.7,15515],[65.7,15615],[65.7,15716],[65.7,15817],[65.7,15915],[65.7,16015],[65.7,16115],[65.7,16216],[65.7,16316],[65.7,16415],[65.7,16515],[65.7,16615],[65.6,16716],[65.4,16816],[65.4,16923],[65.4,17015],[65.4,17115],[65.4,17216],[65.6,17317],[69,17417],[73.2,17524],[74.6,17634],[76.4,17752],[76.8,17850],[76.8,17948],[76.8,18049],[76.8,18234],[76.8,18332],[76.8,18432],[76.8,18533],[76.8,18633],[76.8,18732],[76.8,18831],[76.8,18932],[76.8,19033],[76.8,19133],[76.8,19232],[76.8,19332],[76.8,19432],[76.8,19533],[76.8,19633],[76.8,19731],[76.8,19831],[76.8,19932],[76.8,20033],[76.8,20131],[76.8,20234],[76.7,20332],[76.7,20432],[76.7,20533],[76.7,20633],[76.7,20732],[76.7,20832],[76.7,20932],[76.7,21033],[76.7,21133],[76.7,21232],[76.7,21332],[76.7,21432],[76.7,21533],[76.7,21633],[76.7,21731],[76.7,21832],[76.7,21932],[76.7,22033],[76.7,22131],[76.7,22232],[76.7,22327]]",1,0,626.077,629.934,70,1.554,"[{""rating"":70,""responseTime"":1.5539999999999736}]",space,3.319,,629.934,Not at all,0,629.944,,,[],,0,12,12,12,1,audio/Narrative8Situation3.wav,audio/Narrative7Situation3.wav,audio/Narrative6Situation3.wav,audio/Narrative5Situation3.wav,4,8,5,3,,,,,,,,,,,,,,,,,,,,,,,,,,,,,,,,,,,,,,,
,,,,,,663a5d5b61177a372e6f7452,2024-05-13_08h27.08.127,group3.1-3.2-social-tom,2023.2.2,MacIntel,76.92307692,65c5074098b851296ff0b7ed,664230fd91c9f13387da9f31,,,,,,,,,,,,,,,,,,,,,,,,,,,,,629.945,1,audio/Narrative8Situation4.wav,632.951,,632.951,647.117,"[[60.1,4399],[62.1,4499],[62.5,4599],[62.4,4698],[54.7,4800],[53.5,4899],[53.5,4998],[53.5,5099],[53.5,5199],[53.5,5299],[52.5,5398],[48.9,5500],[47.5,5598],[41.3,5701],[48.3,6098],[49.6,6198],[49.7,6298],[49.9,6398],[49.9,6499],[49.9,6599],[49.9,6699],[49.9,6799],[49.9,6899],[49.9,6999],[49.9,7099],[49.9,7199],[49.9,7299],[49.9,7399],[49.9,7499],[49.9,7598],[49.9,7699],[49.9,7798],[49.9,7899],[49.9,7999],[51.7,8099],[61.7,8199],[66.5,8302],[71.3,8401],[72.2,8500],[72.2,8598],[72.2,8698],[72.2,8798],[72.2,8899],[72.2,8998],[72.2,9099],[72.2,9199],[72.2,9299],[72.2,9399],[72.2,9499],[72.2,9599],[72.2,9698],[72.2,9798],[72.2,9898],[72.2,9998],[72.2,10099],[72.2,10199],[72.2,10299],[72.2,10399],[72.2,10499],[72.2,10599],[72.2,10699],[72.2,10799],[72.2,10898],[72.2,10998],[72.2,11098],[72.2,11199],[72.2,11299],[72.2,11398],[72.2,11498],[72.2,11599],[72.2,11699],[72.2,11798],[72.2,11898],[72.2,11998],[72.2,12099],[72.2,12199],[72.2,12299],[72.2,12399],[72.2,12499],[72.2,12599],[72.2,12699],[72.2,12799],[72.2,12899],[72.2,12999],[72.2,13098],[72.2,13199],[72.2,13299],[72.2,13399],[72.2,13499],[72.2,13599],[72.2,13699],[72.2,13799],[72.2,13899],[72.2,13998],[72.2,14090]]",1,0,647.117,649.767,69.44444444,1.913,"[{""rating"":69.44444444444444,""responseTime"":1.913000000000011}]",space,2.117,,649.767,Not at all,0,649.777,,,[],,0,13,13,13,1,audio/Narrative8Situation4.wav,audio/Narrative7Situation4.wav,audio/Narrative6Situation4.wav,audio/Narrative5Situation4.wav,3,3,2,1,,,,,,,,,,,,,,,,,,,,,,,,,,,,,,,,,,,,,,,
,,,,,,663a5d5b61177a372e6f7452,2024-05-13_08h27.08.127,group3.1-3.2-social-tom,2023.2.2,MacIntel,76.92307692,65c5074098b851296ff0b7ed,664230fd91c9f13387da9f31,,,,,,,,,,,,,,,,,,,,,,,,,,,,,649.777,1,audio/Narrative8Situation5.wav,651.783,,651.784,660.046,"[[56.8,2714],[57.1,2815],[56.8,2914],[52.5,3014],[52.2,3115],[52.2,3216],[52.1,3314],[49.4,3414],[49.3,3514],[49.3,3615],[49.3,3716],[49.3,3814],[49.3,3915],[49.3,4015],[49.3,4115],[53.9,4214],[65.4,4317],[66.1,4415],[66.1,4515],[66.1,4615],[73.9,4714],[75.8,4831],[75.8,4932],[75.6,5033],[74.3,5131],[74.2,5232],[74.4,5331],[74.6,5432],[74.7,5533],[74.7,5631],[75.6,5732],[76.8,5832],[77.8,5932],[78.9,6031],[79,6131],[79,6231],[79,6332],[79,6432],[79,6531],[79,6631],[79,6731],[79,6831],[79,6932],[79,7031],[79,7131],[79,7232],[79,7332],[79,7432],[79,7531],[79,7632],[79,7732],[79,7832],[79,7932],[79,8031],[79,8132],[79,8223]]",1,0,660.046,664.483,77.91666667,2.27,"[{""rating"":77.91666666666667,""responseTime"":2.269999999999982}]",space,3.901,,664.483,All the time,100,664.497,,,[],,0,14,14,14,1,audio/Narrative8Situation5.wav,audio/Narrative7Situation5.wav,audio/Narrative6Situation5.wav,audio/Narrative5Situation5.wav,2,5,2,5,,,,,,,,,,,,,,,,,,,,,,,,,,,,,,,,,,,,,,,
,,,,,,663a5d5b61177a372e6f7452,2024-05-13_08h27.08.127,group3.1-3.2-social-tom,2023.2.2,MacIntel,76.92307692,65c5074098b851296ff0b7ed,664230fd91c9f13387da9f31,,,,,,,,,,,,,,,,,,,,,,,,,,,,,664.498,1,audio/Narrative8Situation6.wav,666.5,,666.5,672.997,"[[77.5,2399],[59.9,3798],[59.7,3899],[56.8,3998],[54.3,4098],[52.4,4200],[50.4,4298],[50,4399],[50,4500],[50,4599],[50,4698],[50,4799],[50,4899],[50,5000],[50,5099],[49.9,5198],[49,5299],[48.9,5399],[48.9,5500],[49.2,5600],[49.3,5698],[49.3,5798],[49.3,5899],[49.3,6000],[49.3,6104],[49.3,6199],[49.3,6298],[49.3,6395],[50.3,6495]]",1,0,672.997,678.1,50,4.303,"[{""rating"":50,""responseTime"":4.302999999999997}]",space,4.569,,678.1,Half the time,50,678.115,,,[],,0,15,15,15,1,audio/Narrative8Situation6.wav,audio/Narrative7Situation6.wav,audio/Narrative6Situation6.wav,audio/Narrative5Situation6.wav,2,3,2,3,,,,,,,,,,,,,,,,,,,,,,,,,,,,,,,,,,,,,,,
,,,,,,663a5d5b61177a372e6f7452,2024-05-13_08h27.08.127,group3.1-3.2-social-tom,2023.2.2,MacIntel,76.92307692,65c5074098b851296ff0b7ed,664230fd91c9f13387da9f31,,,,,,,,,,,,,,,,,,,,,,,,,,,,,678.116,1,audio/Narrative8Situation7.wav,681.117,,681.117,693.219,"[[999,0],[999,100],[999,198],[999,298],[999,389],[999,487],[999,591],[999,692],[999,794],[999,894],[999,995],[999,1086],[999,1197],[999,1294],[999,1389],[999,1494],[999,1588],[999,1691],[999,1782],[999,1883],[999,1981],[999,2081],[999,2182],[999,2283],[999,2383],[999,2481],[999,2581],[999,2682],[999,2782],[999,2883],[999,2981],[999,3081],[999,3182],[999,3282],[999,3383],[999,3482],[999,3582],[999,3682],[999,3782],[999,3881],[999,3981],[999,4081],[999,4182],[999,4283],[999,4381],[999,4482],[999,4581],[999,4682],[999,4783],[999,4881],[999,4981],[999,5081],[999,5182],[999,5282],[999,5381],[999,5482],[999,5581],[999,5682],[999,5783],[999,5881],[37.5,5981],[36.9,6081],[36.9,6182],[36.9,6283],[36.9,6381],[36.9,6482],[36.9,6581],[36.9,6681],[36.4,6782],[35.6,6883],[35.6,6981],[35.6,7081],[35.6,7182],[35.6,7282],[35.6,7381],[35.6,7481],[35.6,7581],[35.6,7682],[35.4,7784],[35.3,7881],[35.3,7981],[35.3,8081],[35.3,8182],[35.3,8282],[35.1,8381],[35,8481],[35,8581],[35,8682],[35,8782],[34.9,8881],[34.9,8984],[34.9,9081],[34.9,9182],[34.9,9283],[34.9,9383],[34.9,9481],[34.9,9581],[34.9,9682],[34.9,9783],[34.9,9883],[34.9,9980],[34.9,10081],[35.1,10182],[51.8,10282],[71,10381]]",1,0,693.219,699.283,63.88888889,2.696,"[{""rating"":63.888888888888886,""responseTime"":2.6960000000000264}]",space,5.517,,699.283,Half the time,50,699.293,,,[],,0,16,16,16,1,audio/Narrative8Situation7.wav,audio/Narrative7Situation7.wav,audio/Narrative6Situation7.wav,audio/Narrative5Situation7.wav,3,5,5,4,,,,,,,,,,,,,,,,,,,,,,,,,,,,,,,,,,,,,,,
,,,,,,663a5d5b61177a372e6f7452,2024-05-13_08h27.08.127,group3.1-3.2-social-tom,2023.2.2,MacIntel,76.92307692,65c5074098b851296ff0b7ed,664230fd91c9f13387da9f31,,,,,,,,,,,,,,,,,,,,,,,,,,,,,699.293,1,audio/Narrative8Situation8.wav,702.299,,702.299,715.166,"[[999,0],[999,100],[999,199],[999,302],[999,386],[999,488],[999,589],[999,689],[999,790],[999,899],[999,999],[999,1105],[999,1203],[999,1299],[999,1399],[999,1500],[999,1600],[999,1699],[999,1798],[999,1899],[999,1999],[999,2098],[999,2199],[999,2299],[999,2399],[999,2500],[999,2600],[999,2699],[999,2798],[999,2899],[999,3000],[999,3098],[999,3199],[999,3299],[999,3399],[999,3499],[999,3600],[999,3698],[999,3798],[999,3899],[999,3999],[999,4098],[999,4199],[999,4299],[999,4399],[999,4499],[999,4598],[999,4698],[999,4799],[999,4899],[999,5000],[999,5100],[999,5198],[999,5298],[999,5399],[999,5500],[999,5600],[999,5699],[999,5802],[49.3,5901],[49.2,5999],[49.2,6100],[49.2,6198],[49.2,6298],[49.2,6399],[53.3,6500],[64.9,6600],[65,6699],[65,6799],[65,6899],[65,6999],[59.3,7098],[55.1,7199],[54,7299],[54,7399],[55.8,7500],[60.3,7598],[63.6,7699],[64.7,7802],[65.1,7900],[69.3,8000],[69.6,8100],[69.6,8199],[69.6,8298],[71.3,8399],[76,8518],[76,8615],[76,8716],[76,8817],[75.8,8915],[75.8,9015],[75.8,9115],[75.8,9216],[75.8,9317],[75.8,9417],[75.8,9515],[75.8,9615],[75.8,9716],[75.8,9816],[75.8,9915],[75.8,10016],[75.8,10116],[75.8,10216],[76,10317],[76.5,10415],[77.1,10518],[77.5,10615],[77.5,10716],[77.5,10816],[77.5,10918],[77.5,11015],[77.5,11115],[77.5,11216],[77.5,11317],[77.5,11417],[77.5,11516],[77.5,11615],[77.5,11716],[77.5,11817],[77.5,11917],[77.5,12015],[77.5,12116],[77.5,12216],[77.5,12316],[77.5,12415],[77.5,12516],[77.5,12616],[77.5,12716],[77.5,12802]]",1,0,715.166,717.066,75.83333333,0.998,"[{""rating"":75.83333333333333,""responseTime"":0.9980000000000473}]",space,1.352,,717.067,All the time,100,717.081,,,[],,0,17,17,17,1,audio/Narrative8Situation8.wav,audio/Narrative7Situation8.wav,audio/Narrative6Situation8.wav,audio/Narrative5Situation8.wav,3,2,5,3,,,,,,,,,,,,,,,,,,,,,,,,,,,,,,,,,,,,,,,
,,,,,,663a5d5b61177a372e6f7452,2024-05-13_08h27.08.127,group3.1-3.2-social-tom,2023.2.2,MacIntel,76.92307692,65c5074098b851296ff0b7ed,664230fd91c9f13387da9f31,,,,,,,,,,,,,,,,,,,,,,,,,,,,,717.081,1,audio/Narrative8Situation9.wav,720.082,,720.082,731.399,"[[72.4,1202],[54.6,2598],[54.4,2699],[54.4,2799],[54.4,2900],[51.5,3000],[50.4,3099],[49,3199],[48.2,3298],[48.2,3399],[48.2,3500],[48.2,3599],[48.2,3698],[48.2,3799],[48.2,3898],[48.2,4000],[48.2,4099],[48.2,4199],[48.2,4299],[48.2,4399],[48.2,4500],[48.2,4599],[48.2,4698],[48.2,4800],[48.2,4899],[48.2,5000],[48.2,5171],[48.2,5266],[48.2,5375],[48.1,5466],[41.1,5568],[39.4,5666],[39.4,5766],[39.4,5866],[35.8,5966],[30.6,6067],[30.6,6166],[30.7,6265],[30.7,6366],[30.7,6466],[30.7,6565],[30.7,6666],[30.7,6765],[30.7,6866],[30.7,6966],[30.7,7067],[30.7,7165],[30.7,7265],[30.7,7365],[30.7,7466],[30.7,7567],[30.7,7666],[30.7,7766],[30.7,7866],[30.7,7966],[30.7,8065],[30.7,8166],[30.7,8266],[30.7,8366],[30.7,8466],[30.4,8565],[30.4,8666],[30.4,8766],[30.4,8865],[30.4,8966],[30.4,9067],[30.4,9165],[30.4,9266],[30.4,9365],[30.4,9466],[30.4,9567],[30.6,9666],[30.6,9765],[30.6,9866],[30.6,9966],[30.6,10067],[30.6,10165],[34.9,10265],[52.4,10365],[59.3,10466],[59.7,10565],[61.9,10668],[62.8,10766],[62.8,10866],[62.9,10966],[65.8,11067],[66.7,11168],[66.7,11254]]",1,0,731.399,733.466,49.44444444,1.081,"[{""rating"":49.44444444444444,""responseTime"":1.0809999999999036}]",space,1.533,,733.466,All the time,100,733.475,,,[],,0,18,18,18,1,audio/Narrative8Situation9.wav,audio/Narrative7Situation9.wav,audio/Narrative6Situation9.wav,audio/Narrative5Situation9.wav,3,2,4,3,,,,,,,,,,,,,,,,,,,,,,,,,,,,,,,,,,,,,,,
,,,,,,663a5d5b61177a372e6f7452,2024-05-13_08h27.08.127,group3.1-3.2-social-tom,2023.2.2,MacIntel,76.92307692,65c5074098b851296ff0b7ed,664230fd91c9f13387da9f31,,,,,,,,,,,,,,,,,,,,,,,,,,,748.402,750.982,750.996,2,audio/Narrative13Situation2.wav,750.996,,750.996,780.748,"[[50.1,4685],[50.4,4785],[50.4,4884],[50.4,4985],[50.4,5084],[50.4,5185],[50.4,5285],[50.3,5385],[50.3,5485],[50.3,5586],[50.6,5687],[51.3,5785],[51.4,5885],[51.4,5984],[51.4,6086],[51.5,6185],[51.5,6285],[51.5,6384],[51.5,6485],[51.5,6584],[51.5,6685],[51.5,6785],[51.5,6885],[51.5,6984],[51.5,7084],[51.5,7184],[51.5,7284],[51.5,7384],[51.3,7485],[47.2,7586],[43.2,7685],[42.6,7785],[42.6,7884],[42.6,7985],[42.6,8086],[41.7,8185],[39.3,8285],[39.3,8384],[39.4,8484],[39.4,8584],[39.4,8685],[39.4,8785],[39.4,8885],[39.4,8984],[39.6,9084],[39.7,9185],[65.8,9885],[65.1,9986],[64.7,10086],[64.7,10185],[64.9,10284],[65.7,10386],[66.1,10485],[66.1,10586],[66.1,10685],[66.1,10785],[68.9,10886],[71.7,10985],[71.7,11086],[71.7,11184],[71.7,11284],[71.7,11384],[71.7,11484],[71.7,11586],[71.7,11684],[71.7,11785],[71.7,11884],[71.7,11985],[71.7,12084],[71.7,12184],[71.7,12284],[71.7,12384],[71.7,12485],[71.7,12584],[71.7,12685],[71.7,12784],[71.7,12885],[71.7,12985],[71.7,13086],[71.8,13185],[73.6,13285],[74.4,13385],[74.6,13484],[74.6,13586],[74.6,13684],[75.4,13785],[77.1,13896],[79.2,14012],[79.3,14111],[79.3,14208],[79.3,14317],[79.3,14411],[79.3,14515],[79.3,14615],[79.3,14716],[79.3,14809],[79.3,14908],[79.3,15008],[79.3,15107],[79.3,15201],[79.3,15302],[79.3,15401],[79.3,15501],[79.3,15607],[79.3,15704],[79.3,15818],[79.3,15918],[79.3,16018],[79.3,16119],[79.3,16217],[79.3,16318],[79.3,16418],[79.3,16518],[79.3,16619],[79.3,16717],[79.3,16818],[79.3,16918],[79.3,17019],[79.3,17119],[79.3,17218],[79.3,17318],[79.3,17418],[79.3,17519],[79.3,17617],[79.3,17718],[79.3,17817],[79.3,17918],[79.3,18018],[79.3,18119],[79.3,18218],[79.3,18318],[79.3,18418],[79.3,18519],[79.3,18619],[79.3,18718],[79.3,18818],[79.3,18918],[79.3,19019],[79.3,19119],[79.3,19218],[79.3,19318],[79.3,19418],[79.3,19519],[79.3,19617],[79.3,19718],[79.3,19817],[79.3,19918],[79.3,20019],[79.3,20119],[79.3,20218],[79.3,20318],[79.3,20418],[79.3,20519],[79.3,20619],[79.3,20718],[79.3,20818],[79.3,20918],[79.3,21019],[79.3,21119],[67.1,21218],[48.9,21318],[48.9,21418],[48.9,21518],[48.2,21620],[35.4,21718],[35,21818],[35,21918],[35,22018],[28.6,23018],[29.2,23120],[29.2,23218],[28.9,23317],[28.9,23418],[28.9,23519],[28.9,23619],[28.9,23718],[28.9,23818],[28.9,23918],[28.9,24018],[28.9,24119],[28.9,24217],[28.9,24317],[28.8,24418],[28.8,24519],[28.8,24620],[28.6,24718],[28.6,24818],[28.6,24918],[28.6,25019],[28.6,25117],[28.6,25218],[28.6,25317],[28.6,25418],[28.6,25518],[28.6,25619],[28.6,25718],[28.6,25818],[28.6,25918],[28.6,26018],[58.1,26119],[62.6,26217],[62.6,26318],[68.8,26419],[76.1,26519],[77.5,26619],[79.3,26717],[79.3,26818],[79.3,26918],[79.3,27019],[79.3,27119],[79.3,27218],[79.3,27317],[79.3,27418],[79.3,27518],[79.3,27617],[79.3,27717],[79.3,27818],[79.3,27918],[79.3,28019],[79.3,28119],[79.3,28217],[79.3,28318],[79.3,28418],[79.3,28519],[79.3,28619],[79.3,28718],[79.3,28817],[79.3,28918],[79.3,29019],[79.3,29119],[79.3,29218],[79.3,29317],[79.3,29418],[79.3,29518],[79.3,29617],[79.3,29701]]",1,0,780.748,780.76,,,[],,,,780.76,All the time,100,780.766,,,[],,0,0,0,0,1,audio/Narrative13Situation2.wav,audio/Narrative13Situation2.wav,audio/Narrative13Situation2.wav,audio/Narrative13Situation2.wav,2,2,2,2,,,,,733.477,748.402,space,14.397,,,,,,,,,,,,,,,,,,,,,,,,,,,,,,,
,,,,,,663a5d5b61177a372e6f7452,2024-05-13_08h27.08.127,group3.1-3.2-social-tom,2023.2.2,MacIntel,76.92307692,65c5074098b851296ff0b7ed,664230fd91c9f13387da9f31,,,,,,,,,,,,,,,,,,,,,,,,,,,,,780.766,2,audio/Narrative5Situation1.wav,785.782,,785.782,799.077,"[[27.9,5133],[26.1,5233],[26.1,5331],[26.1,5432],[26.1,5532],[26.1,5633],[26.1,5733],[26.1,5833],[26.1,5932],[26.1,6033],[26.1,6133],[26.1,6232],[26.1,6333],[26.1,6432],[26.1,6533],[26.1,6632],[26.1,6733],[26.1,6831],[26.1,6932],[26.1,7033],[26.1,7133],[26.1,7233],[26.1,7331],[26.1,7432],[26.1,7532],[26.1,7633],[26.1,7732],[26.1,7833],[26.1,7934],[26.1,8033],[26.1,8133],[26.1,8233],[26.1,8331],[26.1,8432],[26.1,8533],[26.1,8632],[26.1,8733],[26.1,8831],[26.1,8932],[26.1,9032],[26.1,9132],[26.1,9233],[26.1,9333],[26.1,9432],[26.1,9532],[26.1,9633],[26.1,9733],[26.1,9831],[26.1,9932],[26.1,10033],[26.1,10132],[26.1,10233],[26.1,10333],[26.1,10432],[26.1,10533],[26.1,10633],[26.1,10733],[26.3,10831],[26.7,10932],[26.7,11032],[26.7,11133],[26.7,11232],[26.7,11331],[27.1,11432],[59.6,11533],[68.3,11651],[69.3,11749],[72.4,11847],[72.4,11950],[71.3,12048],[71,12149],[71,12249],[71,12349],[71,12447],[71,12548],[71,12649],[71,12749],[71,12849],[71,12948],[71,13048],[71,13149],[71,13245]]",1,0,799.078,802.198,57.22222222,1.718,"[{""rating"":57.22222222222222,""responseTime"":1.717999999999961}]",space,2.582,,802.198,Not at all,0,802.212,,,[],,0,1,1,1,1,audio/Narrative7Situation1.wav,audio/Narrative8Situation1.wav,audio/Narrative5Situation1.wav,audio/Narrative6Situation1.wav,2,5,5,2,,,,,,,,,,,,,,,,,,,,,,,,,,,,,,,,,,,,,,,
,,,,,,663a5d5b61177a372e6f7452,2024-05-13_08h27.08.127,group3.1-3.2-social-tom,2023.2.2,MacIntel,76.92307692,65c5074098b851296ff0b7ed,664230fd91c9f13387da9f31,,,,,,,,,,,,,,,,,,,,,,,,,,,,,802.212,2,audio/Narrative5Situation2.wav,805.214,,805.214,834.675,"[[999,0],[999,105],[999,206],[999,301],[999,389],[999,484],[999,582],[999,686],[999,783],[999,883],[999,984],[999,1084],[999,1183],[999,1283],[999,1383],[999,1483],[999,1584],[999,1682],[999,1783],[999,1884],[999,1984],[999,2084],[999,2183],[999,2283],[999,2383],[999,2484],[999,2582],[999,2683],[999,2783],[999,2884],[999,2983],[999,3082],[999,3183],[999,3283],[999,3383],[999,3483],[999,3584],[999,3682],[999,3783],[999,3884],[999,3984],[999,4082],[999,4183],[999,4283],[999,4384],[999,4484],[999,4582],[999,4682],[30.6,4783],[29,4883],[28.8,4983],[28.8,5082],[28.8,5182],[28.8,5283],[28.8,5384],[28.8,5484],[28.8,5582],[28.8,5683],[28.8,5783],[28.8,5883],[28.8,5984],[28.8,6082],[28.8,6182],[28.8,6283],[28.8,6384],[28.8,6484],[28.8,6582],[28.8,6682],[28.8,6783],[28.8,6883],[28.8,6984],[28.8,7082],[28.8,7182],[28.8,7283],[28.8,7384],[28.8,7483],[28.8,7582],[28.8,7683],[28.8,7783],[28.8,7884],[28.8,7983],[28.8,8082],[28.8,8183],[28.8,8283],[28.8,8383],[28.8,8484],[28.8,8584],[28.8,8682],[28.8,8783],[28.8,8884],[28.8,8983],[28.8,9084],[28.8,9182],[28.8,9283],[28.8,9383],[28.8,9483],[28.8,9584],[28.8,9683],[28.8,9783],[28.8,9883],[28.8,9983],[28.8,10082],[28.8,10182],[28.8,10283],[28.8,10384],[28.8,10483],[28.8,10584],[28.8,10683],[28.8,10783],[28.8,10883],[28.8,10984],[28.8,11082],[28.8,11182],[28.8,11283],[28.8,11383],[28.8,11484],[28.8,11582],[28.8,11682],[28.8,11783],[28.8,11883],[28.8,11984],[28.8,12082],[28.8,12185],[28.8,12283],[28.8,12383],[28.8,12483],[28.8,12584],[28.8,12682],[28.8,12783],[28.8,12884],[28.8,12984],[28.8,13084],[28.8,13182],[28.8,13283],[28.8,13384],[28.8,13484],[28.8,13582],[28.8,13683],[28.8,13783],[28.8,13884],[28.8,13984],[28.8,14082],[28.8,14183],[28.8,14283],[28.8,14383],[28.8,14483],[28.8,14584],[28.8,14682],[28.8,14783],[28.8,14883],[28.8,14984],[28.8,15084],[28.8,15182],[28.8,15283],[28.8,15383],[28.8,15483],[28.8,15582],[28.8,15682],[28.8,15783],[28.8,15884],[28.8,15983],[30.3,16084],[51.8,16202],[60.1,16301],[61,16399],[61,16500],[61.1,16601],[62.9,16701],[64.4,16800],[65,16901],[65,17000],[65,17100],[65.4,17200],[72.6,17300],[72.9,17399],[72.8,17500],[72.6,17599],[72.6,17699],[72.6,17800],[72.6,17901],[72.6,18000],[72.6,18099],[72.6,18200],[72.6,18300],[72.6,18399],[72.6,18500],[72.6,18600],[72.6,18699],[72.6,18800],[73.1,18903],[74.9,19008],[75.4,19109],[75.8,19206],[75.8,19311],[75.8,19406],[75.8,19505],[75.8,19611],[75.8,19714],[75.8,19807],[75.8,19909],[75.8,20013],[75.8,20106],[75.8,20207],[75.8,20307],[75.8,20412],[75.8,20508],[75.8,20611],[75.8,20706],[75.8,20813],[75.8,20913],[75.8,21005],[75.8,21106],[75.8,21200],[75.8,21300],[75.8,21399],[75.8,21500],[75.8,21600],[75.8,21700],[75.8,21800],[75.8,21899],[75.8,22000],[75.8,22100],[75.8,22200],[75.8,22298],[75.8,22399],[75.8,22499],[75.8,22600],[75.8,22700],[75.8,22800],[75.8,22899],[76,23000],[83.6,23099],[84,23200],[84,23301],[84,23399],[84.4,23500],[84.9,23600],[85.3,23699],[85.7,23800],[85.7,23899],[85.7,24000],[85.7,24100],[85.7,24200],[85.7,24300],[85.7,24401],[85.7,24499],[85.7,24600],[85.7,24700],[85.7,24800],[85.7,24899],[85.7,25000],[85.7,25100],[85.7,25200],[85.7,25300],[85.7,25399],[85.7,25500],[85.7,25599],[85.7,25700],[85.7,25800],[85.7,25899],[85.7,26000],[85.7,26100],[85.7,26200],[85.7,26300],[85.7,26399],[85.7,26499],[85.7,26600],[85.7,26699],[85.7,26800],[85.7,26899],[85.7,27000],[85.7,27100],[85.7,27200],[85.7,27300],[85.7,27399],[85.7,27500],[85.7,27599],[85.7,27700],[85.7,27798],[85.7,27899],[85.7,28000],[85.7,28100],[85.7,28201],[85.7,28298],[85.7,28399],[85.7,28499],[85.7,28600],[85.7,28699],[85.7,28800],[85.7,28899],[85.7,29000],[85.7,29099],[85.7,29199],[85.7,29300],[85.7,29391]]",1,0,834.676,836.931,55.13888889,1.253,"[{""rating"":55.13888888888889,""responseTime"":1.2530000000000427}]",space,1.717,,836.931,Not at all,0,836.941,,,[],,0,2,2,2,1,audio/Narrative7Situation2.wav,audio/Narrative8Situation2.wav,audio/Narrative5Situation2.wav,audio/Narrative6Situation2.wav,3,3,3,3,,,,,,,,,,,,,,,,,,,,,,,,,,,,,,,,,,,,,,,
,,,,,,663a5d5b61177a372e6f7452,2024-05-13_08h27.08.127,group3.1-3.2-social-tom,2023.2.2,MacIntel,76.92307692,65c5074098b851296ff0b7ed,664230fd91c9f13387da9f31,,,,,,,,,,,,,,,,,,,,,,,,,,,,,836.942,2,audio/Narrative5Situation3.wav,839.947,,839.947,853.858,"[[49.2,13049],[49.3,13149],[49.3,13250],[49.3,13349],[49.3,13449],[49,13549],[41.5,13651],[39.4,13748],[39.4,13839]]",1,0,853.859,857.33,36.94444444,2.504,"[{""rating"":36.94444444444444,""responseTime"":2.504000000000019}]",space,2.928,,857.33,Half the time,50,857.343,,,[],,0,3,3,3,1,audio/Narrative7Situation3.wav,audio/Narrative8Situation3.wav,audio/Narrative5Situation3.wav,audio/Narrative6Situation3.wav,8,4,3,5,,,,,,,,,,,,,,,,,,,,,,,,,,,,,,,,,,,,,,,
,,,,,,663a5d5b61177a372e6f7452,2024-05-13_08h27.08.127,group3.1-3.2-social-tom,2023.2.2,MacIntel,76.92307692,65c5074098b851296ff0b7ed,664230fd91c9f13387da9f31,,,,,,,,,,,,,,,,,,,,,,,,,,,,,857.343,2,audio/Narrative5Situation4.wav,858.347,,858.347,878.744,"[[999,0],[999,105],[999,208],[999,304],[999,404],[999,508],[999,615],[999,716],[999,816],[999,915],[999,1015],[999,1115],[999,1216],[999,1317],[999,1417],[999,1516],[999,1616],[999,1716],[999,1816],[999,1917],[999,2015],[999,2116],[999,2216],[999,2317],[999,2417],[999,2516],[999,2616],[999,2716],[999,2816],[999,2915],[999,3016],[999,3115],[999,3216],[999,3316],[999,3417],[999,3516],[999,3616],[999,3716],[999,3816],[999,3917],[999,4015],[999,4116],[999,4216],[999,4317],[999,4415],[999,4516],[999,4615],[999,4716],[999,4816],[999,4918],[999,5016],[999,5115],[999,5216],[999,5316],[31.8,5418],[31.8,5515],[31.8,5616],[31.8,5716],[31.8,5816],[31.8,5917],[31.8,6015],[31.8,6116],[28.3,6216],[20,6317],[19.6,6415],[19.7,6516],[19,6615],[15.3,6716],[15.3,6817],[15.3,6917],[15.3,7015],[15.3,7115],[15.3,7216],[15.3,7316],[15.3,7417],[15.3,7515],[15.3,7616],[15.3,7716],[15.3,7817],[15.3,7917],[15.3,8015],[15.3,8116],[15.3,8216],[15.3,8317],[15.3,8415],[15.3,8515],[15.3,8615],[15.4,8716],[45.6,8817],[55.3,8919],[55.6,9015],[55.6,9115],[66.5,9218],[68.2,9316],[68.2,9417],[70.1,9515],[71.7,9631],[71.9,9732],[72.9,9852],[73.8,9948],[73.8,10049],[73.8,10149],[73.8,10249],[73.8,10350],[73.8,10448],[73.8,10549],[73.8,10649],[73.8,10749],[73.8,10848],[73.8,10949],[73.8,11049],[73.8,11149],[73.6,11249],[73.6,11350],[73.6,11448],[73.6,11548],[73.6,11649],[73.6,11749],[73.6,11850],[73.6,11949],[73.6,12049],[73.6,12149],[73.6,12250],[73.6,12348],[73.6,12448],[73.6,12548],[73.6,12649],[73.6,12749],[73.6,12850],[73.6,12949],[73.6,13049],[73.6,13149],[73.6,13249],[73.6,13348],[73.6,13448],[73.6,13549],[73.6,13649],[73.6,13749],[73.6,13848],[73.6,13948],[73.5,14049],[73.5,14149],[73.3,14250],[73.3,14350],[73.3,14449],[73.3,14548],[73.3,14649],[73.3,14750],[73.3,14850],[73.3,14948],[73.3,15049],[73.3,15149],[73.3,15250],[73.3,15350],[73.3,15448],[73.3,15549],[73.3,15649],[73.3,15750],[73.3,15848],[73.3,15949],[73.3,16049],[73.3,16149],[73.3,16250],[73.3,16348],[73.3,16449],[73.3,16548],[73.3,16649],[73.3,16749],[73.3,16850],[73.3,16948],[73.3,17049],[73.3,17149],[73.5,17249],[73.5,17348],[73.5,17448],[73.5,17549],[76.1,17649],[80.7,17749],[81.3,17848],[81.3,17949],[81.3,18048],[81.3,18149],[81.3,18249],[81.3,18350],[81.3,18448],[81.3,18549],[81.3,18649],[81.3,18749],[81.3,18850],[81.3,18949],[81.3,19048],[81.3,19149],[81.3,19249],[81.3,19350],[81.3,19449],[81.3,19549],[81.3,19649],[81.3,19749],[81.3,19848],[81.3,19948],[81.3,20048],[81.3,20149],[81.3,20249],[81.3,20341]]",1,0,878.744,881.197,60.13888889,1.352,"[{""rating"":60.138888888888886,""responseTime"":1.3520000000000891}]",space,1.918,,881.198,Half the time,50,881.206,,,[],,0,4,4,4,1,audio/Narrative7Situation4.wav,audio/Narrative8Situation4.wav,audio/Narrative5Situation4.wav,audio/Narrative6Situation4.wav,3,3,1,2,,,,,,,,,,,,,,,,,,,,,,,,,,,,,,,,,,,,,,,
,,,,,,663a5d5b61177a372e6f7452,2024-05-13_08h27.08.127,group3.1-3.2-social-tom,2023.2.2,MacIntel,76.92307692,65c5074098b851296ff0b7ed,664230fd91c9f13387da9f31,,,,,,,,,,,,,,,,,,,,,,,,,,,,,881.206,2,audio/Narrative5Situation5.wav,886.213,,886.213,901.643,"[[999,0],[999,114],[999,211],[999,311],[999,407],[999,513],[999,611],[999,706],[999,804],[999,912],[999,1000],[999,1099],[999,1200],[999,1299],[999,1399],[999,1500],[999,1600],[999,1700],[999,1799],[999,1900],[999,2000],[999,2100],[999,2198],[999,2299],[999,2399],[999,2500],[999,2600],[999,2700],[999,2799],[999,2899],[999,3000],[999,3099],[999,3200],[999,3298],[999,3399],[999,3500],[999,3600],[999,3700],[999,3798],[999,3899],[999,4009],[999,4100],[999,4200],[999,4299],[999,4399],[999,4500],[999,4600],[999,4702],[999,4799],[999,4899],[999,5000],[999,5100],[999,5200],[999,5299],[999,5399],[999,5499],[999,5629],[999,5798],[999,5915],[49.9,6006],[49.9,6116],[50.4,6218],[66.8,6422],[66.9,6516],[66.9,6615],[66.9,6720],[72.2,6833],[74.3,6933],[75.3,7085],[76,7196],[77.1,7304],[77.4,7404],[77.4,7503],[77.4,7600],[77.4,7698],[77.4,7799],[77.4,7966],[77.4,8067],[77.4,8166],[77.4,8265],[77.4,8365],[77.4,8466],[77.4,8567],[77.4,8665],[77.4,8766],[77.4,8865],[77.4,8966],[77.4,9067],[77.4,9166],[77.4,9266],[77.4,9366],[77.4,9468],[77.4,9566],[77.4,9666],[77.4,9765],[77.4,9867],[77.4,9966],[77.4,10067],[77.4,10166],[77.4,10266],[77.4,10366],[77.4,10466],[77.4,10567],[77.4,10665],[77.4,10766],[77.4,10865],[77.4,10966],[77.4,11066],[77.4,11166],[77.4,11266],[77.4,11366],[77.4,11466],[77.4,11567],[77.4,11666],[77.4,11766],[77.4,11866],[77.4,11966],[77.4,12066],[77.4,12166],[77.4,12265],[77.4,12366],[77.4,12466],[77.4,12567],[77.4,12665],[77.4,12765],[77.4,12865],[77.4,12966],[77.4,13066],[77.4,13166],[77.4,13265],[77.4,13366],[77.4,13466],[77.4,13567],[77.4,13666],[77.4,13765],[77.4,13867],[79,13966],[85.6,14067],[85.8,14165],[85.8,14266],[87.1,14366],[88.5,14468],[89.2,14567],[89.4,14666],[89.4,14766],[89.4,14866],[89.4,14966],[89.4,15066],[89.4,15166],[89.4,15265],[89.4,15356]]",1,0,901.643,904.213,87.77777778,2.016,"[{""rating"":87.77777777777777,""responseTime"":2.0159999999999627}]",space,2.035,,904.213,Half the time,50,904.223,,,[],,0,5,5,5,1,audio/Narrative7Situation5.wav,audio/Narrative8Situation5.wav,audio/Narrative5Situation5.wav,audio/Narrative6Situation5.wav,5,2,5,2,,,,,,,,,,,,,,,,,,,,,,,,,,,,,,,,,,,,,,,
,,,,,,663a5d5b61177a372e6f7452,2024-05-13_08h27.08.127,group3.1-3.2-social-tom,2023.2.2,MacIntel,76.92307692,65c5074098b851296ff0b7ed,664230fd91c9f13387da9f31,,,,,,,,,,,,,,,,,,,,,,,,,,,,,904.223,2,audio/Narrative5Situation6.wav,907.229,,907.229,912.913,"[[28.9,4100],[20.4,4200],[20.6,4300],[20.4,4400],[18.5,4500],[17.4,4600],[16,4700],[14.6,4801],[14.6,4899],[14.6,5000],[14.6,5100],[14.6,5200],[14.6,5300],[14.6,5400],[14.6,5500],[14.6,5600]]",1,0,912.913,917.046,23.05555556,3.299,"[{""rating"":23.055555555555557,""responseTime"":3.298999999999978}]",space,3.585,,917.046,All the time,100,917.06,,,[],,0,6,6,6,1,audio/Narrative7Situation6.wav,audio/Narrative8Situation6.wav,audio/Narrative5Situation6.wav,audio/Narrative6Situation6.wav,3,2,3,2,,,,,,,,,,,,,,,,,,,,,,,,,,,,,,,,,,,,,,,
,,,,,,663a5d5b61177a372e6f7452,2024-05-13_08h27.08.127,group3.1-3.2-social-tom,2023.2.2,MacIntel,76.92307692,65c5074098b851296ff0b7ed,664230fd91c9f13387da9f31,,,,,,,,,,,,,,,,,,,,,,,,,,,,,917.06,2,audio/Narrative5Situation7.wav,921.063,,921.063,942.097,"[[18.2,2967],[16,3066],[13.1,3166],[12.4,3264],[12.4,3365],[12.4,3466],[19.4,5064],[22.4,5165],[37.1,5265],[38.1,5365],[37.9,5466],[37.9,5565],[44.6,5665],[54.7,5765],[60.6,5867],[64.3,5966],[65.8,6067],[66.8,6165],[67.2,6265],[68.8,6365],[70.7,6466],[70.7,6566],[70.7,6665],[70.7,6766],[70.7,6865],[70.7,6966],[70.7,7066],[70.7,7166],[70.7,7265],[70.7,7365],[70.7,7466],[70.7,7565],[70.7,7664],[70.7,7765],[70.7,7866],[70.7,7966],[70.7,8064],[70.7,8165],[70.7,8265],[70.7,8366],[70.7,8466],[70.7,8566],[70.7,8665],[70.7,8766],[70.7,8865],[70.7,8966],[70.7,9065],[70.7,9167],[70.7,9266],[70.7,9365],[70.7,9466],[70.7,9565],[70.7,9665],[70.7,9765],[70.7,9865],[70.7,9966],[72.8,10067],[75.6,10165],[76.3,10265],[76.3,10366],[76.3,10466],[76.3,10565],[76.3,10665],[76.3,10766],[76.3,10865],[76.3,10966],[76.3,11065],[76.3,11166],[76.3,11265],[76.3,11365],[76.3,11466],[76.3,11564],[76.3,11665],[76.3,11765],[76.3,11866],[76.3,11966],[76.3,12065],[76.3,12165],[76.3,12265],[76.3,12365],[76.3,12466],[76.3,12565],[76.3,12664],[76.3,12765],[76.3,12865],[76.3,12966],[76.3,13065],[76.3,13164],[76.3,13265],[76.3,13365],[76.3,13466],[76.3,13565],[76.3,13666],[76.3,13764],[76.3,13865],[76.3,13966],[76.3,14065],[76.3,14165],[76.3,14265],[76.3,14365],[76.3,14466],[76.3,14566],[76.3,14665],[76.3,14765],[76.3,14865],[76.3,14966],[76.3,15065],[76.3,15165],[76.3,15265],[76.3,15365],[76.3,15466],[76.3,15565],[76.3,15665],[76.3,15765],[76.3,15866],[76.3,15964],[76.3,16065],[76.3,16165],[76.3,16264],[76.3,16365],[76.3,16466],[76.3,16565],[76.3,16665],[76.3,16765],[76.3,16865],[76.3,16966],[76.3,17065],[76.3,17165],[76.3,17265],[76.3,17365],[76.3,17466],[76.3,17565],[76.3,17665],[76.3,17764],[76.3,17866],[76.3,17966],[76.3,18065],[76.3,18165],[76.3,18265],[76.3,18365],[76.3,18466],[76.3,18565],[76.3,18665],[76.3,18765],[76.3,18865],[76.3,18966],[76.3,19064],[76.3,19165],[76.3,19265],[76.3,19365],[76.3,19466],[76.3,19565],[76.3,19665],[76.3,19765],[76.3,19865],[76.3,19966],[76.3,20065],[76.3,20164],[76.3,20265],[76.3,20365],[76.3,20464],[76.3,20565],[76.3,20664],[76.3,20765],[76.3,20865],[76.3,20961]]",1,0,942.097,946.529,55.55555556,1.346,"[{""rating"":55.55555555555556,""responseTime"":1.3460000000000036}]",space,3.884,,946.529,Half the time,50,957.679,49.86111111,9.813,"[{""rating"":49.861111111111114,""responseTime"":9.812999999999988}]",space,0,7,7,7,1,audio/Narrative7Situation7.wav,audio/Narrative8Situation7.wav,audio/Narrative5Situation7.wav,audio/Narrative6Situation7.wav,5,3,4,5,,,10.6,,,,,,,,,,,,,,,,,,,,,,,,,,,,,,,,,,,,
,,,,,,663a5d5b61177a372e6f7452,2024-05-13_08h27.08.127,group3.1-3.2-social-tom,2023.2.2,MacIntel,76.92307692,65c5074098b851296ff0b7ed,664230fd91c9f13387da9f31,,,,,,,,,,,,,,,,,,,,,,,,,,,,,957.679,2,audio/Narrative5Situation8.wav,960.679,,960.679,969.508,"[[70.8,5499],[71.4,5598],[71.4,5698],[71.3,5800],[71.1,5899],[71,6000],[71,6100],[71,6198],[71,6299],[71,6399],[71.1,6500],[76.9,6598],[80.3,6700],[81.8,6798],[81.8,6899],[81.8,6999],[82.4,7100],[82.8,7198],[82.8,7298],[82.8,7399],[82.8,7499],[82.8,7598],[82.8,7698],[82.8,7801],[82.8,7899],[82.8,7999],[82.8,8098],[82.8,8198],[82.8,8299],[82.8,8399],[82.8,8499],[82.8,8598],[82.8,8698],[82.8,8797]]",1,0,969.508,971.828,82.63888889,0.737,"[{""rating"":82.63888888888889,""responseTime"":0.73700000000008}]",space,1.784,,971.829,Not at all,0,971.844,,,[],,0,8,8,8,1,audio/Narrative7Situation8.wav,audio/Narrative8Situation8.wav,audio/Narrative5Situation8.wav,audio/Narrative6Situation8.wav,2,3,3,5,,,,,,,,,,,,,,,,,,,,,,,,,,,,,,,,,,,,,,,
,,,,,,663a5d5b61177a372e6f7452,2024-05-13_08h27.08.127,group3.1-3.2-social-tom,2023.2.2,MacIntel,76.92307692,65c5074098b851296ff0b7ed,664230fd91c9f13387da9f31,,,,,,,,,,,,,,,,,,,,,,,,,,,,,971.844,2,audio/Narrative5Situation9.wav,974.845,,974.845,1014.385,"[[56.3,2615],[33.8,2717],[27.4,2817],[27.4,2917],[27.4,3017],[20.6,3116],[19.2,3217],[19.2,3317],[19.2,3417],[19.2,3517],[19.2,3616],[19.2,3717],[19.2,3816],[19.2,3917],[19.2,4019],[20.4,4117],[22.2,4217],[22.4,4317],[22.4,4417],[22.4,4517],[22.4,4616],[22.4,4718],[22.4,4816],[22.4,4915],[22.4,5017],[22.4,5115],[22.4,5217],[22.4,5317],[22.4,5417],[22.4,5517],[22.4,5616],[22.4,5717],[22.4,5817],[22.4,5917],[22.4,6017],[22.4,6116],[22.4,6216],[22.4,6317],[22.4,6415],[22.4,6517],[22.4,6616],[22.4,6717],[22.4,6816],[22.5,6917],[22.9,7017],[23.1,7116],[23.1,7217],[23.1,7317],[23.1,7417],[23.1,7517],[23.1,7615],[23.1,7717],[23.1,7816],[23.1,7917],[23.1,8017],[23.1,8115],[23.1,8217],[23.1,8317],[23.1,8417],[23.1,8517],[23.1,8616],[23.1,8717],[23.1,8817],[23.1,8917],[23.1,9017],[23.1,9115],[23.1,9217],[23.1,9316],[24.6,9417],[28.2,9516],[29.3,9616],[29.3,9718],[29.3,9817],[29.3,9915],[29.3,10017],[29.3,10115],[29.3,10216],[29.3,10316],[29.3,10418],[23.3,10517],[20.6,10616],[20.6,10717],[20.6,10817],[20.6,10915],[18.1,11016],[17.4,11115],[17.4,11217],[17.5,11316],[17.5,11417],[17.5,11516],[17.5,11616],[17.5,11717],[17.5,11817],[17.5,11917],[17.5,12017],[17.5,12116],[17.5,12216],[17.5,12317],[17.5,12415],[17.5,12517],[17.5,12615],[17.5,12717],[17.5,12817],[17.5,12917],[17.5,13017],[26,13119],[62.6,13217],[64.4,13316],[64.4,13417],[65,13516],[71.8,13615],[72.4,13717],[72.4,13817],[72.4,13915],[72.4,14017],[72.4,14116],[72.4,14217],[72.4,14317],[72.4,14415],[72.4,14517],[72.4,14615],[72.2,14717],[72.2,14817],[72.2,14917],[72.2,15016],[72.2,15116],[72.2,15216],[72.2,15316],[72.2,15417],[72.2,15516],[72.2,15616],[72.2,15717],[72.2,15817],[72.2,15917],[72.2,16017],[72.2,16116],[72.2,16217],[72.2,16317],[72.2,16417],[72.2,16517],[72.2,16615],[72.2,16717],[72.2,16816],[72.2,16917],[72.2,17017],[72.2,17116],[72.2,17216],[72.2,17317],[72.2,17415],[72.2,17517],[72.2,17616],[72.2,17716],[72.2,17817],[72.2,17915],[72.2,18017],[72.2,18116],[72.2,18217],[71.9,18317],[66.1,18417],[61.8,18518],[61.8,18615],[61.8,18717],[61.8,18816],[61.8,18917],[61.8,19016],[61.8,19116],[61.8,19217],[62.5,19316],[84.7,20017],[82.4,20115],[82.2,20217],[82.2,20317],[83.5,20417],[83.6,20518],[84,20615],[84,20716],[84,20816],[84,20917],[84,21016],[84,21116],[84,21216],[84,21317],[84,21417],[84,21517],[84,21616],[84,21717],[84,21817],[84,21915],[84,22018],[84,22115],[84,22217],[84,22317],[84,22417],[84,22517],[84,22616],[84,22717],[84,22817],[84,22917],[84,23016],[84,23116],[84,23216],[84,23316],[84,23415],[84,23516],[84,23616],[84,23716],[84,23817],[84,23915],[84,24017],[84,24115],[84,24216],[84,24316],[84,24417],[84,24517],[84,24616],[84,24717],[84,24817],[84,24915],[84,25016],[84,25116],[84,25216],[84,25316],[84,25415],[84,25517],[84,25616],[84,25716],[84,25817],[84,25917],[84,26017],[84,26115],[84,26216],[84,26317],[84,26417],[84,26516],[84,26616],[84,26717],[84,26817],[84,26917],[84,27017],[84,27116],[84,27216],[84,27317],[84,27415],[84,27516],[84,27615],[84,27717],[84,27817],[84,27917],[84,28016],[84,28116],[84,28216],[84,28316],[84,28415],[84,28517],[84,28615],[84,28716],[84,28817],[84,28917],[84,29017],[84,29116],[84,29217],[84,29317],[84,29415],[84,29517],[84,29615],[84,29716],[84,29816],[84,29917],[84,30017],[84,30116],[84,30216],[84,30317],[84,30415],[84.3,30516],[85.4,30615],[86.5,30718],[87.8,30816],[87.8,30915],[87.6,31017],[87.6,31116],[87.6,31216],[87.6,31316],[87.6,31415],[87.6,31517],[87.6,31615],[87.6,31718],[87.6,31816],[87.6,31917],[87.6,32016],[87.6,32116],[87.6,32217],[87.6,32317],[87.6,32415],[87.6,32516],[86.1,32615],[56.9,32717],[62.9,33418],[64.2,33516],[64.2,33615],[64.3,33717],[68.9,33816],[69.2,33917],[70.7,34017],[71.8,34115],[72.5,34221],[73.1,34317],[73.1,34415],[73.1,34517],[73.1,34616],[73.1,34716],[73.1,34817],[73.1,34915],[73.1,35017],[73.1,35115],[73.1,35217],[73.1,35317],[73.1,35417],[73.1,35517],[73.1,35616],[73.1,35717],[73.1,35816],[73.1,35917],[73.1,36016],[73.1,36116],[73.1,36218],[73.1,36317],[73.1,36417],[73.1,36516],[73.1,36616],[73.1,36716],[73.1,36816],[73.1,36915],[73.1,37016],[73.3,37115],[73.3,37216],[73.3,37316],[73.3,37417],[73.3,37517],[73.3,37616],[73.3,37716],[73.3,37817],[73.3,37915],[73.3,38016],[73.3,38116],[73.3,38216],[73.3,38317],[73.1,38420],[72.9,38517],[72.6,38616],[71.9,38732],[71.7,38833],[71.5,38932],[71.4,39033],[71.3,39133],[71.3,39232],[71.3,39333],[71.3,39432],[71.3,39524]]",1,0,1014.385,1016.328,67.5,1.208,"[{""rating"":67.5,""responseTime"":1.2080000000000837}]",space,1.401,,1016.329,Not at all,0,1016.34,,,[],,0,9,9,9,1,audio/Narrative7Situation9.wav,audio/Narrative8Situation9.wav,audio/Narrative5Situation9.wav,audio/Narrative6Situation9.wav,2,3,3,4,,,,,,,,,,,,,,,,,,,,,,,,,,,,,,,,,,,,,,,
,,,,,,663a5d5b61177a372e6f7452,2024-05-13_08h27.08.127,group3.1-3.2-social-tom,2023.2.2,MacIntel,76.92307692,65c5074098b851296ff0b7ed,664230fd91c9f13387da9f31,,,,,,,,,,,,,,,,,,,,,,,,,,,,,1016.341,2,audio/Narrative6Situation1.wav,1018.344,,1018.344,1044.935,"[[40.1,7317],[36.7,7416],[36.7,7517],[36.5,7616],[39.7,17052],[35,17150],[39.3,17250],[48.2,17351],[57.6,17450],[59.3,17550],[59.3,17650],[61,17751],[64.2,17872],[64.2,17974],[64.2,18081],[64.2,18173],[64.2,18279],[64.2,18375],[64.2,18474],[64.2,18578],[64.2,18680],[64.2,18773],[64.2,18874],[64.2,18972],[64.2,19073],[64.2,19172],[64.2,19278],[64.2,19379],[64.2,19473],[64.2,19575],[64.2,19680],[64.2,19779],[64.2,19875],[64.2,19976],[64.2,20079],[64.2,20177],[64.2,20273],[64.2,20379],[64.2,20480],[64.2,20574],[64.2,20678],[64.2,20773],[64.2,20879],[64.2,20973],[64.2,21079],[64.2,21178],[64.2,21280],[64.2,21375],[64.2,21472],[64.2,21579],[64.2,21677],[64.2,21776],[64.2,21882],[64.2,21980],[64.2,22074],[64.2,22180],[64.2,22275],[64.2,22375],[64.2,22480],[64.2,22579],[64.2,22680],[64.2,22784],[64.2,22884],[64.2,22982],[64.2,23083],[64.2,23183],[64.2,23283],[64.2,23383],[64.2,23482],[64.2,23583],[64.2,23683],[64.2,23783],[64.2,23884],[64.2,23982],[64.2,24083],[64.2,24182],[64.2,24284],[64.2,24383],[64.2,24482],[64.2,24583],[64.2,24683],[64.2,24784],[64.2,24884],[64.2,24983],[64.2,25084],[64.2,25184],[64.2,25283],[64.2,25384],[64.2,25482],[64.2,25584],[69.2,25684],[77.2,25784],[80.6,25884],[85,25982],[85,26084],[85,26182],[85,26285],[84.9,26383],[84.9,26485],[84.9,26579]]",1,0,1044.936,1047.361,67.22222222,1.29,"[{""rating"":67.22222222222223,""responseTime"":1.2899999999999636}]",space,1.884,,1047.361,Half the time,50,1047.375,,,[],,0,10,10,10,1,audio/Narrative8Situation1.wav,audio/Narrative7Situation1.wav,audio/Narrative6Situation1.wav,audio/Narrative5Situation1.wav,5,2,2,5,,,,,,,,,,,,,,,,,,,,,,,,,,,,,,,,,,,,,,,
,,,,,,663a5d5b61177a372e6f7452,2024-05-13_08h27.08.127,group3.1-3.2-social-tom,2023.2.2,MacIntel,76.92307692,65c5074098b851296ff0b7ed,664230fd91c9f13387da9f31,,,,,,,,,,,,,,,,,,,,,,,,,,,,,1047.375,2,audio/Narrative6Situation2.wav,1050.377,,1050.377,1078.897,"[[999,0],[999,116],[999,216],[999,317],[999,399],[999,500],[999,600],[999,699],[999,800],[999,901],[999,1000],[999,1100],[999,1200],[999,1300],[999,1399],[999,1500],[999,1599],[999,1700],[999,1799],[999,1899],[999,2000],[999,2100],[999,2200],[999,2299],[999,2400],[999,2500],[999,2600],[999,2699],[999,2800],[999,2899],[999,3000],[999,3099],[63.2,3199],[68.1,3300],[68.3,3399],[68.3,3500],[67.9,3599],[67.9,3700],[67.9,3799],[67.9,3900],[67.9,4000],[67.9,4100],[67.9,4200],[67.9,4300],[67.9,4400],[67.9,4500],[67.9,4600],[67.9,4699],[67.9,4799],[67.9,4899],[67.9,5000],[67.9,5099],[67.9,5200],[67.9,5300],[67.9,5400],[67.9,5500],[67.9,5599],[67.9,5699],[67.9,5799],[67.9,5900],[67.9,6000],[67.9,6100],[67.9,6199],[67.9,6300],[67.9,6400],[67.9,6500],[67.9,6599],[67.9,6699],[67.9,6839],[67.9,6949],[67.9,7050],[67.9,7149],[67.9,7250],[67.9,7349],[67.9,7450],[67.9,7549],[67.9,7650],[67.9,7750],[67.9,7850],[67.9,7950],[67.9,8049],[67.9,8150],[67.9,8250],[67.9,8350],[67.9,8449],[67.9,8550],[67.9,8649],[67.9,8750],[67.9,8849],[67.6,8949],[59.4,9050],[44.2,9151],[37.5,9250],[36.9,9349],[36.9,9449],[36.9,9549],[37.1,9650],[37.1,9750],[37.1,9850],[37.1,9949],[37.1,10050],[37.1,10150],[37.1,10250],[37.1,10350],[37.1,10449],[37.1,10550],[37.1,10649],[37.1,10750],[37.1,10849],[37.1,10950],[37.1,11049],[37.1,11150],[37.1,11250],[37.1,11350],[37.1,11450],[37.1,11549],[37.1,11650],[37.1,11750],[37.1,11849],[37.1,11949],[37.1,12050],[37.1,12150],[37.1,12250],[37.1,12350],[37.1,12450],[37.1,12550],[37.1,12650],[37.1,12750],[37.1,12849],[37.1,12949],[37.1,13049],[37.1,13149],[37.1,13250],[37.1,13350],[37.1,13449],[37.1,13550],[37.1,13650],[37.1,13750],[37.1,13849],[37.1,13949],[37.1,14050],[37.1,14149],[37.1,14250],[37.1,14350],[37.1,14450],[37.1,14550],[37.1,14650],[37.1,14750],[37.1,14849],[37.1,14949],[37.1,15049],[37.1,15150],[37.1,15250],[37.1,15350],[37.1,15449],[37.1,15550],[37.1,15650],[37.1,15750],[37.1,15849],[37.1,15949],[37.1,16050],[37.1,16149],[37.1,16250],[37.1,16349],[37.1,16450],[37.1,16550],[37.1,16649],[37.8,16750],[51.3,16864],[57.9,16957],[57.9,17062],[57.9,17157],[67.5,17267],[73.1,17366],[74.2,17467],[74.7,17567],[75,17667],[76.1,17766],[76.5,17866],[76.7,17966],[76.7,18067],[76.7,18166],[76.7,18266],[76.7,18366],[76.7,18465],[76.7,18567],[76.7,18665],[76.7,18766],[76.7,18865],[76.7,18965],[76.7,19067],[76.7,19166],[76.7,19266],[76.7,19366],[76.7,19466],[76.7,19565],[76.8,19666],[76.8,19765],[76.8,19866],[76.8,19966],[76.8,20065],[76.8,20166],[76.9,20266],[76.9,20366],[76.9,20467],[76.9,20565],[76.9,20666],[76.9,20790],[79.2,20883],[79.9,20982],[80.1,21082],[80.3,21182],[80.3,21283],[80.3,21382],[80.3,21483],[80.3,21582],[80.3,21683],[80.3,21783],[80.3,21883],[80.3,21983],[80.3,22083],[80.3,22183],[80.3,22282],[80.3,22383],[80.3,22483],[80.3,22583],[80.3,22682],[80.3,22783],[80.3,22894],[80.3,22983],[80.3,23083],[80.3,23182],[80.3,23283],[80.3,23382],[80.3,23483],[80.3,23582],[80.3,23683],[80.3,23783],[80.3,23883],[80.3,23983],[80.3,24083],[80.3,24184],[80.3,24282],[80.3,24383],[80.3,24482],[79.9,24583],[65.6,24683],[62.8,24783],[62.6,24883],[60.1,24983],[60.3,25082],[60.8,25183],[60.8,25282],[60.8,25382],[60.8,25483],[60.8,25582],[60.8,25683],[60.8,25782],[60.8,25883],[60.8,25983],[60.8,26083],[60.8,26183],[60.3,26284],[59.2,26383],[58.3,26484],[57.8,26582],[57.8,26683],[57.8,26783],[57.8,26882],[57.8,26983],[57.8,27083],[57.8,27182],[57.8,27283],[57.8,27383],[57.8,27483],[57.8,27582],[57.8,27683],[57.8,27831],[58.1,28067],[58.1,28166],[58.1,28266],[58.1,28365],[58.1,28466]]",1,0,1078.898,1081.444,67.91666667,1.526,"[{""rating"":67.91666666666667,""responseTime"":1.52599999999984}]",space,1.999,,1081.444,All the time,100,1081.458,,,[],,0,11,11,11,1,audio/Narrative8Situation2.wav,audio/Narrative7Situation2.wav,audio/Narrative6Situation2.wav,audio/Narrative5Situation2.wav,3,3,3,3,,,,,,,,,,,,,,,,,,,,,,,,,,,,,,,,,,,,,,,
,,,,,,663a5d5b61177a372e6f7452,2024-05-13_08h27.08.127,group3.1-3.2-social-tom,2023.2.2,MacIntel,76.92307692,65c5074098b851296ff0b7ed,664230fd91c9f13387da9f31,,,,,,,,,,,,,,,,,,,,,,,,,,,,,1081.458,2,audio/Narrative6Situation3.wav,1086.461,,1086.461,1099.093,"[[999,0],[999,105],[999,211],[999,312],[999,405],[999,507],[999,605],[999,707],[999,807],[999,914],[999,1013],[999,1106],[999,1211],[999,1312],[999,1406],[999,1512],[999,1606],[999,1711],[999,1806],[999,1905],[999,2000],[999,2099],[999,2200],[999,2298],[999,2400],[999,2499],[999,2600],[999,2699],[999,2799],[999,2900],[999,3000],[999,3100],[999,3199],[999,3299],[999,3399],[999,3500],[999,3599],[999,3700],[999,3798],[999,3900],[999,4000],[999,4100],[999,4200],[999,4298],[999,4399],[999,4499],[999,4599],[999,4699],[999,4799],[999,4900],[999,4999],[999,5100],[999,5199],[999,5299],[999,5399],[999,5500],[999,5599],[999,5700],[999,5798],[999,5900],[999,5999],[999,6099],[999,6200],[999,6298],[999,6400],[999,6499],[999,6600],[999,6700],[999,6812],[999,6936],[999,7034],[999,7133],[999,7231],[999,7332],[999,7432],[999,7533],[999,7633],[41.8,7733],[30.4,8031],[30.3,8133],[30.4,8233],[64.9,8634],[65.7,8733],[65.7,8832],[65.7,8932],[66.8,9034],[67.1,9132],[67.1,9233],[67.1,9333],[67.1,9432],[67.1,9531],[67.1,9632],[67.1,9733],[67.1,9833],[67.1,9932],[67.1,10033],[67.1,10133],[67.4,10231],[68.6,10335],[68.8,10432],[68.8,10531],[68.8,10632],[70.7,10731],[71.8,10833],[71.8,10932],[71.8,11031],[72.2,11133],[72.2,11233],[72.2,11332],[72.1,11432],[72.1,11531],[72.1,11632],[72.1,11731],[71.9,11834],[71.9,11932],[71.9,12033],[71.9,12132],[71.9,12231],[71.9,12333],[71.9,12432],[71.9,12528],[71.9,12615]]",1,0,1099.093,1104.777,64.86111111,4.568,"[{""rating"":64.86111111111111,""responseTime"":4.567999999999984}]",space,5.151,,1104.777,Half the time,50,1104.791,,,[],,0,12,12,12,1,audio/Narrative8Situation3.wav,audio/Narrative7Situation3.wav,audio/Narrative6Situation3.wav,audio/Narrative5Situation3.wav,4,8,5,3,,,,,,,,,,,,,,,,,,,,,,,,,,,,,,,,,,,,,,,
,,,,,,663a5d5b61177a372e6f7452,2024-05-13_08h27.08.127,group3.1-3.2-social-tom,2023.2.2,MacIntel,76.92307692,65c5074098b851296ff0b7ed,664230fd91c9f13387da9f31,,,,,,,,,,,,,,,,,,,,,,,,,,,,,1104.791,2,audio/Narrative6Situation4.wav,1106.793,,1106.793,1119.41,"[[999,0],[999,99],[999,199],[999,299],[999,389],[999,495],[999,599],[999,703],[999,799],[999,914],[999,1013],[999,1115],[999,1216],[999,1317],[999,1415],[999,1517],[999,1615],[999,1716],[999,1817],[999,1915],[999,2017],[999,2116],[999,2216],[999,2317],[999,2417],[999,2517],[999,2616],[999,2715],[999,2817],[999,2916],[999,3018],[999,3116],[999,3216],[999,3317],[999,3416],[999,3518],[999,3615],[999,3716],[999,3816],[999,3916],[999,4017],[999,4116],[999,4216],[999,4317],[999,4416],[999,4517],[999,4616],[999,4715],[999,4817],[999,4915],[999,5017],[999,5116],[999,5216],[999,5317],[999,5416],[999,5517],[999,5616],[999,5716],[999,5817],[999,5916],[999,6017],[999,6116],[999,6216],[999,6317],[999,6416],[999,6517],[999,6617],[999,6715],[999,6817],[999,6916],[999,7019],[999,7121],[999,7228],[999,7326],[999,7432],[59.7,7532],[60,7634],[60.6,7732],[62.8,7834],[65.6,7932],[68.2,8033],[68.2,8134],[68.2,8233],[68.2,8332],[68.2,8433],[68.2,8532],[68.2,8634],[68.2,8732],[68.2,8834],[68.2,8933],[68.2,9033],[68.2,9134],[68.2,9233],[68.2,9332],[68.2,9433],[68.2,9533],[68.2,9633],[68.2,9733],[68.2,9832],[68.2,9933],[68.2,10033],[68.2,10134],[68.2,10232],[68.2,10334],[68.2,10432],[68.2,10533],[68.2,10634],[68.2,10732],[68.2,10834],[68.2,10932],[68.2,11033],[68.2,11133],[68.2,11233],[68.2,11334],[68.2,11432],[68.2,11532],[68.2,11633],[68.2,11733],[68.2,11832],[68.2,11932],[68.2,12032],[68.2,12134],[68.2,12233],[68.2,12334],[68.2,12433],[68.2,12530],[68.2,12616]]",1,0,1119.411,1121.294,55.55555556,1.046,"[{""rating"":55.55555555555556,""responseTime"":1.0460000000000491}]",space,1.336,,1121.294,All the time,100,1121.307,,,[],,0,13,13,13,1,audio/Narrative8Situation4.wav,audio/Narrative7Situation4.wav,audio/Narrative6Situation4.wav,audio/Narrative5Situation4.wav,3,3,2,1,,,,,,,,,,,,,,,,,,,,,,,,,,,,,,,,,,,,,,,
,,,,,,663a5d5b61177a372e6f7452,2024-05-13_08h27.08.127,group3.1-3.2-social-tom,2023.2.2,MacIntel,76.92307692,65c5074098b851296ff0b7ed,664230fd91c9f13387da9f31,,,,,,,,,,,,,,,,,,,,,,,,,,,,,1121.307,2,audio/Narrative6Situation5.wav,1123.311,,1123.311,1131.277,"[[54.9,1400],[52.9,3198],[48.9,3298],[46.3,3398],[47.1,3499],[47.4,3598],[44.6,3698],[44.3,3798],[53.5,3899],[59.9,3999],[62.6,4099],[64.4,4197],[68.2,4303],[69.3,4398],[69.4,4497],[69.4,4599],[69.4,4698],[69.4,4798],[69.4,4898],[69.4,4997],[69.4,5097],[69.4,5197],[69.4,5298],[69.4,5397],[69.4,5499],[69.4,5597],[69.4,5697],[69.4,5798],[69.4,5898],[69.4,5999],[69.4,6098],[69.4,6198],[69.4,6298],[69.4,6398],[69.4,6497],[69.4,6598],[69.4,6698],[69.4,6798],[69.4,6898],[69.4,6999],[69.4,7098],[71.5,7199],[74,7298],[79.4,7398],[79.7,7497],[79.7,7597],[79.7,7698],[79.7,7798],[79.7,7894]]",1,0,1131.277,1133.644,75.97222222,1.378,"[{""rating"":75.97222222222221,""responseTime"":1.3780000000001564}]",space,1.822,,1133.644,Not at all,0,1133.657,,,[],,0,14,14,14,1,audio/Narrative8Situation5.wav,audio/Narrative7Situation5.wav,audio/Narrative6Situation5.wav,audio/Narrative5Situation5.wav,2,5,2,5,,,,,,,,,,,,,,,,,,,,,,,,,,,,,,,,,,,,,,,
,,,,,,663a5d5b61177a372e6f7452,2024-05-13_08h27.08.127,group3.1-3.2-social-tom,2023.2.2,MacIntel,76.92307692,65c5074098b851296ff0b7ed,664230fd91c9f13387da9f31,,,,,,,,,,,,,,,,,,,,,,,,,,,,,1133.658,2,audio/Narrative6Situation6.wav,1135.66,,1135.66,1146.745,"[[74.3,1107],[53.9,2817],[47.1,2915],[41.9,3317],[42.1,3416],[45,3516],[45.3,3616],[32.2,7516],[32.2,7616],[34,7715],[36.1,7816],[36.1,7915],[34.9,8017],[32.8,8115],[32.6,8217],[32.6,8316],[32.6,8415],[32.6,8516],[32.6,8616],[32.6,8715],[32.6,8817],[32.6,8916],[32.6,9016],[32.6,9116],[32.6,9215],[32.6,9317],[32.6,9415],[32.6,9517],[32.6,9615],[32.6,9717],[32.6,9816],[49.7,9934],[60.7,10034],[64.2,10136],[66.9,10248],[67.6,10350],[67.8,10449],[67.6,10549],[66.9,10651],[64.6,10751],[62.2,10849],[62.2,10949],[62.4,11046]]",1,0,1146.745,1148.543,45.55555556,1.014,"[{""rating"":45.55555555555556,""responseTime"":1.0139999999998963}]",space,1.245,,1148.543,Half the time,50,1148.557,,,[],,0,15,15,15,1,audio/Narrative8Situation6.wav,audio/Narrative7Situation6.wav,audio/Narrative6Situation6.wav,audio/Narrative5Situation6.wav,2,3,2,3,,,,,,,,,,,,,,,,,,,,,,,,,,,,,,,,,,,,,,,
,,,,,,663a5d5b61177a372e6f7452,2024-05-13_08h27.08.127,group3.1-3.2-social-tom,2023.2.2,MacIntel,76.92307692,65c5074098b851296ff0b7ed,664230fd91c9f13387da9f31,,,,,,,,,,,,,,,,,,,,,,,,,,,,,1148.557,2,audio/Narrative6Situation7.wav,1153.56,,1153.56,1178.426,"[[999,0],[999,115],[999,215],[999,315],[999,413],[999,510],[999,600],[999,698],[999,799],[999,898],[999,1000],[999,1099],[999,1199],[999,1299],[999,1398],[999,1498],[999,1598],[999,1699],[999,1799],[999,1899],[999,2000],[999,2098],[999,2199],[999,2298],[999,2399],[999,2498],[999,2599],[999,2699],[999,2799],[999,2899],[999,3000],[999,3099],[999,3199],[999,3299],[999,3398],[999,3500],[999,3599],[999,3699],[999,3798],[999,3899],[999,4000],[999,4099],[999,4199],[999,4299],[999,4400],[999,4516],[999,4615],[999,4715],[999,4815],[999,4915],[999,5017],[999,5115],[999,5215],[19.2,5314],[19,5415],[19,5515],[19,5615],[19,5714],[19,5815],[19,5915],[19,6015],[19,6115],[19,6215],[19,6315],[19,6415],[19,6515],[19,6615],[19,6715],[19,6814],[19,6915],[19,7014],[19,7115],[19,7214],[19,7315],[19,7415],[19,7515],[19,7615],[19,7715],[19,7815],[19,7915],[19,8015],[19,8115],[20.7,8214],[67.2,8315],[69.7,8415],[69.7,8515],[69.7,8615],[69.7,8715],[69.7,8815],[69.7,8915],[69.7,9014],[69.7,9115],[69.7,9216],[69.7,9315],[69.7,9415],[69.7,9515],[69.7,9615],[69.7,9721],[69.7,9815],[69.7,9915],[69.7,10015],[69.7,10115],[69.7,10215],[69.7,10314],[69.7,10415],[69.7,10515],[69.7,10615],[69.7,10715],[69.7,10815],[69.7,10915],[69.7,11015],[69.7,11115],[69.7,11215],[69.7,11315],[69.7,11415],[69.7,11515],[69.7,11615],[69.7,11716],[69.7,11815],[69.7,11915],[69.7,12015],[69.7,12116],[69.7,12215],[69.7,12315],[69.7,12415],[69.7,12514],[69.7,12615],[70.3,12715],[70.7,12815],[70.7,12915],[70.7,13015],[70.7,13115],[70.7,13215],[70.7,13315],[70.7,13415],[70.7,13515],[70.7,13615],[70.7,13715],[70.7,13814],[70.7,13915],[70.7,14015],[70.7,14115],[70.7,14215],[70.7,14314],[70.7,14415],[70.7,14514],[70.7,14615],[70.7,14714],[70.7,14815],[70.7,14915],[70.7,15015],[70.7,15115],[70.7,15215],[70.7,15315],[70.7,15415],[70.7,15515],[70.7,15615],[70.7,15715],[70.7,15814],[70.7,15915],[70.7,16015],[70.7,16115],[70.7,16215],[73.3,16315],[77.6,16417],[78.8,16517],[79,16623],[79,16721],[79,16828],[79,16924],[79,17027],[79,17121],[79,17221],[79,17321],[79,17421],[79,17526],[79,17621],[79,17725],[79,17823],[79,17923],[79,18021],[79,18120],[79,18223],[79,18321],[79,18423],[79,18521],[79,18622],[79,18728],[79,18821],[79,18921],[79,19020],[79,19122],[79,19227],[79,19323],[79,19423],[79,19519],[79,19620],[79,19727],[79,19823],[79,19927],[79,20025],[79,20130],[79,20225],[79,20328],[79,20425],[79,20521],[79,20622],[79,20723],[79,20823],[79,20923],[85.8,21029],[87.2,21121],[87.2,21223],[87.2,21321],[87.2,21430],[87.4,21529],[87.9,21632],[87.9,21731],[87.9,21831],[87.9,21932],[87.9,22032],[87.9,22132],[87.9,22231],[87.9,22332],[87.9,22432],[87.9,22531],[87.9,22632],[87.9,22731],[87.9,22831],[87.9,22932],[87.9,23032],[87.9,23132],[87.9,23231],[87.9,23332],[87.9,23432],[87.9,23532],[87.9,23631],[87.9,23731],[87.9,23831],[87.9,23932],[87.9,24032],[87.9,24131],[87.9,24232],[87.9,24331],[87.9,24432],[87.9,24532],[87.9,24631],[87.9,24731],[87.9,24831]]",1,0,1178.426,1180.892,79.30555556,1.098,"[{""rating"":79.30555555555556,""responseTime"":1.0979999999999563}]",space,1.935,,1180.892,Half the time,50,1180.9,,,[],,0,16,16,16,1,audio/Narrative8Situation7.wav,audio/Narrative7Situation7.wav,audio/Narrative6Situation7.wav,audio/Narrative5Situation7.wav,3,5,5,4,,,,,,,,,,,,,,,,,,,,,,,,,,,,,,,,,,,,,,,
,,,,,,663a5d5b61177a372e6f7452,2024-05-13_08h27.08.127,group3.1-3.2-social-tom,2023.2.2,MacIntel,76.92307692,65c5074098b851296ff0b7ed,664230fd91c9f13387da9f31,,,,,,,,,,,,,,,,,,,,,,,,,,,,,1180.901,2,audio/Narrative6Situation8.wav,1185.909,,1185.909,1192.762,"[[999,0],[999,113],[999,206],[999,312],[999,406],[999,512],[999,608],[999,713],[999,812],[999,917],[999,1016],[999,1115],[999,1216],[999,1317],[999,1416],[999,1517],[999,1616],[999,1716],[999,1817],[999,1916],[999,2016],[999,2115],[999,2215],[999,2317],[999,2416],[999,2517],[999,2615],[999,2716],[999,2816],[999,2915],[999,3017],[999,3115],[999,3216],[999,3316],[999,3416],[999,3517],[999,3616],[999,3716],[999,3816],[999,3916],[999,4017],[999,4116],[999,4215],[999,4316],[999,4415],[999,4516],[999,4616],[999,4716],[999,4817],[999,4916],[999,5017],[999,5115],[999,5216],[999,5316],[999,5416],[999,5516],[999,5616],[999,5716],[999,5817],[999,5916],[999,6016],[999,6116],[999,6215],[999,6317],[999,6416],[999,6516],[999,6616],[999,6716],[999,6818]]",1,0,1192.762,1205.842,7.222222222,11.892,"[{""rating"":7.222222222222224,""responseTime"":11.891999999999825}]",space,12.537,,1205.842,All the time,100,1205.856,,,[],,0,17,17,17,1,audio/Narrative8Situation8.wav,audio/Narrative7Situation8.wav,audio/Narrative6Situation8.wav,audio/Narrative5Situation8.wav,3,2,5,3,,,,,,,,,,,,,,,,,,,,,,,,,,,,,,,,,,,,,,,
,,,,,,663a5d5b61177a372e6f7452,2024-05-13_08h27.08.127,group3.1-3.2-social-tom,2023.2.2,MacIntel,76.92307692,65c5074098b851296ff0b7ed,664230fd91c9f13387da9f31,,,,,,,,,,,,,,,,,,,,,,,,,,,,,1205.856,2,audio/Narrative6Situation9.wav,1209.859,,1209.859,1219.82,"[[999,0],[999,98],[999,198],[999,299],[999,383],[999,481],[999,582],[999,682],[999,782],[999,898],[999,996],[999,1089],[999,1188],[999,1290],[999,1395],[999,1489],[999,1589],[999,1694],[999,1788],[999,1895],[999,1987],[999,2082],[999,2181],[999,2282],[999,2383],[999,2482],[999,2582],[999,2682],[999,2783],[999,2883],[999,2981],[999,3081],[999,3181],[999,3281],[999,3383],[999,3484],[999,3582],[999,3684],[999,3781],[999,3883],[999,3981],[999,4082],[999,4181],[999,4282],[999,4383],[999,4481],[999,4582],[999,4682],[999,4782],[999,4881],[999,4982],[999,5082],[999,5182],[999,5281],[66.7,5384],[71.4,5482],[71.4,5582],[71.4,5681],[71.8,5781],[76.7,5883],[76.8,5982],[76.8,6082],[76.8,6181],[76.8,6281],[76.8,6381],[76.8,6481],[76.8,6582],[76.8,6682],[76.8,6781],[76.8,6883],[76.8,6982],[76.8,7082],[76.8,7182],[76.8,7281],[76.8,7383],[76.8,7481],[76.8,7581],[76.8,7682],[76.8,7782],[76.8,7883],[76.8,7982],[76.8,8081],[76.8,8181],[78.2,8281],[78.6,8383],[79.6,8483],[80.3,8582],[80.6,8682],[80.6,8782],[80.6,8881],[80.6,8982],[80.6,9081],[80.6,9182],[80.6,9281],[80.6,9383],[80.6,9482],[80.6,9582],[80.6,9681],[80.6,9781],[80.6,9878]]",1,0,1219.82,1221.759,86.38888889,1.203,"[{""rating"":86.38888888888889,""responseTime"":1.2029999999999745}]",space,1.399,,1221.759,All the time,100,1221.77,,,[],,0,18,18,18,1,audio/Narrative8Situation9.wav,audio/Narrative7Situation9.wav,audio/Narrative6Situation9.wav,audio/Narrative5Situation9.wav,3,2,4,3,,,,,,,,,,,,,,,,,,,,,,,,,,,,,,,,,,,,,,,
,,,,,,663a5d5b61177a372e6f7452,2024-05-13_08h27.08.127,group3.1-3.2-social-tom,2023.2.2,MacIntel,76.92307692,65c5074098b851296ff0b7ed,664230fd91c9f13387da9f31,,,,,,,,,,,,,,,,,,,,,,,,,,,,,,,,,,,,,,,,,,,,,,,,,,,,,,,,,,,,,,,,,,,,,,,,1221.77,1232.244,space,9.951,,1232.245,1247.46,space,14.884,,,,,,,,,,,,,,,,,,,,,,,,,,
,,,,,,663a5d5b61177a372e6f7452,2024-05-13_08h27.08.127,group3.1-3.2-social-tom,2023.2.2,MacIntel,76.92307692,65c5074098b851296ff0b7ed,664230fd91c9f13387da9f31,,,,,,,,,,,,,,,,,,,,,,,,,,,,,1250.062,1,audio/Narrative8Situation9.wav,1252.076,,,,,,,1283.974,1287.874,64.72222222,2.816,"[{""rating"":64.72222222222223,""responseTime"":2.816000000000031}]",space,3.359,,1283.959,Half the time,50,1283.974,,,[],,,,,,,,,,,2,2,2,2,,,,,,,,,,,,,,,1247.464,1250.042,1252.076,3,1283.959,"[[999,9],[999,182],[999,282],[999,382],[999,481],[999,582],[999,682],[999,782],[999,882],[999,981],[999,1082],[999,1182],[999,1282],[999,1382],[999,1481],[999,1582],[999,1682],[999,1782],[999,1882],[999,1981],[999,2082],[999,2182],[999,2283],[999,2381],[999,2481],[999,2582],[999,2682],[999,2782],[999,2882],[999,2981],[999,3081],[999,3182],[999,3282],[999,3386],[999,3481],[999,3585],[999,3682],[999,3780],[999,3882],[999,3981],[999,4082],[999,4181],[999,4282],[999,4382],[999,4482],[999,4582],[999,4682],[999,4780],[999,4882],[999,4984],[999,5082],[999,5182],[999,5280],[999,5382],[999,5485],[55.7,5584],[55.7,5682],[53.1,5780],[51.1,5883],[51.1,5981],[50.6,6083],[49,6182],[49.2,6283],[49.3,6381],[49,6481],[44.6,6581],[43.3,6682],[43.3,6780],[41.9,6881],[29.3,6986],[29,7082],[29.3,7182],[29.3,7282],[29.4,7382],[29.4,7480],[29.7,7582],[31.4,7682],[32.1,7782],[32.1,7881],[32.1,7981],[34,8083],[41.9,8182],[44.4,8282],[44.4,8381],[44.4,8481],[44.4,8581],[44.9,8682],[45.1,8782],[45.1,8882],[45.1,8981],[45.3,9081],[55.1,9182],[58.3,9291],[64.6,9401],[66.3,9499],[66.4,9599],[66.4,9699],[66.4,9798],[66.4,9899],[66.4,9998],[66.4,10100],[66.4,10198],[66.4,10298],[66.4,10398],[66.4,10499],[66.4,10599],[66.4,10698],[66.4,10798],[66.4,10899],[66.4,10999],[66.4,11097],[66.4,11199],[66.4,11298],[66.4,11399],[66.4,11498],[66.4,11599],[66.4,11699],[66.7,11799],[70.7,11899],[74.9,12000],[75.4,12099],[75.4,12198],[75.4,12298],[75.4,12398],[75.4,12499],[75.4,12600],[75.4,12701],[75.4,12801],[75.4,12899],[75.4,13000],[75.4,13097],[75.4,13199],[75.4,13298],[75.4,13399],[75.4,13498],[75.4,13599],[75.4,13698],[75.4,13798],[75.4,13899],[75.4,13999],[75.4,14099],[75.4,14198],[75.4,14298],[75.4,14399],[75.4,14499],[75.4,14597],[75.4,14698],[75.1,14839],[75,14940],[75,15039],[75,15144],[74.9,15245],[74.9,15341],[74.9,15446],[74.9,15539],[74.9,15641],[74.9,15748],[74.9,15850],[78.3,15957],[80.3,16065],[80.1,16164],[80,16265],[80,16365],[80,16464],[80,16565],[80,16664],[80,16765],[80,16865],[80,16964],[80,17066],[80,17164],[80,17265],[80,17365],[80,17464],[80,17565],[80,17664],[80,17765],[80,17865],[80,17964],[80,18065],[75.3,18166],[60.1,18265],[58.8,18365],[58.8,18464],[58.3,18567],[57.4,18664],[57.4,18765],[55.7,18865],[53.8,18964],[53.8,19065],[53.8,19164],[53.8,19265],[53.8,19365],[49.4,19466],[48.8,19565],[48.8,19664],[48.8,19765],[48.8,19865],[48.8,19964],[48.8,20065],[48.8,20166],[48.8,20265],[48.8,20365],[48.8,20464],[48.8,20565],[48.8,20664],[48.8,20765],[48.8,20865],[48.8,20966],[48.8,21065],[48.8,21164],[48.8,21265],[48.8,21365],[48.8,21464],[48.8,21566],[48.8,21664],[48.8,21765],[48.8,21865],[48.8,21964],[48.8,22065],[48.8,22164],[48.8,22265],[48.8,22365],[48.8,22464],[48.8,22565],[48.8,22664],[48.9,22766],[49,22864],[49.2,22964],[49.2,23065],[49.2,23164],[49.2,23265],[49.2,23368],[49.4,23467],[50.1,23565],[50.1,23664],[50.1,23764],[50.1,23865],[50.1,23964],[50.1,24068],[44.7,24164],[39.3,24265],[39.2,24365],[39.2,24464],[39.2,24565],[35.8,24664],[33.2,24765],[33.3,24865],[33.3,24964],[33.3,25065],[33.3,25164],[33.3,25266],[33.3,25365],[33.3,25464],[33.3,25565],[33.3,25664],[33.3,25765],[33.3,25865],[33.3,25964],[33.3,26070],[33.3,26166],[33.3,26265],[33.3,26365],[33.3,26464],[33.3,26565],[33.3,26664],[33.3,26765],[33.3,26865],[33.3,26964],[33.3,27065],[33.3,27164],[33.3,27266],[33.3,27365],[33.5,27464],[34.3,27566],[34.7,27664],[35.1,27765],[35.7,27866],[36.3,27964],[36.8,28066],[37.5,28166],[38.8,28266],[39.7,28365],[45.7,28466],[50.3,28566],[53.9,28664],[58.1,28766],[61.1,28864],[61.4,28964],[61.4,29065],[61.4,29164],[61.4,29265],[61.4,29365],[61.4,29464],[61.4,29565],[61.4,29663],[61.4,29795],[61.4,29898],[61.4,29995],[61.4,30099],[61.4,30198],[61.4,30298],[61.4,30399],[61.4,30498],[61.4,30597],[61.4,30698],[61.4,30798],[61.4,30898],[61.4,30998],[61.4,31105],[61.4,31198],[61.4,31298],[61.4,31400],[61.4,31498],[61.4,31597],[61.4,31699],[61.4,31798]]",0,0,0,0,1,"Larry had recently lost his family, job and home, and was now living on his own in the park. He had most of his belongings, including some clothes, a blanket, and his mother’s special necklace. His family had been very important to him and he felt as though he did not have much going for him. One of his first days in the park he came across a family that did not have much food and looked very cold. He decided to give them some of his food and his blanket.","Larry had recently lost his family, job and home, and was now living on his own in the park. He had most of his belongings, including some clothes, a blanket, and his mother’s special necklace. His family had been very important to him and he felt as though he did not have much going for him. One of his first days in the park he came across a family that did not have much food and looked very cold. He decided to give them some of his food and his blanket.","Larry had recently lost his family, job and home, and was now living on his own in the park. He had most of his belongings, including some clothes, a blanket, and his mother’s special necklace. His family had been very important to him and he felt as though he did not have much going for him. One of his first days in the park he came across a family that did not have much food and looked very cold. He decided to give them some of his food and his blanket.","Larry had recently lost his family, job and home, and was now living on his own in the park. He had most of his belongings, including some clothes, a blanket, and his mother’s special necklace. His family had been very important to him and he felt as though he did not have much going for him. One of his first days in the park he came across a family that did not have much food and looked very cold. He decided to give them some of his food and his blanket.",,,,,,,,,,
