exp_question,consent.started,consent.stopped,consentResponse.keys,consentResponse.rt,consentResponse.duration,participantID,date,expName,psychopyVersion,OS,frameRate,STUDY_ID,SESSION_ID,opening1.started,opening1.stopped,keyEndingOpening1.keys,keyEndingOpening1.rt,keyEndingOpening1.duration,volumeAdjust.started,volumeAdjust.stopped,endingAdjust.keys,endingAdjust.rt,endingAdjust.duration,opening2.started,opening2.stopped,keyEndingOpening.keys,keyEndingOpening.rt,keyEndingOpening.duration,mouse.x,mouse.y,mouse.leftButton,mouse.midButton,mouse.rightButton,mouse.time,instructionLoop.thisRepN,instructionLoop.thisTrialN,instructionLoop.thisN,instructionLoop.thisIndex,instructionLoop.ran,readyForAudio.started,readyForAudio.stopped,fixation.started,run,audio_played,fixation.stopped,endPractice.keys,audioPre.started,audioPre.stopped,continuousResponses_audio,continuousSlider.response,continuousSlider.rt,intRating.started,intRating.stopped,intQuestionSlider.response,intQuestionSlider.rt,intQuestionSlider.history,confirmResponse.keys,confirmResponse.rt,confirmResponse.duration,catchQuestion.started,catch_label,catch_value,catchQuestion.stopped,catchQuestionSlider.response,catchQuestionSlider.rt,catchQuestionSlider.history,confirmResponse_2.keys,audioRunLoop.thisRepN,audioRunLoop.thisTrialN,audioRunLoop.thisN,audioRunLoop.thisIndex,audioRunLoop.ran,conditions1_1,conditions2_1,conditions1_2,conditions2_2,dur1_1,dur2_1,dur1_2,dur2_2,endPractice.rt,endPractice.duration,confirmResponse_2.rt,confirmResponse_2.duration,runIntervalBreak.started,runIntervalBreak.stopped,endingBreakKey.keys,endingBreakKey.rt,endingBreakKey.duration,connection.started,connection.stopped,connectionEnding.keys,connectionEnding.rt,connectionEnding.duration,readyForText.started,readyForText.stopped,textPre.started,run_dup,textPre.stopped,continuousResponses_text,textRunLoop.thisRepN,textRunLoop.thisTrialN,textRunLoop.thisN,textRunLoop.thisIndex,textRunLoop.ran,text1_1,text1_2,text2_1,text2_2,runBreakText.started,runBreakText.stopped,endingBreakKey_2.keys,endingBreakKey_2.rt,endingBreakKey_2.duration,ending.started,ending.stopped,endingEnding.keys,endingEnding.rt,endingEnding.duration
social,0.0007,30.3767,y,30.0489,,663cc6b84e65d79a540bec7e,2024-05-13_11h41.14.024,group3.1-3.2-social-tom,2023.2.2,Win32,59.88023952,65c5074098b851296ff0b7ed,664234341b97d5bbcd6e46bd,,,,,,,,,,,,,,,,,,,,,,,,,,,,,,,,,,,,,,,,,,,,,,,,,,,,,,,,,,,,,,,,,,,,,,,,,,,,,,,,,,,,,,,,,,,,,,,,,,,,,,,,,,
,,,,,,663cc6b84e65d79a540bec7e,2024-05-13_11h41.14.024,group3.1-3.2-social-tom,2023.2.2,Win32,59.88023952,65c5074098b851296ff0b7ed,664234341b97d5bbcd6e46bd,30.3773,37.636,space,7.2036,,,,,,,,,,,,,,,,,,,,,,,,,,,,,,,,,,,,,,,,,,,,,,,,,,,,,,,,,,,,,,,,,,,,,,,,,,,,,,,,,,,,,,,,,,,,,,,,,,,,,,
,,,,,,663cc6b84e65d79a540bec7e,2024-05-13_11h41.14.024,group3.1-3.2-social-tom,2023.2.2,Win32,59.88023952,65c5074098b851296ff0b7ed,664234341b97d5bbcd6e46bd,,,,,,37.6362,83.4601,space,45.4913,,,,,,,,,,,,,,,,,,,,,,,,,,,,,,,,,,,,,,,,,,,,,,,,,,,,,,,,,,,,,,,,,,,,,,,,,,,,,,,,,,,,,,,,,,,,,,,,,
,,,,,,663cc6b84e65d79a540bec7e,2024-05-13_11h41.14.024,group3.1-3.2-social-tom,2023.2.2,Win32,59.88023952,65c5074098b851296ff0b7ed,664234341b97d5bbcd6e46bd,,,,,,,,,,,83.4901,95.9302,space,12.4004,,[],[],[],[],[],[],0,0,0,0,1,,,,,,,,,,,,,,,,,,,,,,,,,,,,,,,,,,,,,,,,,,,,,,,,,,,,,,,,,,,,,,,,,,,,,,,,,,,,,,,,
,,,,,,663cc6b84e65d79a540bec7e,2024-05-13_11h41.14.024,group3.1-3.2-social-tom,2023.2.2,Win32,59.88023952,65c5074098b851296ff0b7ed,664234341b97d5bbcd6e46bd,,,,,,,,,,,95.9549,119.1165,space,22.927,,[],[],[],[],[],[],1,0,1,0,1,,,,,,,,,,,,,,,,,,,,,,,,,,,,,,,,,,,,,,,,,,,,,,,,,,,,,,,,,,,,,,,,,,,,,,,,,,,,,,,,
,,,,,,663cc6b84e65d79a540bec7e,2024-05-13_11h41.14.024,group3.1-3.2-social-tom,2023.2.2,Win32,59.88023952,65c5074098b851296ff0b7ed,664234341b97d5bbcd6e46bd,,,,,,,,,,,119.1357,159.9498,space,40.7364,,[],[],[],[],[],[],2,0,2,0,1,,,,,,,,,,,,,,,,,,,,,,,,,,,,,,,,,,,,,,,,,,,,,,,,,,,,,,,,,,,,,,,,,,,,,,,,,,,,,,,,
,,,,,,663cc6b84e65d79a540bec7e,2024-05-13_11h41.14.024,group3.1-3.2-social-tom,2023.2.2,Win32,59.88023952,65c5074098b851296ff0b7ed,664234341b97d5bbcd6e46bd,,,,,,,,,,,159.9696,208.5833,space,48.5768,,[],[],[],[],[],[],3,0,3,0,1,,,,,,,,,,,,,,,,,,,,,,,,,,,,,,,,,,,,,,,,,,,,,,,,,,,,,,,,,,,,,,,,,,,,,,,,,,,,,,,,
,,,,,,663cc6b84e65d79a540bec7e,2024-05-13_11h41.14.024,group3.1-3.2-social-tom,2023.2.2,Win32,59.88023952,65c5074098b851296ff0b7ed,664234341b97d5bbcd6e46bd,,,,,,,,,,,208.6013,225.6159,space,16.9895,,[],[],[],[],[],[],4,0,4,0,1,,,,,,,,,,,,,,,,,,,,,,,,,,,,,,,,,,,,,,,,,,,,,,,,,,,,,,,,,,,,,,,,,,,,,,,,,,,,,,,,
,,,,,,663cc6b84e65d79a540bec7e,2024-05-13_11h41.14.024,group3.1-3.2-social-tom,2023.2.2,Win32,59.88023952,65c5074098b851296ff0b7ed,664234341b97d5bbcd6e46bd,,,,,,,,,,,,,,,,,,,,,,,,,,,225.6363,228.2176,228.263,1,audio/Narrative13Situation2.wav,230.2758,,230.2766,260.0334,"[[999,6],[999,231],[999,315],[999,399],[999,481],[999,565],[999,648],[999,734],[999,817],[999,900],[999,984],[999,1067],[999,1150],[999,1234],[999,1318],[999,1402],[999,1486],[999,1568],[999,1654],[999,1736],[999,1820],[999,1903],[999,1987],[999,2070],[999,2153],[999,2238],[999,2321],[999,2405],[999,2489],[999,2571],[999,2656],[999,2740],[999,2822],[999,2907],[999,2991],[999,3073],[999,3158],[999,3240],[999,3324],[999,3408],[999,3492],[999,3576],[999,3660],[999,3743],[999,3828],[999,3911],[999,3994],[999,4077],[999,4160],[999,4245],[999,4327],[999,4412],[999,4496],[999,4580],[999,4662],[999,4746],[999,4829],[999,4920],[999,5005],[999,5089],[999,5171],[999,5256],[999,5340],[999,5423],[999,5506],[999,5589],[999,5674],[999,5756],[999,5841],[999,5925],[999,6008],[999,6092],[999,6174],[999,6259],[999,6341],[999,6426],[999,6502],[999,6593],[999,6670],[999,6759],[999,6843],[999,6922],[999,7006],[999,7094],[999,7178],[999,7464],[999,7890],[999,7975],[999,8078],[999,8325],[999,8391],[999,8475],[999,8560],[999,8643],[999,8727],[999,8810],[999,8893],[999,8978],[999,9061],[999,9146],[999,9227],[999,9312],[999,9396],[999,9480],[999,9564],[999,9647],[999,9730],[999,9814],[999,9896],[999,9981],[999,10063],[999,10149],[999,10232],[999,10316],[999,10399],[999,10483],[999,10565],[999,10651],[999,10735],[999,10825],[999,10908],[999,10991],[999,11076],[999,11158],[999,11243],[999,11325],[999,11409],[999,11495],[999,11576],[999,11660],[999,11744],[999,11827],[999,11912],[999,11997],[999,12077],[999,12162],[999,12245],[999,12329],[999,12414],[999,12497],[999,12580],[999,12665],[999,12747],[999,12866],[999,12987],[999,13098],[999,13233],[999,13319],[999,13400],[999,13485],[999,13567],[999,13651],[999,13737],[999,13818],[999,13902],[999,13986],[999,14070],[999,14153],[999,14238],[999,14320],[999,14405],[100,14513],[100,14582],[100,14665],[100,14749],[100,14832],[100,14916],[100,14999],[100,15083],[100,15166],[100,15249],[100,15333],[100,15417],[100,15500],[100,15583],[100,15668],[100,15750],[100,15835],[100,15919],[100,16002],[100,16086],[100,16168],[100,16252],[100,16337],[100,16419],[100,16504],[100,16588],[100,16671],[100,16755],[100,17907],[100,17978],[100,18061],[100,18145],[100,18232],[100,18311],[100,18396],[100,18483],[100,18567],[100,18650],[100,18734],[100,18810],[100,18901],[100,18985],[100,19069],[100,19152],[100,19233],[100,19316],[100,19403],[100,19486],[100,19570],[100,19653],[100,19733],[100,19820],[100,19905],[100,19981],[100,20066],[100,20156],[100,20238],[100,20322],[100,20406],[100,20491],[100,20574],[100,20652],[100,20741],[100,20825],[100,20904],[100,20992],[100,21075],[100,21159],[100,21243],[100,21321],[100,21405],[100,21487],[100,21572],[100,21660],[100,21738],[100,21822],[100,21911],[100,21996],[100,22074],[100,22163],[100,22246],[100,22329],[100,22414],[100,22492],[100,22580],[100,22665],[100,22747],[100,22831],[100,22911],[100,22991],[100,23082],[100,23166],[100,23250],[100,23326],[100,23411],[100,23500],[100,23584],[100,23662],[100,23746],[100,23835],[100,23918],[100,24001],[100,24086],[100,24166],[100,24252],[100,24330],[100,24420],[100,24501],[100,24583],[100,24671],[100,24755],[100,24832],[100,24922],[100,25001],[100,25089],[100,25172],[100,25250],[100,25340],[100,25421],[100,25501],[100,25591],[100,25674],[100,25758],[100,25842],[100,25920],[100,26004],[100,26093],[100,26177],[100,26259],[100,26344],[100,26422],[100,26510],[100,26595],[100,26672],[100,26761],[100,26846],[100,26925],[100,27012],[100,27092],[100,27175],[100,27263],[100,27342],[100,27431],[100,27515],[100,27593],[100,27681],[100,27760],[100,27843],[100,27932],[100,28016],[100,28099],[100,28183],[100,28267],[100,28351],[100,28428],[100,28512],[100,28601],[100,28685],[100,28764],[100,28852],[100,28931],[100,29016],[100,29102],[100,29181],[100,29270],[100,29354],[100,29433],[100,29517],[100,29605],[100,29688]]",1,0,260.034,268.6464,99.63396779,4.88,"[{""rating"":99.63396778916544,""responseTime"":4.8799999999999955}]",space,8.0624,,268.6638,Definitely yes,100,268.6755,,,[],,0,0,0,0,1,audio/Narrative13Situation2.wav,audio/Narrative13Situation2.wav,audio/Narrative13Situation2.wav,audio/Narrative13Situation2.wav,2,2,2,2,,,,,,,,,,,,,,,,,,,,,,,,,,,,,,,,,,,,,,,
,,,,,,663cc6b84e65d79a540bec7e,2024-05-13_11h41.14.024,group3.1-3.2-social-tom,2023.2.2,Win32,59.88023952,65c5074098b851296ff0b7ed,664234341b97d5bbcd6e46bd,,,,,,,,,,,,,,,,,,,,,,,,,,,,,268.6761,1,audio/Narrative8Situation1.wav,277.4872,space,277.4874,293.4145,"[[999,19],[999,121],[999,205],[999,288],[999,372],[999,455],[999,539],[999,624],[999,701],[999,791],[999,870],[999,953],[999,1042],[999,1122],[999,1208],[999,1292],[999,1371],[999,1459],[999,1538],[999,1621],[999,1711],[999,1794],[999,1874],[999,1961],[999,2038],[999,2128],[999,2212],[999,2291],[999,2372],[999,2463],[999,2540],[999,2630],[999,2715],[999,2798],[999,2881],[999,2966],[999,3041],[999,3132],[999,3210],[999,3299],[999,3384],[999,3461],[999,3550],[999,3633],[999,3712],[999,3801],[999,3884],[999,3968],[999,4046],[999,4135],[999,4212],[999,4298],[999,4387],[999,4469],[999,4553],[999,4632],[999,4720],[999,4805],[999,4883],[999,4966],[999,5054],[999,5134],[999,5222],[999,5306],[999,5390],[999,5473],[999,5552],[999,5634],[999,5724],[999,5807],[999,5884],[999,5974],[999,6059],[999,6137],[999,6225],[999,6309],[999,6393],[999,6476],[999,6555],[999,6644],[999,6729],[81.6,6831],[59.1,7081],[52.5,7164],[49,7247],[49,7323],[49,7413],[49,7496],[49.4,7582],[49.7,7661],[49.7,7747],[49.7,7827],[50,7915],[50.1,7994],[50.3,8082],[50.3,8159],[50.3,8250],[50.3,8329],[50.3,8416],[50.3,8500],[50.3,8578],[50.3,8667],[50.3,8748],[50.3,8829],[50.3,8918],[50.3,8997],[50.3,9085],[50.3,9166],[50.3,9253],[50.3,9336],[50.3,9415],[50.3,9503],[50.3,9584],[50.3,9671],[50.3,9754],[50.3,9838],[50.3,9922],[50.3,10006],[50.3,10090],[50.3,10173],[50.4,10257],[52.8,10358],[54.8,10442],[57.6,10526],[61.1,10610],[66.3,10694],[71.5,10777],[75,10860],[79.1,10945],[83.1,11028],[83.8,11112],[84.3,11195],[84.8,11278],[86,11362],[87.2,11447],[88.1,11528],[89.4,11614],[90.4,11697],[91.3,11780],[92.6,11864],[93.2,11942],[93.3,12029],[93.9,12114],[94.4,12197],[95.7,12284],[96.1,12365],[96.4,12448],[96.4,12531],[96.4,12608],[96.6,12699],[96.9,12784],[97.4,12867],[97.7,12949],[98.3,13035],[98.9,13117],[98.9,13200],[98.9,13284],[98.9,13367],[98.9,13451],[98.9,13534],[98.9,13617],[98.9,13701],[98.9,13785],[98.9,13869],[98.9,13953],[98.9,14030],[98.9,14119],[98.9,14204],[98.9,14282],[98.9,14370],[98.9,14456],[98.9,14534],[98.9,14621],[98.9,14705],[98.9,14789],[98.9,14873],[98.9,14950],[98.9,15040],[98.9,15124],[98.9,15206],[98.9,15290],[98.9,15368],[98.9,15458],[98.9,15541],[98.9,15620],[98.9,15709],[98.9,15792],[98.9,15877]]",1,0,293.4149,299.0843,99.78038067,4.7822,"[{""rating"":99.78038067349927,""responseTime"":4.782200000000216}]",space,5.1139,,299.0845,Definitely yes,100,299.0891,,,[],,0,1,1,1,1,audio/Narrative7Situation1.wav,audio/Narrative8Situation1.wav,audio/Narrative5Situation1.wav,audio/Narrative6Situation1.wav,2,5,5,2,8.7779,,,,,,,,,,,,,,,,,,,,,,,,,,,,,,,,,,,,,,
,,,,,,663cc6b84e65d79a540bec7e,2024-05-13_11h41.14.024,group3.1-3.2-social-tom,2023.2.2,Win32,59.88023952,65c5074098b851296ff0b7ed,664234341b97d5bbcd6e46bd,,,,,,,,,,,,,,,,,,,,,,,,,,,,,299.0896,1,audio/Narrative8Situation2.wav,302.0944,,302.0945,312.2291,"[[70.4,113],[70.2,200],[70.2,283],[70.2,367],[70.2,450],[70.2,533],[70.2,610],[70.2,697],[70.2,786],[70.2,868],[70.2,952],[70.2,1028],[70.2,1114],[70.2,1203],[70.2,1287],[70.2,1365],[70.2,1453],[70.2,1531],[70.2,1617],[70.2,1706],[70.2,1788],[70.2,1867],[70.2,1955],[70.2,2039],[70.2,2123],[70.2,2207],[70.2,2285],[70.2,2374],[70.2,2454],[70.2,2541],[70.2,2625],[70.2,2703],[70.2,2785],[70.2,2876],[70.2,2960],[70.2,3042],[70.2,3127],[70.2,3211],[70.2,3294],[70.2,3378],[70.2,3460],[70.2,3545],[70.2,3624],[70.2,3712],[70.2,3795],[70.2,3879],[70.2,3959],[70.2,4045],[70.2,4129],[70.2,4213],[70.2,4297],[70.2,4380],[70.2,4459],[70.2,4548],[70.2,4631],[70.2,4715],[70.2,4794],[70.2,4882],[70.2,4966],[70.2,5050],[70.2,5129],[70.2,5217],[70.2,5296],[70.2,5379],[68,5491],[64.3,5569],[62.6,5654],[59.5,5737],[54.7,5820],[51.6,5904],[47.5,5988],[46.9,6069],[46.9,6153],[46.9,6236],[46.9,6314],[48,6406],[49.1,6489],[49.1,6566],[49.1,6654],[49.1,6738],[49.1,6822],[49.1,6900],[49.1,6983],[49.1,7073],[49.1,7153],[49.1,7240],[49.1,7319],[49.1,7403],[49.1,7491],[49.1,7574],[49.1,7653],[49.1,7742],[49.1,7819],[49.1,7909],[49.1,7993],[49.1,8076],[49.1,8159],[49.1,8238],[49.1,8326],[49.1,8411],[49.1,8495],[49.1,8574],[49.1,8661],[49.1,8745],[49.1,8823],[49.1,8913],[49.1,8991],[49.1,9079],[49.1,9163],[49.1,9247],[49.1,9331],[49.1,9414],[49.1,9492],[49.1,9581],[49.1,9660],[49.1,9742],[49.1,9832],[49.1,9912],[49.1,10019],[49.1,10084]]",1,0,312.2293,319.8725,26.57393851,6.8433,"[{""rating"":26.57393850658858,""responseTime"":6.843299999999829}]",space,7.1055,,319.8726,Definitely yes,100,319.8786,,,[],,0,2,2,2,1,audio/Narrative7Situation2.wav,audio/Narrative8Situation2.wav,audio/Narrative5Situation2.wav,audio/Narrative6Situation2.wav,3,3,3,3,,,,,,,,,,,,,,,,,,,,,,,,,,,,,,,,,,,,,,,
,,,,,,663cc6b84e65d79a540bec7e,2024-05-13_11h41.14.024,group3.1-3.2-social-tom,2023.2.2,Win32,59.88023952,65c5074098b851296ff0b7ed,664234341b97d5bbcd6e46bd,,,,,,,,,,,,,,,,,,,,,,,,,,,,,319.8791,1,audio/Narrative8Situation3.wav,323.8854,,323.8855,346.2794,"[[999,20],[999,118],[999,201],[42.7,286],[42.2,955],[42.2,1037],[42.1,1120],[42.1,1205],[42.2,1290],[42.4,1371],[42.4,1454],[42.4,1538],[42.4,1621],[42.4,1705],[42.4,1785],[42.4,1866],[42.4,1957],[42.4,2040],[42.4,2132],[42.4,2202],[42.4,2290],[42.4,2373],[42.4,2458],[42.4,2534],[42.4,2625],[42.4,2709],[42.4,2792],[42.4,2876],[42.4,2961],[42.4,3039],[42.4,3127],[42.4,3211],[43.7,3296],[52.5,3379],[59.4,3463],[68.9,3547],[73.7,3630],[76.8,3714],[81.3,3798],[85.7,3882],[89.7,3965],[95.4,4048],[100,4132],[100,4215],[100,4298],[100,4382],[100,4465],[100,4548],[100,4632],[100,4716],[100,4801],[100,4877],[100,4966],[100,5051],[100,5134],[100,5217],[100,5301],[100,5386],[100,5469],[100,5554],[100,5636],[100,5719],[100,5803],[100,5887],[100,5971],[100,6048],[100,6137],[100,6222],[100,6299],[100,6388],[100,6472],[100,6550],[100,6638],[100,6715],[100,6807],[100,6886],[100,6974],[100,7056],[100,7141],[100,7224],[100,7308],[100,7392],[100,7475],[100,7558],[100,7643],[100,7726],[100,7810],[100,7893],[100,7972],[100,8060],[100,8144],[100,8227],[100,8312],[100,8390],[100,8478],[100,8555],[100,8645],[100,8724],[100,8814],[100,8891],[100,8980],[100,9065],[100,9143],[100,9232],[100,9311],[100,9398],[100,9482],[100,9561],[100,9649],[100,9733],[100,9815],[100,9900],[100,9990],[100,10067],[100,10151],[100,10228],[100,10317],[100,10402],[100,10478],[100,10564],[100,10653],[100,10736],[100,10820],[100,10904],[100,10981],[100,11071],[100,11154],[100,11238],[100,11321],[100,11406],[100,11488],[100,11573],[100,11657],[100,11739],[100,11824],[100,11902],[100,11990],[100,12075],[100,12153],[100,12242],[100,12326],[100,12403],[100,12492],[100,12577],[100,12655],[100,12744],[100,12828],[100,12911],[100,12995],[100,13079],[100,13161],[100,13245],[100,13329],[100,13407],[100,13496],[100,13581],[100,13663],[100,13747],[100,13831],[100,13909],[100,13996],[100,14081],[100,14164],[100,14249],[100,14332],[100,14416],[100,14500],[100,14580],[100,14666],[100,14751],[100,14829],[100,14917],[100,15002],[100,15080],[100,15168],[100,15246],[100,15335],[100,15420],[100,15499],[100,15586],[100,15670],[100,15753],[100,15838],[100,15916],[100,16004],[100,16087],[100,16169],[100,16255],[100,16339],[100,16417],[100,16506],[100,16587],[100,16673],[100,16757],[100,16841],[100,16920],[100,17007],[100,17089],[100,17171],[100,17259],[100,17342],[100,17420],[100,17510],[100,17594],[100,17676],[100,17761],[100,17844],[100,17927],[100,18011],[100,18092],[100,18179],[100,18263],[100,18346],[100,18429],[100,18513],[100,18596],[100,18675],[100,18759],[100,18848],[100,18931],[100,19012],[100,19091],[100,19182],[100,19259],[100,19349],[100,19433],[100,19516],[100,19600],[100,19684],[100,19762],[100,19851],[100,19934],[100,20018],[100,20096],[100,20182],[100,20262],[100,20353],[100,20438],[100,20514],[100,20601],[100,20687],[100,20770],[100,20848],[100,20932],[100,21022],[100,21105],[100,21184],[100,21272],[100,21357],[100,21435],[100,21523],[100,21607],[100,21690],[100,21775],[100,21851],[100,21935],[100,22025],[100,22108],[100,22192],[100,22276],[100,22359]]",1,0,346.2798,349.4584,98.90190337,2.6219,"[{""rating"":98.90190336749633,""responseTime"":2.6219000000003803}]",space,2.6438,,349.4586,Not at all,0,349.4809,,,[],,0,3,3,3,1,audio/Narrative7Situation3.wav,audio/Narrative8Situation3.wav,audio/Narrative5Situation3.wav,audio/Narrative6Situation3.wav,8,4,3,5,,,,,,,,,,,,,,,,,,,,,,,,,,,,,,,,,,,,,,,
,,,,,,663cc6b84e65d79a540bec7e,2024-05-13_11h41.14.024,group3.1-3.2-social-tom,2023.2.2,Win32,59.88023952,65c5074098b851296ff0b7ed,664234341b97d5bbcd6e46bd,,,,,,,,,,,,,,,,,,,,,,,,,,,,,349.4813,1,audio/Narrative8Situation4.wav,352.4847,,352.4848,366.66,"[[98.9,7258],[99.9,7343],[100,7425],[100,7509],[100,7590],[100,7676],[100,7756],[100,7843],[100,7929],[100,8007],[100,8088],[100,8177],[100,8256],[100,8340],[100,8427],[100,8511],[100,8595],[100,8680],[100,8755],[100,8841],[100,8925],[100,9013],[100,9097],[100,9178],[100,9261],[100,9341],[100,9432],[100,9515],[100,9599],[100,9679],[100,9779],[100,9911],[100,9995],[100,10078],[100,10168],[100,10252],[100,10330],[100,10418],[100,10502],[100,10582],[100,10669],[100,10746],[100,10836],[100,10913],[100,10998],[100,11087],[100,11172],[100,11247],[100,11338],[100,11419],[100,11498],[100,11589],[100,11665],[100,11756],[100,11840],[100,11923],[100,12007],[100,12086],[100,12175],[100,12258],[100,12336],[100,12426],[100,12509],[100,12593],[100,12670],[100,12780],[100,12860],[100,12937],[100,13024],[100,13111],[100,13191],[100,13279],[100,13355],[100,13439],[100,13528],[100,13613],[100,13696],[100,13774],[100,13887],[100,13958],[100,14041],[100,14125]]",1,0,366.6607,368.7916,98.46266471,1.1611,"[{""rating"":98.46266471449488,""responseTime"":1.1610999999996352}]",space,1.606,,368.7917,Partially,50,368.8023,,,[],,0,4,4,4,1,audio/Narrative7Situation4.wav,audio/Narrative8Situation4.wav,audio/Narrative5Situation4.wav,audio/Narrative6Situation4.wav,3,3,1,2,,,,,,,,,,,,,,,,,,,,,,,,,,,,,,,,,,,,,,,
,,,,,,663cc6b84e65d79a540bec7e,2024-05-13_11h41.14.024,group3.1-3.2-social-tom,2023.2.2,Win32,59.88023952,65c5074098b851296ff0b7ed,664234341b97d5bbcd6e46bd,,,,,,,,,,,,,,,,,,,,,,,,,,,,,368.8029,1,audio/Narrative8Situation5.wav,370.809,,370.8091,379.0877,"[[98.9,1956],[99,2038],[99,2122],[99,2211],[99,2296],[99,2379],[99,2491],[99,2574],[99,2658],[99,2742],[99,2824],[99,2907],[99,2991],[99,3075],[99,3160],[99,3243],[99,3325],[99,3410],[99,3492],[99,3578],[99,3661],[99,3745],[99,3827],[99,3912],[99,3994],[99,4079],[99,4163],[98.9,4246],[98.9,4330],[98.9,4413],[98.9,4497],[98.9,4581],[98.9,4664],[98.9,4748],[98.9,4832],[98.9,4915],[98.9,4999],[98.9,5083],[98.9,5166],[98.9,5250],[98.9,5332],[98.9,5454],[98.9,5541],[98.9,5624],[98.9,5706],[98.9,5790],[98.9,5874],[98.9,5953],[98.9,6035],[98.9,6125],[98.9,6202],[98.9,6287],[98.9,6376],[98.9,6454],[98.9,6544],[98.9,6623],[98.9,6711],[98.9,6794],[98.9,6872],[98.9,6958],[98.9,7044],[98.9,7124],[98.9,7207],[98.9,7296],[98.9,7380],[98.9,7463],[98.9,7547],[98.9,7626],[98.9,7714],[98.8,7808],[98.8,7897],[98.8,7977],[98.8,8061],[98.8,8149],[98.8,8229]]",1,0,379.088,380.5815,98.75549048,0.7734,"[{""rating"":98.75549048316252,""responseTime"":0.7734000000003789}]",space,0.9552,,380.5816,Definitely yes,100,380.5892,,,[],,0,5,5,5,1,audio/Narrative7Situation5.wav,audio/Narrative8Situation5.wav,audio/Narrative5Situation5.wav,audio/Narrative6Situation5.wav,5,2,5,2,,,,,,,,,,,,,,,,,,,,,,,,,,,,,,,,,,,,,,,
,,,,,,663cc6b84e65d79a540bec7e,2024-05-13_11h41.14.024,group3.1-3.2-social-tom,2023.2.2,Win32,59.88023952,65c5074098b851296ff0b7ed,664234341b97d5bbcd6e46bd,,,,,,,,,,,,,,,,,,,,,,,,,,,,,380.5896,1,audio/Narrative8Situation6.wav,382.6045,,382.6045,389.0767,"[[98.6,5168],[98.6,5251],[98.6,5334],[98.6,5413],[98.6,5501],[98.6,5580],[98.6,5668],[98.6,5752],[98.6,5833],[98.6,5915],[98.6,5998],[98.6,6088],[98.6,6170],[98.6,6257],[98.6,6333],[98.6,6421]]",1,0,389.077,390.495,98.6090776,0.7063,"[{""rating"":98.6090775988287,""responseTime"":0.7062999999997714}]",space,0.8748,,390.4951,Not at all,0,390.5031,,,[],,0,6,6,6,1,audio/Narrative7Situation6.wav,audio/Narrative8Situation6.wav,audio/Narrative5Situation6.wav,audio/Narrative6Situation6.wav,3,2,3,2,,,,,,,,,,,,,,,,,,,,,,,,,,,,,,,,,,,,,,,
,,,,,,663cc6b84e65d79a540bec7e,2024-05-13_11h41.14.024,group3.1-3.2-social-tom,2023.2.2,Win32,59.88023952,65c5074098b851296ff0b7ed,664234341b97d5bbcd6e46bd,,,,,,,,,,,,,,,,,,,,,,,,,,,,,390.5035,1,audio/Narrative8Situation7.wav,393.5039,,393.504,405.6334,"[[100,957],[100,1034],[100,1120],[100,1208],[100,1287],[100,1372],[100,1459],[100,1536],[100,1621],[100,1709],[100,1788],[100,1871],[100,1956],[100,2039],[100,2127],[100,2211],[100,2290],[100,2378],[100,2462],[100,2540],[100,2629],[100,2707],[100,2814],[100,2897],[100,2976],[100,3059],[100,3148],[100,3232],[100,3311],[100,3394],[100,3482],[100,3566],[100,3644],[100,3734],[100,3818],[100,3896],[100,3985],[100,4068],[100,4151],[100,4230],[100,4313],[100,4402],[100,4480],[100,4564],[100,4653],[100,4730],[100,4815],[100,4904],[100,4988],[100,5067],[100,5156],[100,5238],[100,5323],[100,5406],[100,5484],[100,5573],[100,5657],[100,5740],[100,5819],[100,5903],[100,5991],[100,6074],[100,6159],[100,6241],[100,6325],[100,6404],[100,6493],[100,6577],[100,6657],[100,6778],[100,6861],[100,6937],[100,7023],[100,7112],[100,7191],[100,7274],[100,7363],[100,7446],[100,7530],[100,7614],[100,7702],[100,7776],[100,7865],[100,7942],[100,8027],[100,8115],[100,8199],[100,8278],[100,8366],[100,8444],[100,8533],[100,8617],[100,8696],[100,8779],[100,8867],[100,8952],[100,9030],[100,9119],[100,9203],[100,9281],[100,9365],[100,9447],[100,9537],[100,9618],[100,9700],[100,9821],[100,9900],[100,9988],[100,10072],[100,10151],[100,10239],[100,10318],[100,10406],[100,10491],[100,10568],[100,10657],[100,10742],[100,10819],[100,10908],[100,10993],[100,11070],[100,11159],[100,11243],[100,11321],[100,11410],[100,11487],[100,11578],[100,11656],[100,11738],[100,11823],[100,11912],[100,11992],[100,12079]]",1,0,405.6337,408.6446,99.4875549,2.2241,"[{""rating"":99.48755490483163,""responseTime"":2.2240999999996234}]",space,2.4704,,408.6447,Partially,50,408.6535,,,[],,0,7,7,7,1,audio/Narrative7Situation7.wav,audio/Narrative8Situation7.wav,audio/Narrative5Situation7.wav,audio/Narrative6Situation7.wav,5,3,4,5,,,,,,,,,,,,,,,,,,,,,,,,,,,,,,,,,,,,,,,
,,,,,,663cc6b84e65d79a540bec7e,2024-05-13_11h41.14.024,group3.1-3.2-social-tom,2023.2.2,Win32,59.88023952,65c5074098b851296ff0b7ed,664234341b97d5bbcd6e46bd,,,,,,,,,,,,,,,,,,,,,,,,,,,,,408.655,1,audio/Narrative8Situation8.wav,411.6552,,411.6554,424.51,"[[99.6,8526],[99.2,8606],[99.2,8705],[99.2,8790],[99.2,8873],[99.2,8957],[99.9,9041],[100,9124],[100,9207],[100,9292],[100,9375],[100,9459],[100,9541],[100,9626],[100,9708],[100,9793],[100,9877],[100,9960],[100,10044],[100,10127],[100,10211],[100,10295],[100,10379],[100,10462],[100,10545],[100,10629],[100,10713],[100,10796],[100,10880],[100,10964],[100,11046],[100,11131],[100,11215],[100,11298],[100,11381],[100,11466],[100,11549],[100,11633],[100,11716],[100,11800],[100,11883],[100,11967],[100,12051],[100,12135],[100,12217],[100,12302],[100,12386],[100,12469],[100,12553],[100,12636],[100,12720],[100,12802]]",1,0,424.5102,427.5033,99.34114202,2.417,"[{""rating"":99.3411420204978,""responseTime"":2.416999999999973}]",space,2.4589,,427.5033,Not at all,0,427.5133,,,[],,0,8,8,8,1,audio/Narrative7Situation8.wav,audio/Narrative8Situation8.wav,audio/Narrative5Situation8.wav,audio/Narrative6Situation8.wav,2,3,3,5,,,,,,,,,,,,,,,,,,,,,,,,,,,,,,,,,,,,,,,
,,,,,,663cc6b84e65d79a540bec7e,2024-05-13_11h41.14.024,group3.1-3.2-social-tom,2023.2.2,Win32,59.88023952,65c5074098b851296ff0b7ed,664234341b97d5bbcd6e46bd,,,,,,,,,,,,,,,,,,,,,,,,,,,,,427.5138,1,audio/Narrative8Situation9.wav,430.5306,,430.5306,441.8363,"[[97.6,167],[97.6,250],[97.6,334],[97.6,417],[97.6,500],[97.6,585],[97.6,670],[97.6,752],[97.6,836],[97.6,919],[97.6,1003],[97.6,1086],[97.6,1170],[97.6,1253],[97.6,1338],[97.9,1422],[98.5,1504],[99,1589],[99.3,1672],[99.6,1755],[99.9,1839],[100,1922],[100,2006],[100,2090],[100,2174],[100,2257],[100,2342],[100,2423],[100,2508],[100,2592],[100,2675],[100,2760],[100,2843],[100,2925],[100,3010],[100,3093],[100,3177],[100,3261],[100,3345],[100,3427],[100,3511],[100,3594],[100,3679],[100,3762],[100,3846],[100,3930],[100,4013],[100,4097],[100,4180],[100,4264],[100,4347],[100,4431],[100,4515],[100,4598],[100,4682],[100,4766],[100,4849],[100,4933],[100,5016],[100,5100],[100,5183],[100,5267],[100,5352],[100,5434],[100,5518],[100,5601],[100,5686],[100,5769],[100,5853],[100,5936],[100,6020],[100,6104],[100,6187],[100,6271],[100,6353],[100,6438],[100,6522],[100,6605],[100,6689],[100,6773],[100,6855],[100,6940],[100,7024],[100,7107],[100,7190],[100,7274],[100,7358],[100,7442],[100,7525],[100,7609],[100,7692],[100,7775],[100,7860],[100,7943],[100,8026],[100,8109],[100,8194],[100,8278],[100,8360],[100,8445],[100,8529],[100,8612],[100,8696],[100,8780],[100,8863],[100,8947],[100,9029],[100,9113],[100,9198],[100,9282],[100,9365],[100,9448],[100,9532],[100,9616],[100,9699],[100,9783],[100,9865],[100,9950],[100,10034],[100,10118],[100,10201],[100,10285],[100,10368],[100,10452],[100,10536],[100,10619],[100,10704],[100,10786],[100,10870],[100,10953],[100,11038],[100,11121],[100,11204],[100,11287]]",1,0,441.8364,444.0999,99.4875549,1.5775,"[{""rating"":99.48755490483163,""responseTime"":1.5774999999999864}]",space,1.7231,,444.1,Partially,50,444.1067,,,[],,0,9,9,9,1,audio/Narrative7Situation9.wav,audio/Narrative8Situation9.wav,audio/Narrative5Situation9.wav,audio/Narrative6Situation9.wav,2,3,3,4,,,,,,,,,,,,,,,,,,,,,,,,,,,,,,,,,,,,,,,
,,,,,,663cc6b84e65d79a540bec7e,2024-05-13_11h41.14.024,group3.1-3.2-social-tom,2023.2.2,Win32,59.88023952,65c5074098b851296ff0b7ed,664234341b97d5bbcd6e46bd,,,,,,,,,,,,,,,,,,,,,,,,,,,,,444.1071,1,audio/Narrative7Situation1.wav,446.1162,,446.1164,502.016,"[[99.8,5856],[80.3,20271],[85.4,20354],[87,20437],[87.9,20522],[89.5,20605],[92.6,20689],[96.7,20773],[99.3,20856],[100,20940],[100,21023],[100,21107],[100,21189],[100,21274],[100,21357],[100,21442],[100,21525],[100,21608],[100,21692],[100,21776],[100,21859],[100,21942],[100,22026],[100,22109],[100,22193],[100,22277],[100,22361],[100,22445],[100,22528],[100,22611],[100,22695],[100,22778],[100,22863],[100,22946],[100,23030],[100,23113],[100,23197],[100,23281],[100,23363],[100,23448],[100,23531],[100,23615],[100,23698],[100,23783],[100,23865],[100,23949],[100,24033],[100,24117],[100,24199],[100,24283],[100,24367],[100,24453],[100,24535],[100,24618],[100,24702],[100,24786],[100,24868],[100,24953],[100,25038],[100,25120],[100,25203],[100,25288],[100,25376],[100,25454],[100,25538],[100,25622],[100,25704],[100,25789],[100,25872],[100,25956],[100,26044],[100,26123],[100,26214],[100,26294],[100,26381],[100,26464],[100,26548],[100,26625],[100,26715],[100,26799],[100,26877],[100,26963],[100,27047],[100,27128],[100,27214],[100,27293],[100,27384],[100,27468],[100,27552],[100,27635],[100,27711],[100,27802],[99.5,27902],[99.5,27986],[99.5,28067],[99.5,28146],[99.5,28238],[99.5,28322],[99.5,28397],[99.5,28488],[99.5,28567],[99.5,28656],[99.5,28740],[99.5,28823],[99.5,28906],[99.5,28991],[99.5,29069],[99.5,29156],[99.5,29242],[99.5,29320],[99.5,29408],[99.5,29486],[99.5,29570],[99.5,29659],[99.5,29743],[99.5,29818],[99.5,29909],[99.5,29994],[99.5,30072],[99.5,30161],[99.5,30237],[99.5,30328],[99.5,30406],[99.5,30495],[99.5,30574],[99.5,30654],[99.5,30740],[99.5,30830],[99.5,30914],[99.5,30991],[99.5,31080],[99.5,31164],[99.5,31240],[99.5,31332],[99.5,31415],[99.5,31498],[99.5,31575],[99.5,31660],[99.5,31749],[99.5,31827],[99.5,31910],[99.5,32010],[99.5,32095],[99.5,32178],[99.5,32261],[99.5,32344],[99.5,32428],[99.5,32513],[99.5,32596],[99.5,32680],[99.5,32763],[99.5,32846],[99.5,32931],[99.5,33014],[99.5,33099],[99.5,33182],[99.5,33264],[99.5,33349],[99.5,33432],[99.5,33516],[99.5,33600],[99.5,33684],[99.5,33767],[99.5,33851],[99.5,33934],[99.5,34016],[99.5,34101],[99.5,34185],[99.5,34269],[99.5,34352],[99.5,34435],[99.5,34519],[99.5,34603],[99.5,34687],[99.5,34770],[99.5,34853],[99.5,34936],[99.5,35021],[99.5,35103],[99.5,35188],[99.5,35272],[99.5,35355],[99.5,35439],[99.5,35521],[99.5,35605],[99.5,35690],[99.5,35774],[99.5,35857],[99.5,35941],[99.5,36024],[99.5,36108],[99.5,36191],[99.5,36275],[99.5,36359],[99.5,36443],[99.5,36526],[99.5,36609],[99.5,36693],[99.5,36777],[99.5,36861],[99.5,36944],[99.5,37028],[99.5,37112],[99.5,37196],[99.5,37279],[99.5,37363],[99.5,37446],[99.5,37530],[99.5,37614],[99.5,37697],[99.5,37781],[99.5,37864],[99.5,37948],[99.5,38031],[99.5,38114],[99.5,38199],[99.5,38281],[99.5,38366],[99.5,38450],[99.5,38533],[99.5,38616],[99.5,38700],[99.5,38783],[99.5,38867],[99.5,38952],[99.5,39034],[99.5,39118],[99.5,39202],[99.5,39285],[99.5,39370],[99.5,39453],[99.5,39536],[99.5,39620],[99.5,39704],[99.5,39788],[99.5,39871],[99.5,39954],[99.5,40037],[99.5,40122],[99.5,40205],[99.5,40289],[99.5,40372],[99.5,40455],[99.5,40540],[99.5,40624],[99.5,40707],[99.5,40791],[99.5,40875],[99.5,40958],[99.5,41042],[99.5,41124],[99.5,41209],[99.5,41293],[99.5,41376],[99.5,41459],[99.5,41544],[99.5,41627],[99.5,41711],[99.5,41795],[99.5,41878],[99.5,41960],[99.5,42045],[99.5,42128],[99.5,42213],[99.5,42295],[99.5,42380],[99.5,42464],[99.5,42547],[99.5,42629],[99.5,42714],[99.5,42799],[99.5,42881],[99.5,42971],[99.5,43050],[99.5,43138],[99.5,43223],[99.5,43300],[99.5,43390],[99.5,43474],[99.5,43556],[99.5,43640],[99.5,43723],[99.5,43802],[99.5,43891],[99.5,43970],[99.5,44053],[99.5,44137],[99.5,44220],[99.5,44309],[99.5,44388],[99.5,44469],[99.5,44560],[99.5,44644],[99.5,44721],[99.5,44811],[99.5,44889],[99.5,44972],[99.5,45061],[99.5,45146],[99.5,45228],[99.5,45313],[99.5,45396],[99.5,45479],[99.5,45563],[99.5,45642],[99.5,45730],[99.5,45809],[99.5,45891],[99.5,45976],[99.5,46059],[99.5,46144],[99.5,46232],[99.5,46310],[99.5,46399],[99.5,46478],[99.5,46562],[99.5,46650],[99.5,46734],[99.5,46812],[99.5,46894],[99.5,46986],[99.5,47064],[99.5,47152],[99.5,47229],[99.5,47319],[99.5,47398],[99.5,47481],[99.5,47564],[99.5,47654],[99.5,47732],[99.5,47816],[99.5,47904],[99.5,47983],[99.5,48066],[99.5,48155],[99.5,48240],[99.5,48323],[99.5,48406],[99.5,48484],[99.5,48569],[99.5,48652],[99.5,48740],[99.5,48820],[99.5,48909],[99.5,48985],[99.5,49075],[99.5,49160],[99.5,49237],[99.5,49326],[99.5,49411],[99.5,49486],[99.5,49570],[99.5,49661],[99.5,49739],[99.5,49827],[99.5,49907],[99.5,49995],[99.5,50079],[99.5,50163],[99.5,50245],[99.5,50325],[99.5,50413],[99.5,50497],[99.5,50581],[99.5,50657],[99.5,50748],[99.5,50832],[99.5,50915],[99.5,50999],[99.5,51075],[99.5,51166],[99.5,51244],[99.5,51333],[99.5,51417],[99.5,51495],[99.5,51577],[99.5,51668],[99.5,51753],[99.5,51835],[99.5,51912],[99.5,51996],[99.5,52086],[99.5,52170],[99.5,52247],[99.5,52337],[99.5,52414],[99.5,52504],[99.5,52581],[99.5,52666],[99.5,52755],[99.5,52839],[99.5,52916],[99.5,53006],[99.5,53083],[99.5,53168],[99.5,53253],[99.5,53340],[99.5,53424],[99.5,53507],[99.5,53584],[99.5,53675],[99.5,53759],[99.5,53842],[99.5,53919],[99.5,54003],[99.5,54087],[99.5,54176],[99.5,54254],[99.5,54338],[99.5,54426],[99.5,54506],[99.5,54589],[99.5,54678],[99.5,54762],[99.5,54839],[99.5,54924],[99.5,55009],[99.5,55089],[99.5,55173],[99.5,55256],[99.5,55347],[99.5,55431],[99.5,55514],[99.5,55593],[99.5,55682],[99.5,55760],[99.5,55848]]",1,0,502.0164,504.7865,99.34114202,1.4942,"[{""rating"":99.3411420204978,""responseTime"":1.4941999999992959}]",space,2.2368,,504.7866,Not at all,0,504.796,,,[],,0,10,10,10,1,audio/Narrative8Situation1.wav,audio/Narrative7Situation1.wav,audio/Narrative6Situation1.wav,audio/Narrative5Situation1.wav,5,2,2,5,,,,,,,,,,,,,,,,,,,,,,,,,,,,,,,,,,,,,,,
,,,,,,663cc6b84e65d79a540bec7e,2024-05-13_11h41.14.024,group3.1-3.2-social-tom,2023.2.2,Win32,59.88023952,65c5074098b851296ff0b7ed,664234341b97d5bbcd6e46bd,,,,,,,,,,,,,,,,,,,,,,,,,,,,,504.7966,1,audio/Narrative7Situation2.wav,507.8134,,507.8135,515.2952,"[[99.2,4203],[99.2,4287],[99.2,4371],[99.2,4447],[99.2,4530],[99.2,4622],[99.2,4704],[99.2,4784],[99.2,4872],[99.2,4956],[99.2,5032],[99.2,5123],[99.2,5206],[99.2,5283],[99.2,5373],[99.2,5453],[99.2,5541],[99.2,5619],[99.2,5701],[99.2,5792],[99.2,5871],[99.2,5954],[99.2,6043],[99.2,6127],[99.2,6205],[99.2,6294],[99.2,6377],[99.2,6460],[99.2,6544],[99.2,6629],[99.2,6712],[99.2,6790],[99.2,6874],[99.2,6962],[99.2,7041],[99.2,7123],[99.2,7214],[99.2,7297],[99.2,7376],[99.2,7464]]",1,0,515.2954,517.1292,99.19472914,0.3376,"[{""rating"":99.19472913616399,""responseTime"":0.3376000000006343}]",space,1.291,,517.1294,Partially,50,517.1384,,,[],,0,11,11,11,1,audio/Narrative8Situation2.wav,audio/Narrative7Situation2.wav,audio/Narrative6Situation2.wav,audio/Narrative5Situation2.wav,3,3,3,3,,,,,,,,,,,,,,,,,,,,,,,,,,,,,,,,,,,,,,,
,,,,,,663cc6b84e65d79a540bec7e,2024-05-13_11h41.14.024,group3.1-3.2-social-tom,2023.2.2,Win32,59.88023952,65c5074098b851296ff0b7ed,664234341b97d5bbcd6e46bd,,,,,,,,,,,,,,,,,,,,,,,,,,,,,517.1388,1,audio/Narrative7Situation3.wav,525.1395,,525.1397,534.3937,"[[100,3050],[100,3134],[100,3217],[100,3300],[100,3376],[100,3467],[100,3550],[100,3630],[100,3711],[100,3796],[100,3880],[100,3969],[100,4053],[100,4137],[100,4219],[100,4298],[99.2,4389],[96.4,4472],[86.7,4557],[77.8,4639],[64.8,4724],[54.4,4807],[48.5,5643],[49.3,5727],[49.6,5808],[49.6,5892],[49.6,5971],[49.6,6052],[49.6,6143],[49.6,6227],[49.6,6306],[49.6,6394],[49.6,6477],[49.6,6555],[49.6,6646],[49.6,6723],[49.6,6812],[49.6,6896],[49.6,6979],[49.6,7056],[49.6,7141],[49.6,7225],[49.6,7314],[49.7,7398],[49.7,7475],[49.7,7565],[49.7,7642],[49.7,7727],[49.7,7815],[50,7893],[50,7977],[50.7,8069],[51,8151],[51.3,8234],[51.5,8318],[51.5,8394],[51.6,8480],[51.8,8565],[52,8648],[52.3,8736],[52.3,8819],[52.3,8898],[52.3,8986],[52.3,9070],[52.3,9150],[52.3,9230]]",1,0,534.3938,539.9908,33.30893119,4.4367,"[{""rating"":33.30893118594436,""responseTime"":4.436700000000201}]",space,5.0568,,539.991,Definitely yes,100,539.9992,,,[],,0,12,12,12,1,audio/Narrative8Situation3.wav,audio/Narrative7Situation3.wav,audio/Narrative6Situation3.wav,audio/Narrative5Situation3.wav,4,8,5,3,,,,,,,,,,,,,,,,,,,,,,,,,,,,,,,,,,,,,,,
,,,,,,663cc6b84e65d79a540bec7e,2024-05-13_11h41.14.024,group3.1-3.2-social-tom,2023.2.2,Win32,59.88023952,65c5074098b851296ff0b7ed,664234341b97d5bbcd6e46bd,,,,,,,,,,,,,,,,,,,,,,,,,,,,,539.9996,1,audio/Narrative7Situation4.wav,543.0017,,543.0017,554.7316,"[[33.7,7291],[38.1,7381],[41.5,7464],[41.5,7547],[41.5,7630],[41.5,7715],[41.5,7798],[41.5,7881],[41.5,7966],[41.4,8051],[41.1,8133],[39.2,8218],[34.2,8301],[32.1,8385],[27.6,8470],[0.1,9305],[0.4,9387],[0.4,9465],[0.4,9554],[0.4,9633],[0.4,9716],[0.4,9805],[0.4,9889],[0.4,9972],[0.4,10056],[0.4,10133],[0.4,10223],[0.4,10307]]",1,0,554.7318,558.0936,0.65885798,3.3604,"[{""rating"":0.6588579795021976,""responseTime"":3.3603999999994585}]",space,0.201,,558.0937,Not at all,0,558.1014,,,[],,0,13,13,13,1,audio/Narrative8Situation4.wav,audio/Narrative7Situation4.wav,audio/Narrative6Situation4.wav,audio/Narrative5Situation4.wav,3,3,2,1,,,,,,,,,,,,,,,,,,,,,,,,,,,,,,,,,,,,,,,
,,,,,,663cc6b84e65d79a540bec7e,2024-05-13_11h41.14.024,group3.1-3.2-social-tom,2023.2.2,Win32,59.88023952,65c5074098b851296ff0b7ed,664234341b97d5bbcd6e46bd,,,,,,,,,,,,,,,,,,,,,,,,,,,,,558.1021,1,audio/Narrative7Situation5.wav,563.1052,,563.1053,571.6056,"[[1,4887],[1,4964],[1,5049],[1,5138],[1,5216],[1,5305],[1,5389],[1,5472],[1,5551],[1,5639],[1,5724],[1,5801],[1,5891],[1,5975],[1,6059],[1,6141],[1,6225],[1,6309],[1,6387],[1,6471],[1,6559],[1,6644],[1,6721],[1,6810],[1,6895],[1,6972],[1,7061],[1,7138],[1,7229],[1,7313],[1,7391],[1,7479],[1,7564],[1,7640],[1,7730],[2.4,7836],[2.7,7915],[2.7,7993],[2.7,8082],[2.7,8166],[2.7,8248],[2.7,8332],[2.7,8417],[2.7,8500]]",1,0,571.6058,575.1025,0.366032211,2.8928,"[{""rating"":0.36603221083455484,""responseTime"":2.892799999999852}]",space,2.9731,,575.1026,Partially,50,575.112,,,[],,0,14,14,14,1,audio/Narrative8Situation5.wav,audio/Narrative7Situation5.wav,audio/Narrative6Situation5.wav,audio/Narrative5Situation5.wav,2,5,2,5,,,,,,,,,,,,,,,,,,,,,,,,,,,,,,,,,,,,,,,
,,,,,,663cc6b84e65d79a540bec7e,2024-05-13_11h41.14.024,group3.1-3.2-social-tom,2023.2.2,Win32,59.88023952,65c5074098b851296ff0b7ed,664234341b97d5bbcd6e46bd,,,,,,,,,,,,,,,,,,,,,,,,,,,,,575.1133,1,audio/Narrative7Situation6.wav,578.1291,,578.1291,588.0967,"[[4.3,5787],[10.5,5870],[40,6037],[54.4,6121],[98.3,6875],[97.9,6957],[97.7,7040],[96.7,7125],[95.8,7208],[95.8,7290],[95.8,7375],[95.8,7454],[95.8,7541],[96,7626],[97,7710],[97.6,7794],[97.9,7877],[97.9,7953],[97.9,8038],[98.3,8128],[99,8212],[99.6,8295],[99.6,8372],[99.6,8461],[99.6,8542],[99.6,8628],[99.6,8712],[99.6,8796],[99.6,8874],[99.6,8963],[99.6,9041],[99.6,9130],[99.6,9214],[99.6,9293],[99.6,9383],[99.6,9465],[99.6,9548],[99.6,9631],[99.6,9710],[99.6,9795],[99,9885],[98.8,9967]]",1,0,588.0969,589.8802,98.90190337,1.1398,"[{""rating"":98.90190336749633,""responseTime"":1.1397999999998092}]",space,1.2392,,589.8802,Definitely yes,100,589.8886,,,[],,0,15,15,15,1,audio/Narrative8Situation6.wav,audio/Narrative7Situation6.wav,audio/Narrative6Situation6.wav,audio/Narrative5Situation6.wav,2,3,2,3,,,,,,,,,,,,,,,,,,,,,,,,,,,,,,,,,,,,,,,
,,,,,,663cc6b84e65d79a540bec7e,2024-05-13_11h41.14.024,group3.1-3.2-social-tom,2023.2.2,Win32,59.88023952,65c5074098b851296ff0b7ed,664234341b97d5bbcd6e46bd,,,,,,,,,,,,,,,,,,,,,,,,,,,,,589.8891,1,audio/Narrative7Situation7.wav,594.8967,,594.8967,612.0782,"[[98.8,8568],[98.8,8646],[98.8,8730],[98.8,8819],[98.8,8903],[98.8,8986],[98.8,9069],[98.8,9154],[98.8,9237],[98.8,9320],[98.8,9399],[98.8,9486],[98.8,9571],[98.8,9649],[98.8,9738],[98.8,9817],[98.8,9900],[98.8,9989],[98.8,10073],[98.8,10149],[98.8,10240],[98.8,10319],[98.8,10404],[98.8,10491],[98.8,10568],[98.8,10658],[98.8,10742],[98.8,10826],[98.8,10904],[98.8,10993],[98.8,11072],[98.8,11160],[98.8,11244],[98.8,11324],[98.8,11411],[98.8,11489],[98.8,11573],[98.8,11661],[98.8,11741],[98.8,11823],[98.8,11912],[98.8,11996],[98.8,12080],[98.8,12158],[98.8,12241],[98.8,12330],[98.8,12409],[98.8,12492],[98.8,12581],[98.8,12665],[98.8,12742],[98.8,12828],[98.8,12916],[98.8,12994],[98.8,13078],[98.8,13162],[98.8,13246],[98.8,13329],[98.8,13413],[98.8,13501],[98.8,13580],[98.8,13669],[98.8,13752],[98.8,13836],[98.8,13914],[98.8,14003],[98.8,14087],[98.8,14165],[98.8,14254],[98.8,14338],[98.8,14421],[98.8,14499],[98.8,14589],[98.8,14672],[98.8,14753],[98.8,14833],[98.8,14924],[98.8,15001],[98.8,15085],[98.8,15173],[98.8,15253],[98.8,15336],[98.8,15425],[98.8,15503],[98.8,15587],[98.8,15675],[98.8,15759],[98.8,15837],[98.8,15921],[98.8,16011],[98.8,16093],[98.8,16178],[98.8,16256],[98.8,16344],[98.8,16429],[98.8,16512],[98.8,16614],[98.8,16679],[98.8,16758],[98.8,16846],[98.8,16925],[98.8,17009],[98.8,17097],[98.8,17181]]",1,0,612.0785,615.9581,100,2.8107,"[{""rating"":98.16983894582722,""responseTime"":0.7862999999998692},{""rating"":98.16983894582722,""responseTime"":0.8029000000003634},{""rating"":100,""responseTime"":2.7835000000000036},{""rating"":100,""responseTime"":2.8107000000002245}]",space,3.3287,,615.9582,Partially,50,615.9649,,,[],,0,16,16,16,1,audio/Narrative8Situation7.wav,audio/Narrative7Situation7.wav,audio/Narrative6Situation7.wav,audio/Narrative5Situation7.wav,3,5,5,4,,,,,,,,,,,,,,,,,,,,,,,,,,,,,,,,,,,,,,,
,,,,,,663cc6b84e65d79a540bec7e,2024-05-13_11h41.14.024,group3.1-3.2-social-tom,2023.2.2,Win32,59.88023952,65c5074098b851296ff0b7ed,664234341b97d5bbcd6e46bd,,,,,,,,,,,,,,,,,,,,,,,,,,,,,615.9653,1,audio/Narrative7Situation8.wav,617.9769,,617.9771,628.0163,"[[999,0],[999,114],[999,199],[999,282],[999,366],[999,450],[999,533],[999,616],[999,701],[999,784],[999,868],[999,950],[999,1035],[999,1119],[999,1201],[999,1285],[999,1370],[999,1453],[999,1537],[999,1620],[999,1703],[999,1788],[999,1872],[999,1955],[999,2039],[999,2122],[999,2205],[999,2289],[999,2374],[999,2457],[999,2541],[999,2623],[999,2707],[999,2792],[999,2875],[999,2957],[999,3041],[999,3124],[999,3209],[999,3293],[999,3376],[999,3459],[999,3545],[999,3626],[999,3711],[999,3795],[999,3879],[999,3962],[999,4045],[999,4129],[999,4212],[999,4295],[999,4379],[999,4463],[999,4546],[999,4630],[999,4715],[999,4798],[999,4882],[999,4964],[999,5048],[999,5132],[999,5215],[999,5299],[999,5384],[999,5467],[999,5551],[999,5634],[999,5718],[999,5802],[999,5885],[999,5969],[999,6053],[999,6136],[999,6220],[999,6302],[999,6387],[999,6471],[999,6554],[999,6636],[999,6721],[999,6804],[999,6888],[999,6972],[999,7056],[999,7139],[999,7222],[999,7307],[999,7389],[999,7473],[999,7557],[999,7641],[999,7725],[999,7809],[999,7892],[999,7976],[999,8060],[999,8143],[999,8227],[999,8310],[999,8394],[999,8479],[999,8562],[999,8645],[67.1,8729],[59.1,8819],[55,8902],[54.1,8987],[52.9,9069],[52.6,9153],[51.9,9237],[51.3,9320],[51.2,9403],[51.2,9480],[51.2,9570],[51.2,9648],[51.2,9733],[51.2,9815],[51.2,9899],[51.2,9988]]",1,0,628.0165,639.6336,99.04831625,10.1042,"[{""rating"":99.04831625183016,""responseTime"":10.104200000000219}]",space,11.076,,639.6339,Not at all,0,639.6416,,,[],,0,17,17,17,1,audio/Narrative8Situation8.wav,audio/Narrative7Situation8.wav,audio/Narrative6Situation8.wav,audio/Narrative5Situation8.wav,3,2,5,3,,,,,,,,,,,,,,,,,,,,,,,,,,,,,,,,,,,,,,,
,,,,,,663cc6b84e65d79a540bec7e,2024-05-13_11h41.14.024,group3.1-3.2-social-tom,2023.2.2,Win32,59.88023952,65c5074098b851296ff0b7ed,664234341b97d5bbcd6e46bd,,,,,,,,,,,,,,,,,,,,,,,,,,,,,639.642,1,audio/Narrative7Situation9.wav,641.6568,,641.657,650.2874,"[[99.2,3027],[99.6,3112],[99.6,3194],[99.6,3277],[99.6,3362],[99.6,3444],[99.6,3529],[99.6,3612],[99.6,3695],[99.6,3779],[99.6,3864],[99.6,3946],[99.6,4030],[99.6,4113],[99.6,4198],[99.6,4280],[99.6,4364],[99.6,4447],[99.6,4532],[99.6,4616],[99.6,4699],[99.6,4783],[99.6,4865],[99.6,4949],[99.6,5034],[99.6,5118],[99.6,5200],[99.6,5284],[99.6,5367],[99.6,5451],[99.6,5535],[99.6,5618],[99.6,5701],[99.6,5786],[99.6,5870],[99.6,5953],[99.6,6037],[99.6,6121],[99.6,6204],[99.6,6288],[99.6,6371],[99.6,6456],[99.6,6540],[99.6,6622],[99.6,6706],[99.6,6789],[99.6,6873],[99.6,6956],[99.6,7040],[99.6,7125],[99.6,7207],[99.6,7292],[99.6,7374],[99.6,7459],[99.6,7543],[99.6,7625],[99.6,7709],[99.6,7792],[99.6,7876],[99.6,7961],[99.6,8044],[99.6,8127],[99.6,8212],[99.6,8294],[99.6,8377],[99.6,8463],[99.6,8546],[99.6,8629]]",1,0,650.2875,651.7427,99.63396779,1.0596,"[{""rating"":99.63396778916544,""responseTime"":1.059599999999591}]",space,0.9236,,651.7429,Definitely yes,100,659.8863,99.19472914,7.3471,"[{""rating"":99.19472913616399,""responseTime"":7.347100000000523}]",space,0,18,18,18,1,audio/Narrative8Situation9.wav,audio/Narrative7Situation9.wav,audio/Narrative6Situation9.wav,audio/Narrative5Situation9.wav,3,2,4,3,,,7.6123,,,,,,,,,,,,,,,,,,,,,,,,,,,,,,,,,,,,
,,,,,,663cc6b84e65d79a540bec7e,2024-05-13_11h41.14.024,group3.1-3.2-social-tom,2023.2.2,Win32,59.88023952,65c5074098b851296ff0b7ed,664234341b97d5bbcd6e46bd,,,,,,,,,,,,,,,,,,,,,,,,,,,663.6847,666.2601,666.3034,2,audio/Narrative13Situation2.wav,666.3035,,666.3036,696.0514,"[[97.3,3776],[95.8,3859],[95.7,3941],[95.7,4019],[95.7,4108],[95.7,4192],[96,4277],[96.3,4359],[96.3,4438],[96.3,4522],[96.3,4609],[96.3,4693],[96.3,4777],[96.3,4860],[96.3,4944],[96.3,5022],[96.3,5112],[96.3,5196],[96.3,5278],[96.3,5363],[96.3,5439],[96.3,5530],[96.3,5615],[96.3,5693],[96.3,5781],[96.3,5860],[96.3,5944],[96.3,6031],[96.3,6115],[96.3,6192],[96.3,6282],[96.3,6366],[96.3,6449],[96.3,6528],[96.3,6611],[96.3,6700],[96.3,6784],[96.3,6867],[96.3,6951],[96.3,7030],[96.3,7119],[96.3,7202],[96.3,7286],[96.3,7363],[96.3,7448],[96.3,7538],[96.3,7620],[96.3,7705],[96.3,7787],[96.3,7871],[96.3,7950],[96.3,8038],[96.3,8116],[96.3,8198],[96.3,8289],[96.3,8367],[96.3,8454],[96.3,8540],[96.3,8624],[96.3,8702],[96.3,8788],[96.3,8875],[96.3,8958],[96.3,9035],[96.3,9121],[96.3,9209],[96.3,9293],[96.3,9376],[96.3,9460],[96.3,9540],[96.3,9622],[96.3,9710],[96.3,9795],[96.3,9871],[96.3,9961],[96.3,10038],[96.3,10128],[96.3,10213],[96.6,10315],[97.3,10392],[98,10475],[98.5,10557],[98.5,10641],[98.5,10724],[98.5,10809],[98.5,10891],[98.5,10976],[98.5,11059],[98.5,11144],[98.5,11226],[98.5,11311],[98.5,11394],[98.5,11477],[98.5,11561],[98.5,11645],[98.5,11728],[98.6,11811],[98.8,11895],[99,11978],[99,12062],[99,12146],[99,12230],[99.2,12313],[99.3,12397],[99.3,12480],[99.3,12563],[99.3,12649],[99.3,12731],[99.5,12816],[99.5,12900],[99.5,12982],[99.5,13065],[99.5,13149],[99.5,13233],[99.5,13318],[99.5,13401],[99.5,13485],[99.5,13567],[99.5,13651],[99.3,13735],[99,13818],[98.5,13903],[98.5,13985],[98.5,14070],[98.5,14154],[98.5,14236],[98.5,14319],[98.5,14404],[98.5,14488],[98.5,14571],[98.5,14655],[98.5,14738],[98.5,14822],[98.6,14906],[98.9,14990],[99.2,15073],[99.3,15157],[99.9,15241],[100,15323],[100,15408],[100,15492],[100,15574],[100,15658],[100,15742],[100,15825],[100,15909],[100,15994],[100,16078],[100,16161],[100,16244],[100,16326],[100,16412],[100,16495],[100,16577],[100,16661],[100,16745],[100,16830],[100,16912],[100,16995],[100,17079],[100,17164],[100,17248],[100,17330],[100,17415],[100,17497],[100,17581],[100,17666],[100,17748],[100,17833],[100,17917],[100,17999],[100,18083],[100,18167],[100,18251],[100,18335],[100,18419],[100,18502],[100,18585],[100,18669],[100,18751],[100,18835],[100,18919],[100,19003],[100,19086],[100,19171],[100,19253],[100,19337],[100,19420],[100,19504],[100,19589],[100,19671],[100,19756],[100,19838],[100,19924],[100,20006],[100,20091],[100,20173],[100,20258],[100,20341],[100,20424],[100,20509],[100,20593],[100,20677],[100,20760],[100,20842],[100,20926],[100,21009],[100,21093],[100,21177],[100,21262],[100,21345],[100,21428],[100,21512],[100,21596],[100,21680],[100,21762],[100,21846],[100,21930],[100,22014],[100,22097],[100,22181],[100,22265],[100,22347],[100,22431],[100,22516],[100,22600],[100,22684],[100,22767],[100,22850],[100,22932],[100,23016],[100,23101],[100,23185],[100,23268],[100,23351],[100,23434],[100,23520],[100,23603],[100,23687],[100,23769],[100,23853],[100,23936],[100,24020],[100,24103],[100,24188],[100,24271],[100,24356],[100,24438],[100,24523],[100,24605],[100,24689],[100,24773],[100,24857],[100,24941],[100,25024],[100,25112],[100,25197],[100,25281],[100,25365],[100,25442],[100,25525],[100,25615],[100,25699],[100,25778],[100,25866],[100,25948],[100,26028],[100,26117],[100,26198],[100,26281],[100,26368],[100,26452],[100,26531],[100,26612],[100,26698],[100,26786],[100,26865],[100,26953],[100,27037],[100,27121],[100,27197],[100,27288],[100,27372],[100,27448],[100,27538],[100,27619],[100,27699],[100,27790],[100,27868],[100,27951],[100,28043],[100,28119],[100,28201],[100,28284],[100,28370],[100,28459],[100,28543],[100,28625],[100,28710],[100,28789],[100,28873],[100,28960],[100,29044],[100,29127],[100,29207],[100,29290],[100,29379],[100,29462],[100,29541],[100,29629],[100,29708]]",1,0,696.0518,696.0578,,,[],,,,696.0579,Definitely yes,100,696.0631,,,[],,0,0,0,0,1,audio/Narrative13Situation2.wav,audio/Narrative13Situation2.wav,audio/Narrative13Situation2.wav,audio/Narrative13Situation2.wav,2,2,2,2,,,,,659.9191,663.6684,space,3.2336,,,,,,,,,,,,,,,,,,,,,,,,,,,,,,,
,,,,,,663cc6b84e65d79a540bec7e,2024-05-13_11h41.14.024,group3.1-3.2-social-tom,2023.2.2,Win32,59.88023952,65c5074098b851296ff0b7ed,664234341b97d5bbcd6e46bd,,,,,,,,,,,,,,,,,,,,,,,,,,,,,696.0636,2,audio/Narrative6Situation1.wav,698.0673,,698.0673,724.6663,"[[99.6,6375],[99.2,6457],[98.9,6540],[98.9,6624],[98.9,6707],[98.9,6790],[98.9,6874],[98.9,6958],[99.2,7042],[99.6,7126],[99.8,7209],[99.8,7293],[99.8,7375],[99.8,7460],[99.8,7544],[99.8,7626],[99.8,7709],[99.8,7793],[99.8,7878],[99.8,7960],[99.8,8045],[99.8,8127],[99.8,8211],[99.8,8295],[99.8,8379],[99.8,8463],[99.8,8547],[99.8,8629],[99.8,8714],[99.8,8798],[99.8,8880],[99.8,8964],[99.8,9049],[99.8,9131],[99.8,9214],[99.8,9300],[99.8,9381],[99.8,9465],[99.8,9551],[99.8,9633],[99.8,9717],[99.8,9802],[99.8,9885],[99.8,9968],[99.8,10050],[99.8,10136],[99.8,10218],[99.8,10301],[99.8,10387],[99.8,10470],[99.8,10552],[99.8,10637],[99.8,10721],[99.8,10803],[99.8,10887],[99.8,10972],[99.8,11056],[99.8,11139],[99.8,11222],[99.8,11306],[99.8,11389],[99.8,11478],[99.8,11557],[99.8,11647],[99.8,11730],[99.8,11808],[99.8,11897],[99.8,11982],[99.8,12059],[99.8,12148],[99.8,12229],[99.8,12309],[99.8,12399],[99.8,12481],[99.8,12566],[99.8,12644],[99.8,12731],[99.8,12823],[99.8,12898],[99.8,12984],[99.8,13068],[99.8,13153],[99.8,13235],[99.8,13319],[99.8,13404],[99.8,13481],[99.8,13570],[99.8,13650],[99.8,13732],[99.8,13821],[99.8,13899],[99.8,13988],[99.8,14067],[99.8,14151],[99.8,14238],[99.8,14317],[99.8,14406],[99.8,14489],[99.8,14568],[99.8,14652],[99.8,14741],[99.8,14824],[99.8,14907],[99.8,14991],[99.8,15075],[99.8,15153],[99.8,15243],[99.8,15321],[99.8,15409],[99.8,15494],[99.8,15569],[99.8,15661],[99.8,15745],[99.8,15822],[99.8,15911],[99.8,15995],[99.8,16073],[99.8,16162],[99.8,16246],[99.8,16329],[99.8,16413],[99.8,16496],[99.8,16580],[99.8,16664],[99.8,16747],[99.8,16825],[99.8,16915],[99.8,16991],[99.8,17082],[99.8,17166],[99.8,17244],[99.8,17333],[99.8,17417],[99.8,17495],[99.8,17584],[99.8,17662],[99.8,17751],[99.8,17834],[99.8,17911],[99.8,18001],[99.8,18080],[99.8,18168],[99.8,18252],[99.8,18333],[99.8,18419],[99.8,18504],[99.8,18587],[99.8,18664],[99.8,18754],[99.8,18838],[99.8,18914],[99.8,19001],[99.8,19083],[99.8,19172],[99.8,19251],[99.8,19333],[99.8,19423],[99.8,19507],[99.8,19585],[99.8,19674],[99.8,19758],[99.8,19835],[99.8,19924],[99.8,20003],[99.8,20092],[99.8,20172],[99.8,20254],[99.8,20336],[99.8,20427],[99.8,20503],[99.8,20594],[99.8,20678],[99.8,20761],[99.8,20844],[99.8,20923],[99.8,21006],[99.8,21095],[99.8,21174],[99.8,21258],[99.8,21342],[99.8,21430],[99.8,21507],[99.8,21597],[99.8,21681],[99.8,21764],[99.8,21848],[99.8,21932],[99.8,22015],[99.8,22092],[99.8,22183],[99.8,22260],[99.8,22349],[99.8,22426],[99.8,22517],[99.8,22596],[99.8,22679],[99.8,22768],[99.8,22845],[99.8,22930],[99.8,23019],[99.8,23095],[99.8,23181],[99.8,23270],[99.8,23350],[99.8,23437],[99.8,23521],[99.8,23597],[99.8,23688],[99.8,23766],[99.8,23855],[99.8,23939],[99.8,24015],[99.8,24105],[99.8,24189],[99.8,24273],[99.8,24351],[99.8,24440],[99.8,24517],[99.8,24603],[99.8,24690],[99.8,24775],[99.8,24852],[99.8,24942],[99.8,25026],[99.8,25109],[99.8,25193],[99.8,25276],[99.8,25354],[99.8,25443],[99.8,25528],[99.8,25611],[99.8,25688],[99.8,25772],[99.8,25862],[99.8,25946],[99.8,26024],[99.8,26131],[99.8,26197],[99.8,26276],[99.8,26359],[99.8,26442],[99.8,26526]]",1,0,724.6667,728.6128,99.78038067,2.8085,"[{""rating"":99.78038067349927,""responseTime"":2.808499999999981}]",space,3.3941,,728.6129,Partially,50,728.6201,,,[],,0,1,1,1,1,audio/Narrative7Situation1.wav,audio/Narrative8Situation1.wav,audio/Narrative5Situation1.wav,audio/Narrative6Situation1.wav,2,5,5,2,,,,,,,,,,,,,,,,,,,,,,,,,,,,,,,,,,,,,,,
,,,,,,663cc6b84e65d79a540bec7e,2024-05-13_11h41.14.024,group3.1-3.2-social-tom,2023.2.2,Win32,59.88023952,65c5074098b851296ff0b7ed,664234341b97d5bbcd6e46bd,,,,,,,,,,,,,,,,,,,,,,,,,,,,,728.6208,2,audio/Narrative6Situation2.wav,731.6342,,731.6343,760.1329,"[[99.5,15157],[99.3,15236],[99,15325],[99,15408],[99,15492],[99,15570],[99,15659],[99,15743],[99,15826],[99.3,15910],[99.6,15988],[99.6,16077],[99.6,16154],[99.6,16238],[99.6,16328],[99.6,16412],[99.6,16488],[99.6,16579],[99.6,16663],[99.6,16746],[99.6,16829],[99.6,16908],[99.6,16992],[99.6,17080],[99.6,17161],[99.6,17248],[99.6,17326],[99.6,17410],[99.6,17498],[99.6,17575],[99.6,17666],[99.6,17749],[99.6,17830],[99.6,17913],[99.6,18000],[99.6,18084],[99.6,18162],[99.6,18251],[99.6,18328],[99.6,18415],[99.6,18502],[99.6,18581],[99.6,18669],[99.6,18754],[99.6,18830],[99.6,18920],[99.6,19005],[99.6,19084],[99.6,19166],[99.6,19254],[99.6,19335],[99.6,19421],[99.6,19506],[99.6,19589],[99.6,19673],[99.6,19751],[99.6,19833],[99.6,19924],[99.6,20002],[99.6,20091],[99.6,20175],[99.6,20253],[99.6,20342],[99.6,20418],[99.6,20504],[99.6,20592],[99.6,20671],[99.6,20759],[99.6,20843],[99.6,20927],[99.6,21010],[99.6,21094],[99.6,21179],[99.6,21255],[99.6,21338],[99.6,21429],[99.6,21513],[99.6,21591],[99.6,21679],[99.6,21757],[99.6,21843],[99.6,21925],[99.6,22014],[99.6,22098],[99.6,22180],[99.6,22265],[99.6,22344],[99.6,22427],[99.6,22515],[99.6,22597],[99.6,22677],[99.6,22767],[99.6,22844],[99.6,22933],[99.6,23017],[99.6,23096],[99.6,23181],[99.6,23269],[99.6,23345],[99.6,23435],[99.6,23519],[99.6,23598],[99.6,23686],[99.6,23771],[99.6,23853],[99.6,23937],[99.6,24016],[99.6,24104],[99.6,24188],[99.6,24266],[99.6,24355],[99.6,24440],[99.6,24516],[99.6,24606],[99.6,24690],[99.6,24767],[99.6,24857],[99.6,24937],[99.6,25024],[99.6,25109],[99.6,25187],[99.6,25275],[99.6,25360],[99.6,25437],[99.6,25526],[99.6,25611],[99.6,25688],[99.6,25772],[99.6,25861],[99.6,25944],[99.6,26027],[99.6,26112],[99.6,26188],[99.6,26278],[99.6,26362],[99.6,26446],[99.6,26530],[99.6,26607],[99.6,26697],[99.6,26781],[99.6,26859],[99.6,26948],[99.6,27026],[99.6,27108],[99.6,27195],[99.6,27282],[99.6,27361],[99.6,27449],[99.6,27533],[99.6,27611],[99.6,27700],[99.6,27784],[99.6,27862],[99.6,27951],[99.6,28028],[99.6,28118],[99.6,28203],[99.6,28296],[99.6,28381],[99.6,28464]]",1,0,760.1331,761.811,99.63396779,0.7198,"[{""rating"":99.63396778916544,""responseTime"":0.7197999999997364}]",space,1.1456,,761.811,Partially,50,761.8154,,,[],,0,2,2,2,1,audio/Narrative7Situation2.wav,audio/Narrative8Situation2.wav,audio/Narrative5Situation2.wav,audio/Narrative6Situation2.wav,3,3,3,3,,,,,,,,,,,,,,,,,,,,,,,,,,,,,,,,,,,,,,,
,,,,,,663cc6b84e65d79a540bec7e,2024-05-13_11h41.14.024,group3.1-3.2-social-tom,2023.2.2,Win32,59.88023952,65c5074098b851296ff0b7ed,664234341b97d5bbcd6e46bd,,,,,,,,,,,,,,,,,,,,,,,,,,,,,761.8159,2,audio/Narrative6Situation3.wav,766.8231,,766.8231,779.4491,"[[96.6,4641],[92.8,4715],[89.2,4800],[80.3,4883],[70.2,4966],[23.6,5802],[23.6,5886],[23.5,5969],[23.4,6053],[23.4,6136],[23.4,6219],[23.4,6303],[23.4,6387],[23.4,6469],[23.4,6554],[23.4,6637],[23.4,6720],[23.4,6805],[26.3,6889],[29.4,6973],[33.3,7057],[37.6,7140],[41.8,7224],[45.6,7307],[46.9,7391],[49.6,7475],[53.8,7559],[60.2,7642],[64.1,7726],[65.7,7807],[70.5,7894],[73.6,7976],[77.7,8060],[85.4,8144],[89.5,8227],[92,8310],[94.4,8394],[96,8478],[97.3,8562],[98.5,8645],[100,8729],[100,8811],[100,8896],[100,8978],[100,9063],[100,9146],[100,9230],[100,9313],[100,9398],[100,9481],[100,9565],[99.9,9647],[99.9,9731],[99.8,9815],[99.8,9900],[99.8,9982],[99.8,10065],[99.8,10149],[99.8,10232],[100,10317],[100,10400],[100,10485],[100,10568],[100,10650],[100,10734],[100,10818],[100,10903],[100,10985],[100,11070],[100,11153],[100,11236],[100,11321],[100,11404],[100,11488],[100,11571],[100,11655],[100,11739],[100,11822],[100,11905],[100,11990],[100,12072],[100,12156],[100,12240],[100,12325],[100,12406],[100,12491],[100,12574]]",1,0,779.4494,782.4417,99.78038067,1.6484,"[{""rating"":99.78038067349927,""responseTime"":1.6137000000002217},{""rating"":99.78038067349927,""responseTime"":1.6483999999994694}]",space,2.4633,,782.442,Partially,50,782.4478,,,[],,0,3,3,3,1,audio/Narrative7Situation3.wav,audio/Narrative8Situation3.wav,audio/Narrative5Situation3.wav,audio/Narrative6Situation3.wav,8,4,3,5,,,,,,,,,,,,,,,,,,,,,,,,,,,,,,,,,,,,,,,
,,,,,,663cc6b84e65d79a540bec7e,2024-05-13_11h41.14.024,group3.1-3.2-social-tom,2023.2.2,Win32,59.88023952,65c5074098b851296ff0b7ed,664234341b97d5bbcd6e46bd,,,,,,,,,,,,,,,,,,,,,,,,,,,,,782.4484,2,audio/Narrative6Situation4.wav,784.4495,,784.4496,797.0767,"[[97.4,6455],[89.2,6539],[81.3,6622],[74.6,6706],[68.2,6789],[61.6,6873],[52,6957],[44.7,7041],[42.5,7125],[41.7,7208],[41.2,7292],[39.6,7374],[38.7,7459],[37.7,7542],[28.5,8044],[27.2,8128],[27,8209],[27,8293],[27,8378],[26.9,8462],[29.6,8546],[29.6,8629],[29.6,8713],[29.6,8796],[29.6,8880],[29.6,8963],[29.6,9047],[29.6,9131],[29.6,9214],[28.6,9299],[27.9,9382],[27,9466],[26.9,9549],[26.6,9633],[26.4,9716],[25.7,9800],[24.4,9884],[23.8,9966],[23.8,10051],[23.8,10134],[23.8,10218],[23.8,10301],[23.8,10384],[23.8,10468],[23.8,10553],[23.8,10635],[23.8,10719],[23.8,10803],[23.8,10887],[23.8,10971],[23.8,11054],[23.8,11138],[23.8,11222],[23.8,11305],[23.8,11389],[23.8,11471],[23.8,11556],[23.8,11640],[23.8,11723],[23.8,11807],[23.8,11890],[23.8,11973],[23.8,12058],[23.8,12141],[23.8,12225],[23.8,12309],[23.8,12391],[23.8,12475],[23.8,12560]]",1,0,797.077,810.3054,0.366032211,2.2001,"[{""rating"":0.36603221083455484,""responseTime"":2.2000999999995656}]",space,12.6976,,810.3055,Partially,50,826.3168,49.85358712,14.1579,"[{""rating"":49.85358711566617,""responseTime"":14.157900000000382}]",space,0,4,4,4,1,audio/Narrative7Situation4.wav,audio/Narrative8Situation4.wav,audio/Narrative5Situation4.wav,audio/Narrative6Situation4.wav,3,3,1,2,,,15.4824,,,,,,,,,,,,,,,,,,,,,,,,,,,,,,,,,,,,
,,,,,,663cc6b84e65d79a540bec7e,2024-05-13_11h41.14.024,group3.1-3.2-social-tom,2023.2.2,Win32,59.88023952,65c5074098b851296ff0b7ed,664234341b97d5bbcd6e46bd,,,,,,,,,,,,,,,,,,,,,,,,,,,,,826.3174,2,audio/Narrative6Situation5.wav,828.3363,,828.3363,836.3171,"[[50.7,4390],[60.2,4470],[73.6,4553],[84.6,4637],[90.1,4720],[96.3,4805],[100,4886],[100,4969],[100,5049],[100,5130],[100,5221],[100,5300],[100,5387],[100,5466],[100,5556],[100,5639],[100,5723],[100,5806],[100,5889],[100,5971],[100,6050],[100,6140],[100,6225],[100,6301],[100,6391],[100,6472],[100,6553],[100,6642],[100,6721],[100,6802],[100,6894],[100,6976],[100,7060],[100,7145],[100,7221],[100,7305],[100,7390],[100,7473],[100,7562],[100,7644],[100,7724],[100,7813],[100,7897],[100,7980]]",1,0,836.3173,845.9431,99.63396779,6.9427,"[{""rating"":99.63396778916544,""responseTime"":1.4411000000005743},{""rating"":99.63396778916544,""responseTime"":6.942700000000173}]",space,9.0887,,845.9432,Not at all,0,845.9526,,,[],,0,5,5,5,1,audio/Narrative7Situation5.wav,audio/Narrative8Situation5.wav,audio/Narrative5Situation5.wav,audio/Narrative6Situation5.wav,5,2,5,2,,,,,,,,,,,,,,,,,,,,,,,,,,,,,,,,,,,,,,,
,,,,,,663cc6b84e65d79a540bec7e,2024-05-13_11h41.14.024,group3.1-3.2-social-tom,2023.2.2,Win32,59.88023952,65c5074098b851296ff0b7ed,664234341b97d5bbcd6e46bd,,,,,,,,,,,,,,,,,,,,,,,,,,,,,845.953,2,audio/Narrative6Situation6.wav,847.9683,,847.9683,859.0399,"[[99.5,3865],[99.3,3962],[99.3,4045],[99.3,4129],[99.3,4213],[99.3,4297],[99.3,4380],[99.3,4465],[99.3,4548],[99.3,4631],[99.3,4716],[99.3,4798],[99.3,4883],[99.3,4966],[99.3,5050],[99.3,5132],[99.3,5216],[99.3,5301],[99.3,5383],[99.3,5468],[99.3,5552],[99.3,5634],[99.3,5719],[99.3,5802],[99.3,5885],[99.3,5969],[99.3,6054],[99.3,6136],[99.3,6220],[99.3,6303],[99.3,6388],[99.3,6470],[99.3,6555],[99.3,6637],[99.3,6721],[99.3,6805],[99.3,6889],[99.3,6974],[99.3,7057],[99.3,7141],[99.3,7224],[99.3,7308],[99.3,7392],[99.3,7475],[99.3,7559],[99.3,7642],[99.3,7726],[99.3,7810],[99.3,7892],[99.3,7976],[99.3,8060],[99.3,8144],[99.3,8228],[99.3,8312],[99.3,8394],[99.3,8479],[99.3,8562],[99.3,8645],[99.3,8728],[99.3,8812],[99.3,8897],[99.3,8979],[99.3,9064],[99.3,9147],[99.3,9231],[99.3,9315],[99.3,9398],[99.3,9481],[99.3,9566],[99.3,9648],[99.3,9733],[99.3,9816],[99.3,9901],[99.3,9983],[99.3,10068],[99.3,10151],[99.3,10233],[99.3,10317],[99.3,10402],[99.3,10484],[99.3,10569],[99.3,10653],[99.3,10735],[99.3,10819],[99.3,10903],[99.3,10987],[99.3,11071]]",1,0,859.0401,861.9164,99.34114202,1.2119,"[{""rating"":99.3411420204978,""responseTime"":1.2119000000003552}]",space,2.3496,,861.9166,Not at all,0,861.9221,,,[],,0,6,6,6,1,audio/Narrative7Situation6.wav,audio/Narrative8Situation6.wav,audio/Narrative5Situation6.wav,audio/Narrative6Situation6.wav,3,2,3,2,,,,,,,,,,,,,,,,,,,,,,,,,,,,,,,,,,,,,,,
,,,,,,663cc6b84e65d79a540bec7e,2024-05-13_11h41.14.024,group3.1-3.2-social-tom,2023.2.2,Win32,59.88023952,65c5074098b851296ff0b7ed,664234341b97d5bbcd6e46bd,,,,,,,,,,,,,,,,,,,,,,,,,,,,,861.9226,2,audio/Narrative6Situation7.wav,866.9325,,866.9327,891.7749,"[[99.5,6897],[99.5,6980],[99.5,7064],[99.5,7148],[99.5,7231],[99.5,7314],[99.5,7393],[99.5,7476],[99.5,7562],[99.5,7650],[99.5,7728],[99.5,7817],[99.5,7895],[99.5,7983],[99.5,8067],[99.5,8145],[99.5,8234],[99.5,8311],[99.5,8401],[99.5,8485],[99.5,8562],[99.5,8645],[99.5,8736],[99.5,8820],[99.5,8896],[99.5,8987],[99.5,9066],[99.5,9153],[99.5,9231],[99.5,9316],[99.5,9398],[99.5,9489],[99.5,9573],[99.5,9656],[99.5,9740],[99.5,9817],[99.5,9907],[99.5,9990],[99.5,10074],[99.5,10158],[99.5,10242],[99.5,10318],[99.5,10408],[99.5,10492],[99.5,10569],[99.5,10659],[99.5,10743],[99.5,10822],[99.5,10910],[99.5,10994],[99.5,11077],[99.5,11161],[99.5,11240],[99.5,11329],[99.5,11412],[99.5,11491],[99.5,11579],[99.5,11663],[99.5,11741],[99.5,11830],[99.5,11909],[99.5,11994],[99.5,12081],[99.5,12160],[99.5,12248],[99.5,12332],[99.5,12408],[99.5,12499],[99.5,12583],[99.5,12659],[99.5,12749],[99.5,12829],[99.5,12911],[99.5,13000],[99.5,13080],[99.5,13162],[99.5,13252],[99.5,13335],[99.5,13419],[99.5,13496],[99.5,13587],[99.5,13669],[99.5,13754],[99.5,13838],[99.5,13920],[99.5,13997],[99.5,14081],[99.5,14170],[99.5,14256],[99.5,14334],[99.5,14422],[99.5,14500],[99.5,14583],[99.5,14673],[99.5,14751],[99.5,14836],[99.5,14924],[99.5,15008],[99.5,15086],[99.5,15169],[99.5,15253],[99.5,15342],[99.5,15426],[99.5,15510],[99.5,15586],[99.5,15673],[99.5,15755],[99.5,15844],[99.5,15928],[99.5,16006],[99.5,16095],[99.5,16178],[99.5,16257],[99.5,16345],[99.5,16424],[99.5,16508],[99.5,16590],[99.5,16673],[99.5,16759],[99.5,16841],[99.5,16924],[99.5,17015],[99.5,17098],[99.5,17178],[99.5,17265],[99.5,17349],[99.5,17426],[99.5,17513],[99.5,17597],[99.5,17677],[99.5,17768],[99.5,17851],[99.5,17934],[99.5,18013],[99.5,18096],[99.5,18185],[99.5,18264],[99.5,18347],[99.5,18436],[99.5,18520],[99.5,18598],[99.5,18681],[99.5,18771],[99.5,18854],[99.5,18938],[99.5,19022],[99.5,19105],[99.5,19182],[99.5,19272],[99.5,19356],[99.5,19437],[99.5,19516],[99.5,19607],[99.5,19691],[99.5,19774],[99.5,19858],[99.5,19937],[99.5,20025],[99.5,20109],[99.5,20187],[99.5,20276],[99.5,20355],[99.5,20438],[99.5,20527],[99.5,20605],[99.5,20690],[99.5,20778],[99.5,20858],[99.5,20945],[99.5,21028],[99.5,21112],[99.5,21196],[99.5,21279],[99.5,21363],[99.5,21447],[99.5,21530],[99.5,21609],[99.5,21698],[99.5,21778],[99.5,21860],[99.5,21948],[99.5,22025],[99.5,22111],[99.5,22199],[99.5,22283],[99.5,22359],[99.5,22443],[99.5,22534],[99.5,22617],[99.5,22701],[99.5,22777],[99.5,22862],[99.5,22952],[99.5,23035],[99.5,23115],[99.5,23203],[99.5,23281],[99.5,23369],[99.5,23454],[99.5,23531],[99.5,23621],[99.5,23697],[99.5,23787],[99.5,23871],[99.5,23956],[99.5,24039],[99.5,24115],[99.5,24206],[99.5,24289],[99.5,24374],[99.5,24457],[99.5,24533],[99.5,24619],[99.5,24702],[99.5,24786]]",1,0,891.7752,896.5591,99.4875549,3.5011,"[{""rating"":99.48755490483163,""responseTime"":3.50109999999961}]",space,4.249,,896.5591,Definitely yes,100,896.5653,,,[],,0,7,7,7,1,audio/Narrative7Situation7.wav,audio/Narrative8Situation7.wav,audio/Narrative5Situation7.wav,audio/Narrative6Situation7.wav,5,3,4,5,,,,,,,,,,,,,,,,,,,,,,,,,,,,,,,,,,,,,,,
,,,,,,663cc6b84e65d79a540bec7e,2024-05-13_11h41.14.024,group3.1-3.2-social-tom,2023.2.2,Win32,59.88023952,65c5074098b851296ff0b7ed,664234341b97d5bbcd6e46bd,,,,,,,,,,,,,,,,,,,,,,,,,,,,,896.5656,2,audio/Narrative6Situation8.wav,901.5725,,901.5726,908.4267,"[[99.3,1368],[98.5,1450],[98.5,1535],[98.5,1619],[98.5,1702],[98.5,1786],[98.9,1869],[98.9,1953],[98.9,2037],[98.9,2120],[98.9,2204],[98.9,2288],[98.9,2371],[98.9,2455],[98.9,2537],[98.9,2622],[98.9,2705],[98.9,2789],[98.9,2873],[98.9,2957],[98.9,3040],[98.9,3123],[98,3208],[96,3292],[88.4,3376],[76.4,3459],[67.4,3543],[56.1,3625],[45.6,3710],[32.7,3793],[20.3,3877],[15,3961],[12.4,4044],[11.6,4127],[10.9,4211],[10.6,4293],[10.5,4377],[10.5,4461],[10.3,4546],[10.2,4629],[10.2,4712],[10.2,4796],[10.2,4879],[10.2,4963],[10,5046],[9.3,5130],[9,5215],[8.6,5297],[8.3,5382],[8.3,5464],[8.3,5548],[7.7,5633],[7.2,5716],[7.1,5799],[7.1,5883],[7.1,5967],[7.1,6051],[7.1,6133],[7.1,6217],[7.1,6300],[7.1,6385],[7.1,6469],[7.1,6551],[7.1,6634],[6.8,6720],[6.8,6803]]",1,0,908.4269,913.9458,0.366032211,4.4965,"[{""rating"":0.36603221083455484,""responseTime"":4.496499999999969}]",space,4.9847,,913.9459,Definitely yes,100,913.951,,,[],,0,8,8,8,1,audio/Narrative7Situation8.wav,audio/Narrative8Situation8.wav,audio/Narrative5Situation8.wav,audio/Narrative6Situation8.wav,2,3,3,5,,,,,,,,,,,,,,,,,,,,,,,,,,,,,,,,,,,,,,,
,,,,,,663cc6b84e65d79a540bec7e,2024-05-13_11h41.14.024,group3.1-3.2-social-tom,2023.2.2,Win32,59.88023952,65c5074098b851296ff0b7ed,664234341b97d5bbcd6e46bd,,,,,,,,,,,,,,,,,,,,,,,,,,,,,913.9514,2,audio/Narrative6Situation9.wav,917.9586,,917.959,927.9157,"[[999,17],[999,117],[999,199],[999,284],[999,368],[999,451],[999,534],[999,617],[999,702],[999,786],[999,869],[999,953],[999,1036],[999,1120],[999,1203],[999,1286],[999,1371],[999,1453],[999,1537],[999,1621],[999,1706],[999,1789],[999,1872],[999,1956],[999,2039],[999,2124],[999,2206],[999,2289],[999,2374],[999,2457],[999,2541],[999,2626],[999,2710],[999,2793],[999,2875],[999,2958],[999,3044],[999,3127],[999,3211],[999,3294],[999,3378],[999,3462],[999,3546],[999,3629],[999,3711],[999,3795],[999,3880],[999,3964],[999,4047],[999,4131],[999,4213],[999,4298],[10,4386],[9.3,4472],[8.9,4555],[8.6,4631],[7.4,4723],[6.1,4807],[5.1,4890],[3,4974],[2.1,5057],[1.8,5134],[1.2,5224],[1.2,5302],[1.2,5391],[1.2,5475],[1.2,5553],[1.2,5641],[1.2,5726],[1.2,5805],[1.2,5892],[1.1,5976],[1.1,6055],[1,6144],[0.8,6227],[0.5,6305],[0.4,6394],[0.4,6473],[0.4,6561],[0.4,6645],[0.4,6723],[0.4,6812],[0.4,6889],[0.4,6974],[0.4,7062],[0.4,7147],[0.4,7225],[0.4,7314],[0.4,7393],[0.4,7482],[0.4,7565],[0.4,7642],[0.4,7732],[0.4,7810],[0.4,7899],[0.4,7978],[0.4,8059],[0.4,8145],[0.4,8234],[0.4,8318],[0.4,8400],[0.4,8484],[0.4,8569],[0.4,8646],[0.4,8736],[0.4,8819],[0.4,8898],[0.4,8987],[0.4,9065],[0.4,9154],[0.4,9238],[0.4,9315],[0.4,9405],[0.4,9488],[0.4,9567],[0.4,9655],[0.4,9733],[0.4,9817],[0.4,9907]]",1,0,927.916,929.8335,0.366032211,1.0357,"[{""rating"":0.36603221083455484,""responseTime"":1.0357000000002472}]",space,1.3728,,929.8337,Definitely yes,100,929.8392,,,[],,0,9,9,9,1,audio/Narrative7Situation9.wav,audio/Narrative8Situation9.wav,audio/Narrative5Situation9.wav,audio/Narrative6Situation9.wav,2,3,3,4,,,,,,,,,,,,,,,,,,,,,,,,,,,,,,,,,,,,,,,
,,,,,,663cc6b84e65d79a540bec7e,2024-05-13_11h41.14.024,group3.1-3.2-social-tom,2023.2.2,Win32,59.88023952,65c5074098b851296ff0b7ed,664234341b97d5bbcd6e46bd,,,,,,,,,,,,,,,,,,,,,,,,,,,,,929.8397,2,audio/Narrative5Situation1.wav,934.8509,,934.8511,948.1454,"[[0.5,3294],[0.7,3377],[0.7,3461],[0.7,3543],[0.7,3627],[0.7,3712],[0.7,3796],[0.7,3879],[0.7,3961],[0.7,4046],[0.7,4130],[0.7,4212],[0.7,4297],[0.7,4380],[0.7,4464],[0.7,4548],[0.7,4631],[0.7,4715],[0.7,4799],[0.7,4883],[0.7,4965],[0.7,5049],[0.7,5134],[0.7,5217],[0.7,5300],[0.7,5383],[0.7,5468],[3.4,5552],[12.2,5635],[20.3,5719],[28,5803],[34.5,5886],[38.4,5970],[41.7,6054],[44.7,6137],[46.9,6221],[48.1,6305],[49,6388],[49.1,6471],[49.1,6554],[49.1,6639],[49.1,6722],[49.1,6806],[49.1,6889],[49,6974],[47.4,7058],[46.2,7141],[45.9,7224],[45.6,7307],[45.6,7391],[45.6,7475],[45.6,7557],[45.6,7642],[45.6,7726],[45.6,7809],[45.6,7893],[45.6,7977],[45.6,8060],[45.6,8144],[45.6,8226],[45.6,8311],[45.6,8394],[45.6,8478],[45.6,8560],[45.6,8646],[45.6,8729],[45.6,8813],[45.6,8895],[45.6,8980],[45.6,9064],[45.6,9147],[45.6,9230],[45.6,9314],[47.1,9399],[48.8,9483],[49.7,9566],[50.1,9649],[50.1,9731],[50.3,9815],[50.3,9900],[50.3,9984],[50.3,10067],[50.3,10150],[50.3,10235],[49.6,10319],[48.5,10402],[48.2,10485],[48.2,10568],[48.2,10653],[48.2,10735],[48.2,10820],[48.2,10903],[48.4,10987],[48.7,11070],[49,11155],[49.1,11239],[49.1,11320],[49.1,11405],[49.1,11488],[49.1,11571],[49.1,11655],[49.1,11739],[49.1,11823],[49.1,11906],[49.1,11989],[49.1,12074],[49.1,12158],[49.1,12241],[49.1,12325],[49.1,12409],[49.1,12491],[49.1,12575],[49.1,12658],[49.1,12742],[49.1,12827],[49.1,12910],[49.1,12995],[49.1,13076],[49.1,13160],[49.1,13244]]",1,0,948.1459,960.0051,0.219619327,10.7925,"[{""rating"":0.21961932650073068,""responseTime"":10.792500000000018}]",space,11.3245,,960.0053,Partially,50,960.0123,,,[],,0,10,10,10,1,audio/Narrative8Situation1.wav,audio/Narrative7Situation1.wav,audio/Narrative6Situation1.wav,audio/Narrative5Situation1.wav,5,2,2,5,,,,,,,,,,,,,,,,,,,,,,,,,,,,,,,,,,,,,,,
,,,,,,663cc6b84e65d79a540bec7e,2024-05-13_11h41.14.024,group3.1-3.2-social-tom,2023.2.2,Win32,59.88023952,65c5074098b851296ff0b7ed,664234341b97d5bbcd6e46bd,,,,,,,,,,,,,,,,,,,,,,,,,,,,,960.0127,2,audio/Narrative5Situation2.wav,963.0171,,963.0172,992.4818,"[[0.1,2623],[0.8,2706],[0.8,2788],[0.8,2874],[0.8,2955],[0.8,3041],[0.8,3124],[0.8,3208],[0.8,3292],[0.8,3375],[0.8,3459],[0.8,3542],[0.8,3626],[0.8,3710],[0.8,3792],[0.8,3876],[0.8,3961],[0.8,4044],[0.8,4127],[0.8,4211],[0.8,4295],[0.8,4377],[0.8,4462],[0.8,4546],[0.8,4628],[0.8,4713],[0.8,4795],[0.8,4880],[0.8,4963],[0.8,5048],[0.8,5131],[0.8,5215],[0.8,5297],[0.8,5380],[0.8,5465],[0.8,5549],[0.8,5633],[0.8,5716],[0.8,5800],[0.8,5883],[0.8,5966],[0.8,6050],[0.8,6133],[0.8,6217],[0.8,6301],[0.8,6386],[0.8,6469],[0.8,6551],[0.8,6635],[0.8,6720],[0.8,6802],[0.8,6887],[0.8,6971],[0.8,7053],[0.8,7138],[0.8,7222],[0.2,8979],[11.5,9062],[29.8,9145],[51,9229],[72.3,9313],[91.3,9396],[100,9480],[100,9564],[100,9647],[100,9730],[100,9814],[100,9897],[100,9981],[100,10065],[100,10148],[100,10232],[100,10315],[100,10399],[100,10483],[100,10566],[100,10650],[100,10733],[100,10817],[100,10901],[100,10983],[100,11068],[100,11151],[100,11235],[100,11318],[100,11403],[100,11487],[100,11569],[100,11654],[100,11737],[100,11820],[100,11904],[100,11987],[100,12072],[100,12156],[100,12238],[100,12321],[100,12405],[100,12489],[100,12574],[100,12657],[100,12739],[100,12824],[100,12908],[100,12990],[100,13075],[100,13159],[100,13242],[100,13325],[100,13409],[100,13493],[100,13577],[100,13659],[100,13743],[100,13828],[100,13912],[100,13995],[100,14078],[100,14161],[100,14246],[100,14328],[100,14412],[100,14497],[100,14579],[100,14664],[100,14746],[100,14831],[100,14914],[100,14998],[100,15082],[100,15164],[100,15248],[100,15333],[100,15416],[100,15500],[100,15584],[100,15667],[100,15750],[100,15835],[100,15917],[100,16002],[100,16086],[100,16169],[100,16253],[100,16337],[100,16419],[100,16503],[100,16586],[100,16669],[100,16754],[100,16838],[100,16921],[100,17005],[100,17088],[100,17171],[100,17257],[100,17340],[100,17422],[100,17507],[100,17591],[100,17674],[100,17757],[100,17841],[100,17924],[100,18009],[100,18093],[100,18175],[100,18258],[100,18343],[100,18427],[100,18510],[100,18593],[100,18677],[100,18761],[100,18844],[100,18928],[100,19012],[100,19094],[100,19179],[100,19263],[100,19347],[100,19431],[100,19513],[100,19598],[100,19681],[100,19764],[100,19848],[100,19932],[100,20016],[100,20098],[100,20183],[100,20265],[100,20350],[100,20433],[100,20517],[100,20600],[100,20684],[100,20767],[100,20852],[100,20936],[100,21019],[100,21103],[100,21186],[100,21269],[100,21354],[100,21437],[100,21521],[100,21603],[100,21687],[100,21772],[100,21856],[100,21939],[100,22021],[100,22105],[100,22190],[100,22272],[100,22357],[100,22439],[100,22524],[100,22607],[100,22691],[100,22774],[100,22859],[100,22941],[100,23025],[100,23109],[100,23194],[100,23276],[100,23359],[100,23443],[100,23528],[100,23611],[100,23694],[100,23778],[100,23862],[100,23946],[100,24028],[100,24112],[100,24196],[100,24280],[100,24363],[100,24446],[100,24530],[100,24615],[100,24699],[100,24782],[100,24864],[100,24948],[100,25033],[100,25115],[100,25199],[100,25283],[100,25367],[100,25451],[100,25533],[100,25618],[100,25701],[100,25785],[100,25868],[100,25951],[100,26035],[100,26119],[100,26202],[100,26287],[100,26370],[100,26454],[100,26537],[100,26620],[100,26706],[100,26789],[100,26872],[100,26955],[100,27039],[100,27123],[100,27207],[100,27289],[100,27374],[100,27458],[100,27541],[100,27625],[100,27708],[100,27793],[100,27875],[100,27959],[100,28043],[100,28127],[100,28209],[100,28293],[100,28378],[100,28462],[100,28545],[100,28627],[100,28712],[100,28794],[100,28879],[100,28963],[100,29047],[100,29131],[100,29213],[100,29298],[100,29381],[100,29463]]",1,0,992.4826,999.1961,99.19472914,2.3813,"[{""rating"":99.19472913616399,""responseTime"":2.381299999999783}]",space,6.1803,,999.1962,Not at all,0,999.2203,,,[],,0,11,11,11,1,audio/Narrative8Situation2.wav,audio/Narrative7Situation2.wav,audio/Narrative6Situation2.wav,audio/Narrative5Situation2.wav,3,3,3,3,,,,,,,,,,,,,,,,,,,,,,,,,,,,,,,,,,,,,,,
,,,,,,663cc6b84e65d79a540bec7e,2024-05-13_11h41.14.024,group3.1-3.2-social-tom,2023.2.2,Win32,59.88023952,65c5074098b851296ff0b7ed,664234341b97d5bbcd6e46bd,,,,,,,,,,,,,,,,,,,,,,,,,,,,,999.2208,2,audio/Narrative5Situation3.wav,1002.2211,,1002.2212,1016.1526,"[[100,6379],[100,6958],[100,7042],[100,7125],[100,7209],[100,7293],[100,7372],[100,7459],[100,7544],[100,7627],[100,7710],[100,7789],[100,7877],[100,7956],[100,8040],[100,8128],[100,8212],[100,8295],[100,8379],[100,8463],[100,8541],[100,8630],[100,8713],[100,8797],[100,8877],[100,8964],[100,9048],[100,9132],[100,9215],[100,9299],[100,9383],[100,9466],[100,9545],[100,9633],[100,9710],[100,9801],[100,9884],[100,9967],[100,10047],[100,10129],[100,10220],[100,10310],[100,10382],[100,10470],[100,10548],[100,10637],[100,10721],[100,10804],[100,10888],[100,10972],[100,11050],[100,11138],[100,11222],[100,11306],[100,11389],[100,11474],[100,11552],[100,11640],[100,11717],[100,11802],[100,11885],[100,11975],[100,12058],[100,12137],[100,12220],[100,12309],[100,12393],[100,12476],[100,12555],[100,12644],[100,12722],[100,12811],[100,12895],[100,12979],[100,13055],[100,13140],[100,13229],[100,13313],[100,13390],[100,13480],[100,13564],[100,13647],[100,13731],[100,13815],[100,13891]]",1,0,1016.1528,1022.8875,99.34114202,5.6044,"[{""rating"":99.3411420204978,""responseTime"":5.604400000000396}]",space,6.1915,,1022.8877,Partially,50,1022.8958,,,[],,0,12,12,12,1,audio/Narrative8Situation3.wav,audio/Narrative7Situation3.wav,audio/Narrative6Situation3.wav,audio/Narrative5Situation3.wav,4,8,5,3,,,,,,,,,,,,,,,,,,,,,,,,,,,,,,,,,,,,,,,
,,,,,,663cc6b84e65d79a540bec7e,2024-05-13_11h41.14.024,group3.1-3.2-social-tom,2023.2.2,Win32,59.88023952,65c5074098b851296ff0b7ed,664234341b97d5bbcd6e46bd,,,,,,,,,,,,,,,,,,,,,,,,,,,,,1022.8964,2,audio/Narrative5Situation4.wav,1023.9076,,1023.9076,1044.3007,"[[100,11573],[100,11656],[100,11740],[100,11824],[99.8,11908],[98.3,11992],[93,12075],[91.3,12158],[91,12241],[91,12325],[91,12409],[91,12492],[91,12576],[91,12659],[91,12742],[91,12827],[91,12910],[91,12994],[91,13078],[91,13161],[91,13245],[91,13329],[91,13412],[91,13496],[91,13578],[91,13663],[91,13746],[91,13830],[91,13913],[91,13998],[91,14081],[91,14163],[91,14249],[91,14332],[91,14416],[91,14498],[91,14583],[91,14666],[91,14750],[91,14833],[91,14917],[91,15001],[91,15085],[91,15168],[91,15252],[91,15335],[91,15419],[91,15501],[91,15585],[91,15670],[91.1,15754],[93.3,15845],[95.5,15928],[96,16011],[96,16094],[96.3,16177],[96.9,16262],[97.3,16341],[98,16429],[98.6,16513],[99,16592],[99.2,16679],[99.2,16763],[99.2,16846],[99.2,16930],[99.2,17008],[99.2,17090],[99.2,17175],[99.2,17265],[99.2,17341],[99.2,17431],[99.2,17510],[99.2,17599],[99.2,17683],[99.2,17760],[99.2,17844],[99.2,17928],[99.2,18011],[99.2,18100],[99.2,18184],[99.2,18263],[99.2,18352],[99.2,18436],[99.2,18519],[99.2,18596],[99.2,18681],[99.2,18764],[99.2,18854],[99.2,18932],[99.2,19016],[99.2,19104],[99.2,19182],[99.2,19271],[99.2,19355],[99.2,19433],[99.2,19522],[99.2,19606],[99.2,19685],[99.2,19777],[99.2,19857],[99.2,19936],[99.2,20023],[99.2,20108],[99.2,20191],[99.2,20275],[99.2,20354]]",1,0,1044.3009,1046.7276,99.4875549,1.3091,"[{""rating"":99.48755490483163,""responseTime"":1.309100000000626}]",space,1.9023,,1046.7277,Not at all,0,1046.7379,,,[],,0,13,13,13,1,audio/Narrative8Situation4.wav,audio/Narrative7Situation4.wav,audio/Narrative6Situation4.wav,audio/Narrative5Situation4.wav,3,3,2,1,,,,,,,,,,,,,,,,,,,,,,,,,,,,,,,,,,,,,,,
,,,,,,663cc6b84e65d79a540bec7e,2024-05-13_11h41.14.024,group3.1-3.2-social-tom,2023.2.2,Win32,59.88023952,65c5074098b851296ff0b7ed,664234341b97d5bbcd6e46bd,,,,,,,,,,,,,,,,,,,,,,,,,,,,,1046.7383,2,audio/Narrative5Situation5.wav,1051.754,,1051.7544,1067.1736,"[[91.1,7156],[91.1,7240],[90.6,7324],[88.5,7408],[85.1,7491],[77.8,7575],[17.8,8495],[17.9,8578],[18.1,8662],[24.2,8747],[26,8829],[26,8913],[26,8995],[26,9080],[26.7,9164],[12.5,9499],[10,9582],[8.9,9666],[6.8,9750],[4.8,9833],[4.5,9916],[4.2,10001],[3.3,10084],[2.7,10168],[2.3,10251],[2,10334],[2,10418],[1.7,10502],[1.4,10584],[1.4,10669],[1.4,10751],[1.4,10836],[1.4,10920],[1.4,11003],[1.4,11087],[1.4,11169],[1.4,11253],[1.4,11337],[1.4,11420],[1.4,11505],[1.4,11587],[1.4,11672],[1.4,11755],[1.4,11840],[1.4,11923],[1.4,12006],[1.4,12090],[1.4,12174],[1.4,12257],[1.4,12341],[1.4,12423],[1.4,12509],[1.4,12592],[1.4,12675],[1.4,12759],[1.4,12842],[1.4,12925],[1.4,13010],[1.4,13094],[1.4,13177],[1.4,13260],[1.4,13345],[1.4,13427],[1.4,13512],[1.4,13594],[1.4,13679],[1.4,13761],[1.4,13846],[1.4,13930],[1.4,14013],[1.4,14098],[1.4,14181],[1.4,14264],[1.4,14348],[1.4,14432],[1.4,14514],[1.4,14599],[1.4,14682],[1.4,14765],[1.4,14849],[1.4,14933],[1.4,15016],[1.4,15099],[1.4,15184],[1.4,15268],[1.4,15351]]",1,0,1067.1739,1069.4143,0.366032211,1.1757,"[{""rating"":0.36603221083455484,""responseTime"":1.175699999999324}]",space,1.7124,,1069.4144,Partially,50,1069.422,,,[],,0,14,14,14,1,audio/Narrative8Situation5.wav,audio/Narrative7Situation5.wav,audio/Narrative6Situation5.wav,audio/Narrative5Situation5.wav,2,5,2,5,,,,,,,,,,,,,,,,,,,,,,,,,,,,,,,,,,,,,,,
,,,,,,663cc6b84e65d79a540bec7e,2024-05-13_11h41.14.024,group3.1-3.2-social-tom,2023.2.2,Win32,59.88023952,65c5074098b851296ff0b7ed,664234341b97d5bbcd6e46bd,,,,,,,,,,,,,,,,,,,,,,,,,,,,,1069.4224,2,audio/Narrative5Situation6.wav,1072.4234,,1072.4236,1078.1009,"[[1.7,3201],[58.3,3704],[63.6,3788],[67.6,3871],[70.8,3955],[72.8,4038],[76.2,4121],[80.7,4205],[81.5,4287],[81.5,4371],[82.4,5460],[85.7,5543],[87.2,5627]]",1,0,1078.101,1086.1618,98.6090776,7.0784,"[{""rating"":98.6090775988287,""responseTime"":7.078399999999647}]",space,7.5227,,1086.1619,Definitely yes,100,1086.1683,,,[],,0,15,15,15,1,audio/Narrative8Situation6.wav,audio/Narrative7Situation6.wav,audio/Narrative6Situation6.wav,audio/Narrative5Situation6.wav,2,3,2,3,,,,,,,,,,,,,,,,,,,,,,,,,,,,,,,,,,,,,,,
,,,,,,663cc6b84e65d79a540bec7e,2024-05-13_11h41.14.024,group3.1-3.2-social-tom,2023.2.2,Win32,59.88023952,65c5074098b851296ff0b7ed,664234341b97d5bbcd6e46bd,,,,,,,,,,,,,,,,,,,,,,,,,,,,,1086.1687,2,audio/Narrative5Situation7.wav,1090.1701,,1090.1702,1111.2074,"[[98.5,16707],[88.1,16807],[11.2,17225],[1.5,17643],[0.5,17726]]",1,0,1111.2079,1123.5005,0.073206442,11.3997,"[{""rating"":0.8052708638360162,""responseTime"":3.8600000000001273},{""rating"":4.465592972181554,""responseTime"":10.161900000000287},{""rating"":0.07320644216691208,""responseTime"":11.399700000000166}]",space,11.7536,,1123.5007,Partially,50,1123.5077,,,[],,0,16,16,16,1,audio/Narrative8Situation7.wav,audio/Narrative7Situation7.wav,audio/Narrative6Situation7.wav,audio/Narrative5Situation7.wav,3,5,5,4,,,,,,,,,,,,,,,,,,,,,,,,,,,,,,,,,,,,,,,
,,,,,,663cc6b84e65d79a540bec7e,2024-05-13_11h41.14.024,group3.1-3.2-social-tom,2023.2.2,Win32,59.88023952,65c5074098b851296ff0b7ed,664234341b97d5bbcd6e46bd,,,,,,,,,,,,,,,,,,,,,,,,,,,,,1123.508,2,audio/Narrative5Situation8.wav,1126.5103,,1126.5105,1135.3249,[],1,0,1135.325,1137.5154,0.219619327,1.2707,"[{""rating"":0.21961932650073068,""responseTime"":1.2707000000002608}]",space,1.6629,,1137.5155,Definitely yes,100,1137.5227,,,[],,0,17,17,17,1,audio/Narrative8Situation8.wav,audio/Narrative7Situation8.wav,audio/Narrative6Situation8.wav,audio/Narrative5Situation8.wav,3,2,5,3,,,,,,,,,,,,,,,,,,,,,,,,,,,,,,,,,,,,,,,
,,,,,,663cc6b84e65d79a540bec7e,2024-05-13_11h41.14.024,group3.1-3.2-social-tom,2023.2.2,Win32,59.88023952,65c5074098b851296ff0b7ed,664234341b97d5bbcd6e46bd,,,,,,,,,,,,,,,,,,,,,,,,,,,,,1137.523,2,audio/Narrative5Situation9.wav,1140.5252,,1140.5255,1180.0615,"[[4.2,4282],[5.3,4365],[4.2,4448],[4.2,4531],[4.2,4616],[4.2,4698],[5.2,4783],[5.6,4867],[5.8,4951],[5.8,5033],[5.8,5117],[5.8,5200],[5.8,5285],[5.8,5367],[5.8,5450],[5.8,5535],[5.8,5618],[5.8,5702],[5.8,5785],[5.8,5869],[5.8,5954],[5.8,6037],[5.8,6121],[5.8,6204],[5.8,6288],[5.8,6371],[5.8,6454],[5.8,6538],[5.8,6622],[5.8,6707],[5.8,6789],[5.8,6872],[5.8,6957],[5.8,7041],[6.2,7125],[18.4,7209],[33,7291],[42.8,7375],[47.7,7459],[51.3,7543],[53.2,7626],[53.8,7710],[54.1,7792],[54.1,7878],[54.1,7961],[52.5,8045],[52,8128],[51.5,8212],[50,8295],[49.7,8379],[49.7,8462],[49.7,8546],[49.7,8630],[49.7,8713],[49.7,8795],[49.7,8881],[49.7,8963],[49.7,9048],[49.9,9131],[50,9215],[50.1,9299],[50.1,9381],[50.1,9464],[50.1,9549],[50.1,9632],[50.1,9715],[50.1,9799],[50.1,9884],[50.1,9966],[50.1,10051],[50.1,10135],[50.1,10217],[50.1,10301],[50.1,10384],[50.1,10468],[50.1,10552],[50.1,10635],[50.1,10719],[50.1,10802],[50.1,10887],[50.1,10970],[50.1,11054],[50.1,11137],[50.1,11221],[50.1,11304],[50.1,11389],[50.1,11473],[50.1,11556],[50.1,11639],[50.1,11724],[50.1,11807],[50.1,11889],[50.1,11974],[50.1,12057],[50.1,12140],[50.1,12224],[50.1,12309],[50.1,12392],[50.1,12476],[50.1,12558],[50.1,12643],[50.1,12726],[50.1,12810],[50.1,12893],[50.1,12977],[50.1,13061],[50.1,13144],[50.1,13229],[50.1,13312],[50.1,13395],[50.1,13480],[50.1,13562],[50.1,13647],[50.1,13730],[50.1,13813],[50.1,13898],[50.1,13981],[50.1,14064],[50.1,14149],[50.1,14232],[50.1,14315],[50.1,14399],[50.1,14483],[50.1,14566],[50.1,14650],[50.1,14733],[50.1,14818],[50.1,14901],[50.1,14984],[50.1,15068],[50.1,15151],[50.1,15236],[50.1,15318],[50.1,15403],[50.1,15487],[50.1,15570],[50.1,15653],[50.1,15736],[50.1,15820],[50.1,15903],[50.1,15987],[50.1,16072],[50.1,16155],[50.1,16239],[50.1,16322],[50.1,16407],[50.1,16490],[50.1,16572],[50.1,16657],[50.1,16740],[50.1,16824],[55.1,16907],[60.2,16992],[63.9,17076],[70.5,17161],[75.9,17242],[78,17326],[80,17410],[81.3,17494],[82.1,17578],[83.4,17661],[84.6,17745],[85.1,17827],[86.2,17912],[86.9,17996],[88.4,18079],[90.3,18163],[92.3,18246],[94.7,18330],[95.4,18414],[96,18498],[96.4,18581],[97.1,18665],[97.9,18748],[98.2,18832],[98.2,18914],[98.2,18998],[98.2,19081],[98.2,19166],[98.2,19248],[98.2,19333],[98.2,19416],[98.2,19500],[98.5,19584],[98.6,19666],[98.9,19752],[99,19834],[99.2,19918],[99.2,20002],[99.2,20085],[99.2,20169],[99.2,20252],[99.2,20335],[99.2,20419],[99.2,20503],[99.2,20587],[99.2,20671],[99.2,20753],[99.2,20838],[99.2,20920],[99.2,21004],[99.2,21089],[99.2,21172],[99.2,21255],[99.2,21339],[99.2,21422],[99.2,21507],[99.2,21590],[99.2,21675],[99.2,21758],[99.2,21842],[99.2,21925],[99.2,22009],[99.2,22092],[99.2,22175],[99.2,22260],[99.2,22342],[99.2,22426],[99.2,22509],[99.2,22593],[99.2,22678],[99.2,22761],[99.2,22844],[99.2,22927],[99.2,23012],[99.2,23095],[99.2,23178],[99.2,23262],[99.2,23346],[99.2,23429],[99.2,23514],[99.2,23597],[99.2,23682],[99.2,23764],[99.2,23847],[99.2,23931],[99.2,24016],[99.2,24099],[99.2,24182],[99.2,24265],[98.3,24358],[96.9,24434],[95.1,24518],[93.8,24601],[93.5,24684],[93.5,24768],[93.5,24851],[93.5,24935],[93.5,25018],[93.5,25102],[93.5,25187],[93.5,25269],[93.5,25353],[93.5,25437],[93.5,25521],[93.5,25603],[93.5,25688],[93.5,25770],[93.5,25855],[93.5,25938],[93.5,26022],[93.5,26105],[93.5,26190],[93.5,26272],[93.5,26357],[93.5,26441],[93.5,26523],[93.5,26608],[93.5,26690],[93.5,26775],[93.5,26858],[93.5,26942],[93.5,27025],[93.5,27109],[93.5,27192],[93.5,27278],[93.5,27360],[93.5,27444],[93.5,27527],[93.5,27611],[93.5,27694],[93.5,27777],[93.5,27862],[93.5,27945],[93.5,28029],[93.5,28112],[93.5,28196],[93.5,28279],[93.5,28363],[93.5,28448],[93.5,28531],[93.5,28614],[93.5,28698],[93.9,28782],[95.1,28867],[96.1,28949],[96.7,29032],[96.7,29116],[97,29200],[97.4,29285],[97.7,29367],[97.9,29451],[97.9,29534],[97.9,29619],[97.9,29701],[97.9,29785],[97.9,29868],[97.9,29953],[97.9,30037],[97.9,30119],[97.9,30203],[97.9,30286],[97.9,30370],[97.9,30455],[97.9,30537],[97.9,30621],[97.9,30705],[97.9,30788],[97.9,30872],[97.9,30956],[97.9,31039],[97.9,31122],[97.9,31208],[97.9,31290],[97.9,31373],[97.9,31458],[97.9,31542],[97.9,31625],[97.9,31709],[97.9,31792],[97.9,31876],[97.9,31958],[97.9,32042],[97.9,32126],[97.9,32209],[97.9,32294],[97.9,32377],[97.9,32461],[97.9,32545],[97.9,32629],[97.9,32713],[97.9,32795],[97.9,32879],[97.9,32962],[97.9,33047],[97.9,33129],[97.9,33213],[97.9,33297],[97.9,33380],[97.9,33465],[97.9,33549],[97.9,33631],[97.9,33715],[97.9,33798],[97.9,33882],[97.9,33965],[97.9,34050],[97.9,34133],[97.9,34216],[97.9,34301],[97.9,34385],[97.9,34468],[97.9,34551],[97.9,34636],[97.9,34718],[97.9,34802],[97.9,34885],[97.9,34969],[97.9,35053],[97.9,35136],[97.9,35220],[97.9,35305],[97.9,35388],[97.9,35471],[97.9,35555],[97.9,35638],[97.9,35722],[97.9,35805],[97.9,35890],[97.9,35973],[97.9,36058],[97.9,36141],[97.9,36223],[97.9,36307],[97.9,36390],[97.9,36476],[97.9,36558],[97.9,36643],[97.9,36727],[97.9,36810],[97.9,36892],[97.9,36978],[97.9,37059],[97.9,37143],[97.9,37227],[97.9,37310],[97.9,37394],[97.9,37478],[97.9,37563],[97.9,37645],[97.9,37729],[97.9,37813],[97.9,37897],[97.9,37980],[97.9,38063],[97.9,38146],[97.9,38231],[97.9,38314],[97.9,38399],[97.9,38481],[97.9,38566],[97.9,38648],[97.9,38734],[97.9,38815],[97.9,38900],[97.9,38983],[97.9,39066],[97.9,39151],[97.9,39235],[97.9,39319],[97.9,39402],[97.9,39485]]",1,0,1180.0623,1183.3735,97.87701318,1.0683,"[{""rating"":97.87701317715958,""responseTime"":1.0683000000008178}]",space,2.7813,,1183.3737,Partially,50,1183.3818,,,[],,0,18,18,18,1,audio/Narrative8Situation9.wav,audio/Narrative7Situation9.wav,audio/Narrative6Situation9.wav,audio/Narrative5Situation9.wav,3,2,4,3,,,,,,,,,,,,,,,,,,,,,,,,,,,,,,,,,,,,,,,
,,,,,,663cc6b84e65d79a540bec7e,2024-05-13_11h41.14.024,group3.1-3.2-social-tom,2023.2.2,Win32,59.88023952,65c5074098b851296ff0b7ed,664234341b97d5bbcd6e46bd,,,,,,,,,,,,,,,,,,,,,,,,,,,,,,,,,,,,,,,,,,,,,,,,,,,,,,,,,,,,,,,,,,,,,,,,1183.3823,1193.6761,space,9.7674,,1193.6773,1222.0584,space,28.0561,,,,,,,,,,,,,,,,,,,,,,,,,,
,,,,,,663cc6b84e65d79a540bec7e,2024-05-13_11h41.14.024,group3.1-3.2-social-tom,2023.2.2,Win32,59.88023952,65c5074098b851296ff0b7ed,664234341b97d5bbcd6e46bd,,,,,,,,,,,,,,,,,,,,,,,,,,,,,1224.675,1,audio/Narrative7Situation9.wav,1226.6904,,,,,,,1258.6408,1263.048,66.98389458,3.2815,"[{""rating"":66.98389458272328,""responseTime"":3.2814999999998236}]",space,3.8654,,1258.6344,Definitely yes,100,1258.6407,,,[],,,,,,,,,,,2,2,2,2,,,,,,,,,,,,,,,1222.0775,1224.6492,1226.6908,3,1258.6343,"[[97.4,14247],[97.3,14331],[97.3,14414],[97.3,14497],[97.7,14582],[98.2,14664],[98.2,14749],[98.2,14833],[98.2,14916],[98.2,14999],[98.2,15084],[98.2,15165],[98.2,15250],[98.2,15333],[97.9,15418],[94.1,15502],[85.7,15585],[76.2,15668],[73,15753],[67.6,15836],[57.9,15920],[47.4,16003],[51.5,29634],[51.8,29717],[52,29801],[52,29884],[52,29968],[52,30052],[52,30134],[52,30218],[52,30302],[52,30386],[52,30470],[52,30552],[52,30635],[52,30719],[52,30803],[52,30886],[52,30970],[52,31054],[52,31137],[52,31221],[52,31306],[52,31389],[52,31473],[52,31556],[52,31639],[52,31723],[52,31807],[52,31891]]",0,0,0,0,1,"Larry had recently lost his family, job and home, and was now living on his own in the park. He had most of his belongings, including some clothes, a blanket, and his mother’s special necklace. His family had been very important to him and he felt as though he did not have much going for him. One of his first days in the park he came across a family that did not have much food and looked very cold. He decided to give them some of his food and his blanket.","Larry had recently lost his family, job and home, and was now living on his own in the park. He had most of his belongings, including some clothes, a blanket, and his mother’s special necklace. His family had been very important to him and he felt as though he did not have much going for him. One of his first days in the park he came across a family that did not have much food and looked very cold. He decided to give them some of his food and his blanket.","Larry had recently lost his family, job and home, and was now living on his own in the park. He had most of his belongings, including some clothes, a blanket, and his mother’s special necklace. His family had been very important to him and he felt as though he did not have much going for him. One of his first days in the park he came across a family that did not have much food and looked very cold. He decided to give them some of his food and his blanket.","Larry had recently lost his family, job and home, and was now living on his own in the park. He had most of his belongings, including some clothes, a blanket, and his mother’s special necklace. His family had been very important to him and he felt as though he did not have much going for him. One of his first days in the park he came across a family that did not have much food and looked very cold. He decided to give them some of his food and his blanket.",,,,,,,,,,
,,,,,,663cc6b84e65d79a540bec7e,2024-05-13_11h41.14.024,group3.1-3.2-social-tom,2023.2.2,Win32,59.88023952,65c5074098b851296ff0b7ed,664234341b97d5bbcd6e46bd,,,,,,,,,,,,,,,,,,,,,,,,,,,,,1263.0497,1,audio/Narrative7Situation9.wav,1274.7553,space,,,,,,1298.6894,1303.3768,1.098096633,3.9053,"[{""rating"":1.098096632503659,""responseTime"":3.9053000000005795}]",space,4.1594,,1298.6703,Definitely yes,100,1298.6894,,,[],,,,,,,,,,,6,2,3,9,11.6891,,,,,,,,,,,,,,,,1274.7554,3,1298.6699,"[[67.1,14248],[67.3,14332],[66.8,14414],[66.8,14498],[66.8,14581],[66.8,14665],[66.8,14748],[67.3,14833],[67.3,14917],[67.3,15001],[60.1,15085],[46.5,15168],[33.7,15252],[23.8,15336],[12.2,15419],[8,15503],[6.8,15586],[5.9,15670],[5.1,15754]]",0,1,1,1,1,"It was just another Sunday afternoon for Lucy, she was on her way to the farmer's market to pick up some produce. When she arrived at the old train depot that housed the market, she noticed two men fighting on the steps. Before she could call for help, one of the men crumpled to his knees. The other man dropped an object that appeared to be a knife and ran off. When Lucy approached the crime scene she realized that the man who had been murdered was the Mayor and that he had a gunshot wound.","One day at work, Margaret walked up to her partner, Al, to ask him to talk to the chief of staff at the local hospital where she worked as a nurse.","Luke always thought of himself as an honest man. That's why during his evening jog around the swamp, he pondered his recent affair with the receptionist at work. Luke looked up at the sky and asked God why he was so weak and unfaithful. He thought of the impact this would have on his family and told God of his conflicted feelings toward telling his wife Marta.","Linda and Amy had been best friends since kindergarten, they even found homes on the same street in the forest on the edge of town. Their biggest fight had been over who gets the bigger slice of cake, until Amy married Dan. Linda loathed Dan, she thought he was manipulative and had a violent temper. She only put up with him because Amy loved him. ",,,,,,,,,,
,,,,,,663cc6b84e65d79a540bec7e,2024-05-13_11h41.14.024,group3.1-3.2-social-tom,2023.2.2,Win32,59.88023952,65c5074098b851296ff0b7ed,664234341b97d5bbcd6e46bd,,,,,,,,,,,,,,,,,,,,,,,,,,,,,1303.3774,1,audio/Narrative7Situation9.wav,1308.3869,,,,,,,1334.6498,1336.8354,97.87701318,0.9736,"[{""rating"":97.87701317715958,""responseTime"":0.9735999999998057}]",space,1.6391,,1334.6444,Definitely yes,100,1334.6497,,,[],,,,,,,,,,,4,5,2,2,,,,,,,,,,,,,,,,,1308.3872,3,1334.6438,"[[10,3546],[19.3,3629],[27.2,3713],[31.3,3796],[36.4,3880],[38.6,3964],[39.9,4048],[42.7,4130],[44,4214],[45.2,4298],[46.2,4382],[47.2,4465],[47.4,4549],[47.5,4632],[47.5,4714],[47.5,4798],[47.5,4882],[47.5,4967],[47.5,5049],[47.5,5134],[47.5,5216],[47.5,5302],[47.5,5384],[47.5,5469],[47.5,5551],[47.5,5636],[47.5,5718],[47.5,5801],[47.5,5886],[47.5,5970],[47.5,6054],[47.5,6138],[47.5,6221],[47.5,6305],[47.5,6387],[47.5,6472],[47.5,6556],[47.5,6638],[47.5,6722],[47.5,6805],[47.5,6890],[47.5,6974],[47.5,7057],[47.5,7141],[47.5,7223],[47.5,7308],[47.5,7391],[47.5,7475],[47.5,7558],[47.5,7642],[47.5,7725],[47.5,7808],[47.5,7893],[47.5,7976],[47.5,8060],[47.5,8144],[47.5,8228],[47.5,8310],[47.5,8394],[47.5,8477],[47.5,8562],[47.5,8646],[47.5,8730],[47.5,8813],[47.5,8896],[47.5,8980],[47.5,9063],[47.5,9148],[47.5,9230],[47.5,9314],[47.5,9397],[47.5,9482],[47.5,9564],[47.5,9649],[47.5,9732],[47.5,9816],[47.5,9899],[47.5,9983],[47.5,10068],[47.5,10152],[47.5,10233],[47.5,10318],[47.5,10402],[47.5,10486],[47.5,10569],[47.5,10653],[47.5,10735],[47.5,10819],[47.5,10903],[47.5,10987],[47.5,11070],[47.5,11155],[47.5,11237],[47.5,11322],[47.5,11406],[47.5,11488],[47.5,11572],[47.5,11656],[47.5,11740],[47.5,11823],[47.5,11906],[47.5,11990],[47.5,12075],[47.5,12157],[47.5,12241],[47.5,12326],[47.5,12409],[47.5,12493],[47.5,12577],[47.5,12659],[47.5,12742],[47.5,12826],[47.5,12910],[47.5,12993],[47.5,13077],[47.5,13161],[47.5,13246],[47.5,13328],[47.5,13411],[47.5,13495],[51.6,13583],[59.8,13664],[70.8,13747],[76.8,13831],[87.6,13915],[89.7,13997],[91.4,14082],[93.3,14165],[94.8,14249],[95.1,14333],[95.5,14415],[95.7,14500],[95.7,14582],[95.7,14665],[95.7,14749],[95.7,14833],[95.7,14917],[95.7,15000],[95.7,15085],[95.7,15168],[95.7,15253],[95.7,15335],[95.7,15419],[95.7,15503],[95.7,15586],[95.7,15670],[95.7,15754],[95.7,15836],[95.7,15920],[95.7,16003],[95.7,16087],[95.7,16172],[95.7,16254],[95.7,16339],[95.7,16423],[95.7,16506],[95.7,16589],[95.7,16672],[95.7,16756],[95.7,16841],[95.7,16924],[95.7,17008],[95.7,17091],[95.7,17175],[95.7,17258],[95.7,17342],[95.7,17426],[95.7,17510],[95.7,17592],[95.7,17677],[95.7,17760],[95.7,17844],[95.7,17927],[95.7,18010],[95.7,18094],[95.7,18178],[95.7,18261],[95.7,18345],[95.7,18430],[95.7,18514],[95.7,18596],[95.7,18681],[95.7,18765],[95.7,18848],[95.7,18930],[95.7,19015],[95.7,19099],[95.7,19183],[95.7,19265],[95.7,19349],[95.7,19432],[95.7,19516],[95.7,19599],[95.7,19684],[95.7,19767],[95.7,19850],[95.7,19934],[95.7,20018],[95.7,20101],[95.7,20185],[95.7,20268],[95.7,20353],[95.7,20437],[95.7,20521],[95.7,20604],[95.7,20686],[95.7,20771],[95.7,20854],[95.7,20937],[95.7,21023],[95.7,21104],[95.7,21188],[95.7,21272],[95.7,21357],[95.7,21440],[95.7,21524],[95.7,21606],[95.7,21690],[95.7,21775],[95.7,21857],[95.7,21941],[95.7,22025],[95.7,22108],[95.7,22193],[95.7,22276],[95.7,22360],[95.7,22443],[95.7,22527],[95.7,22610],[95.7,22693],[95.7,22778],[95.7,22862],[95.7,22944],[95.7,23027],[95.7,23113],[95.7,23196],[95.7,23279],[95.7,23362],[95.7,23447],[95.7,23530],[95.7,23613],[95.7,23697],[95.7,23781],[95.7,23866],[95.7,23949],[95.7,24032],[95.7,24115],[95.7,24198],[95.7,24282],[95.7,24367],[95.7,24449],[95.7,24534],[95.7,24617],[95.7,24700],[95.7,24784],[95.7,24867],[95.7,24951],[95.7,25035],[95.7,25119],[95.7,25203],[95.7,25287],[95.7,25369],[95.7,25454],[95.7,25537],[95.7,25621],[95.7,25705],[95.7,25788],[95.7,25872],[95.7,25956],[95.7,26039],[95.8,26123],[96.9,26207]]",0,2,2,2,1,On the ground beside him was a pen that she had mistaken for a knife. Lucy looked for the gunman and saw a suspicious man in black with distinct pointy features darting into an alley across the street. Cops who were nearby chased the man who had fled and arrested him.,"While waiting outside the chief of staff's office, Al heard nondescript shouting and yelling, there was a loud clatter in the room and then an eerie silence. An unfamiliar employee ran hastily out of the office with a terrified look on their face.","Suddenly, Luke heard a woman call out his name and when he turned around he saw Carly, his receptionist, across the road with a gun in her hand. Carly ran to him and explained how she had followed him here to confess her love. She exclaimed if Luke didn't love her back that she would kill him and his family. Carly explained that the only way they could be together is to kill Marta.","This feeling of hate between Amy and Dan was mutual, Dan didn't like how much time his wife spent with her and thought Amy was creating distance between their marriage. That's why Dan decided to try and tarnish Linda's reputation with his wife, in hopes it would get rid of her. He came home one afternoon and exclaimed that Linda had tried to kiss him. Amy was taken aback and immediately called Linda to confront her about these accusations. When Linda arrived she denied having made a move on Dan, but discovered Dan had enlisted the help of his friend Will who said he witnessed it all happen.",,,,,,,,,,
,,,,,,663cc6b84e65d79a540bec7e,2024-05-13_11h41.14.024,group3.1-3.2-social-tom,2023.2.2,Win32,59.88023952,65c5074098b851296ff0b7ed,664234341b97d5bbcd6e46bd,,,,,,,,,,,,,,,,,,,,,,,,,,,,,1336.8362,1,audio/Narrative7Situation9.wav,1338.8424,,,,,,,1361.4254,1364.9488,98.46266471,2.3842,"[{""rating"":98.46266471449488,""responseTime"":2.3842000000001917}]",space,2.9801,,1361.4194,Definitely yes,100,1361.4254,,,[],,,,,,,,,,,2,2,1,4,,,,,,,,,,,,,,,,,1338.8424,3,1361.4193,"[[97.9,18331],[97.7,18412],[97.7,18495],[97.7,18580],[97.7,18663],[97.7,18746],[97.7,18830],[97.7,18913],[97.9,18998],[97.9,19081],[97.9,19166],[97.9,19248],[97.9,19333],[97.9,19415],[97.9,19500],[97.9,19583],[97.9,19666],[97.9,19750],[97.9,19833],[97.9,19917],[97.9,20000],[97.9,20085],[97.9,20169],[97.9,20251],[97.9,20335],[97.9,20420],[97.9,20502],[97.9,20586],[97.9,20669],[97.9,20753],[97.9,20837],[97.9,20920],[97.9,21005],[97.9,21089],[97.9,21172],[97.9,21256],[97.9,21338],[97.9,21422],[97.9,21505],[97.9,21590],[97.9,21672],[97.9,21756],[97.9,21841],[98.2,21926],[98.3,22008],[98.5,22091],[98.5,22175],[98.5,22259],[98.5,22342],[98.5,22427],[98.5,22509]]",0,3,3,3,1,"But Lucy knew the charged man was innocent, which meant the killer was free. Lucy vowed to find out who the real murderer was and to stop him at all costs.","Al explained to the chief of staff that Margaret wanted to be excused from her absences last week. The chief of staff, Susan, revealed that she wanted to fire Margaret and never see her again. Susan and Al had been having an affair and she wanted Margaret ""out of the picture"". Al was conflicted, but agreed it would be for the best.","Luke thought of his child and felt like this was his only option. He agreed to the plan and called his wife to meet him at the swamp to watch the sunset with him. When she arrived, Marta called out for her husband, but found Carly waiting for her. She immediately drew her gun and shot her in the chest, knocking her unconscious.","Since it was their word against her own, she decided to go home and admit defeat. She knew how much it would hurt Amy to know the truth.",,,,,,,,,,
