exp_question,consent.started,consent.stopped,consentResponse.keys,consentResponse.rt,consentResponse.duration,participantID,date,expName,psychopyVersion,OS,frameRate,STUDY_ID,SESSION_ID,opening1.started,opening1.stopped,keyEndingOpening1.keys,keyEndingOpening1.rt,keyEndingOpening1.duration,volumeAdjust.started,volumeAdjust.stopped,endingAdjust.keys,endingAdjust.rt,endingAdjust.duration,opening2.started,opening2.stopped,keyEndingOpening.keys,keyEndingOpening.rt,keyEndingOpening.duration,mouse.x,mouse.y,mouse.leftButton,mouse.midButton,mouse.rightButton,mouse.time,instructionLoop.thisRepN,instructionLoop.thisTrialN,instructionLoop.thisN,instructionLoop.thisIndex,instructionLoop.ran,readyForAudio.started,readyForAudio.stopped,fixation.started,run,audio_played,fixation.stopped,endPractice.keys,audioPre.started,audioPre.stopped,continuousResponses_audio,continuousSlider.response,continuousSlider.rt,intRating.started,intRating.stopped,intQuestionSlider.response,intQuestionSlider.rt,intQuestionSlider.history,confirmResponse.keys,confirmResponse.rt,confirmResponse.duration,catchQuestion.started,catch_label,catch_value,catchQuestion.stopped,catchQuestionSlider.response,catchQuestionSlider.rt,catchQuestionSlider.history,confirmResponse_2.keys,audioRunLoop.thisRepN,audioRunLoop.thisTrialN,audioRunLoop.thisN,audioRunLoop.thisIndex,audioRunLoop.ran,conditions1_1,conditions2_1,conditions1_2,conditions2_2,dur1_1,dur2_1,dur1_2,dur2_2,endPractice.rt,endPractice.duration,confirmResponse_2.rt,confirmResponse_2.duration,runIntervalBreak.started,runIntervalBreak.stopped,endingBreakKey.keys,endingBreakKey.rt,endingBreakKey.duration,connection.started,connection.stopped,connectionEnding.keys,connectionEnding.rt,connectionEnding.duration,readyForText.started,readyForText.stopped,textPre.started,run_dup,textPre.stopped,continuousResponses_text,textRunLoop.thisRepN,textRunLoop.thisTrialN,textRunLoop.thisN,textRunLoop.thisIndex,textRunLoop.ran,text1_1,text1_2,text2_1,text2_2,runBreakText.started,runBreakText.stopped,endingBreakKey_2.keys,endingBreakKey_2.rt,endingBreakKey_2.duration,ending.started,ending.stopped,endingEnding.keys,endingEnding.rt,endingEnding.duration
tom,0.0011,34.3707,y,34.0471,,663e3c879d11a64e4dbc8912,2024-05-14_12h46.21.321,group3.1-3.2-social-tom,2023.2.2,MacIntel,60.0024001,65c5074098b851296ff0b7ed,6643a351648e62756371155d,,,,,,,,,,,,,,,,,,,,,,,,,,,,,,,,,,,,,,,,,,,,,,,,,,,,,,,,,,,,,,,,,,,,,,,,,,,,,,,,,,,,,,,,,,,,,,,,,,,,,,,,,,
,,,,,,663e3c879d11a64e4dbc8912,2024-05-14_12h46.21.321,group3.1-3.2-social-tom,2023.2.2,MacIntel,60.0024001,65c5074098b851296ff0b7ed,6643a351648e62756371155d,34.371,41.3707,space,6.9553,,,,,,,,,,,,,,,,,,,,,,,,,,,,,,,,,,,,,,,,,,,,,,,,,,,,,,,,,,,,,,,,,,,,,,,,,,,,,,,,,,,,,,,,,,,,,,,,,,,,,,
,,,,,,663e3c879d11a64e4dbc8912,2024-05-14_12h46.21.321,group3.1-3.2-social-tom,2023.2.2,MacIntel,60.0024001,65c5074098b851296ff0b7ed,6643a351648e62756371155d,,,,,,41.3709,55.3059,space,13.5981,,,,,,,,,,,,,,,,,,,,,,,,,,,,,,,,,,,,,,,,,,,,,,,,,,,,,,,,,,,,,,,,,,,,,,,,,,,,,,,,,,,,,,,,,,,,,,,,,
,,,,,,663e3c879d11a64e4dbc8912,2024-05-14_12h46.21.321,group3.1-3.2-social-tom,2023.2.2,MacIntel,60.0024001,65c5074098b851296ff0b7ed,6643a351648e62756371155d,,,,,,,,,,,55.3138,69.6046,space,14.2619,,[],[],[],[],[],[],0,0,0,0,1,,,,,,,,,,,,,,,,,,,,,,,,,,,,,,,,,,,,,,,,,,,,,,,,,,,,,,,,,,,,,,,,,,,,,,,,,,,,,,,,
,,,,,,663e3c879d11a64e4dbc8912,2024-05-14_12h46.21.321,group3.1-3.2-social-tom,2023.2.2,MacIntel,60.0024001,65c5074098b851296ff0b7ed,6643a351648e62756371155d,,,,,,,,,,,69.6057,94.2358,space,24.5296,,[],[],[],[],[],[],1,0,1,0,1,,,,,,,,,,,,,,,,,,,,,,,,,,,,,,,,,,,,,,,,,,,,,,,,,,,,,,,,,,,,,,,,,,,,,,,,,,,,,,,,
,,,,,,663e3c879d11a64e4dbc8912,2024-05-14_12h46.21.321,group3.1-3.2-social-tom,2023.2.2,MacIntel,60.0024001,65c5074098b851296ff0b7ed,6643a351648e62756371155d,,,,,,,,,,,94.2365,115.6349,space,21.3529,,[],[],[],[],[],[],2,0,2,0,1,,,,,,,,,,,,,,,,,,,,,,,,,,,,,,,,,,,,,,,,,,,,,,,,,,,,,,,,,,,,,,,,,,,,,,,,,,,,,,,,
,,,,,,663e3c879d11a64e4dbc8912,2024-05-14_12h46.21.321,group3.1-3.2-social-tom,2023.2.2,MacIntel,60.0024001,65c5074098b851296ff0b7ed,6643a351648e62756371155d,,,,,,,,,,,115.6352,140.5201,space,24.8529,,[],[],[],[],[],[],3,0,3,0,1,,,,,,,,,,,,,,,,,,,,,,,,,,,,,,,,,,,,,,,,,,,,,,,,,,,,,,,,,,,,,,,,,,,,,,,,,,,,,,,,
,,,,,,663e3c879d11a64e4dbc8912,2024-05-14_12h46.21.321,group3.1-3.2-social-tom,2023.2.2,MacIntel,60.0024001,65c5074098b851296ff0b7ed,6643a351648e62756371155d,,,,,,,,,,,140.5206,158.9551,space,18.4034,,[],[],[],[],[],[],4,0,4,0,1,,,,,,,,,,,,,,,,,,,,,,,,,,,,,,,,,,,,,,,,,,,,,,,,,,,,,,,,,,,,,,,,,,,,,,,,,,,,,,,,
,,,,,,663e3c879d11a64e4dbc8912,2024-05-14_12h46.21.321,group3.1-3.2-social-tom,2023.2.2,MacIntel,60.0024001,65c5074098b851296ff0b7ed,6643a351648e62756371155d,,,,,,,,,,,,,,,,,,,,,,,,,,,158.9582,161.5366,161.5594,1,audio/Narrative13Situation2.wav,163.5691,,163.5692,193.3193,"[[999,2],[999,136],[999,214],[999,301],[999,382],[999,465],[999,549],[999,631],[999,718],[999,798],[999,884],[999,965],[999,1048],[999,1132],[999,1216],[999,1299],[999,1383],[999,1468],[999,1550],[999,1633],[999,1714],[999,1799],[999,1882],[999,1966],[999,2049],[999,2133],[999,2215],[63.5,2299],[62.8,2381],[62,2467],[61.5,2548],[61.5,2632],[61.5,2716],[61.5,2799],[61.5,2885],[61.5,2965],[61.5,3049],[61.5,3134],[61.5,3215],[61.5,3300],[61.5,3385],[61.5,3465],[61.5,3548],[61.5,3633],[61.5,3716],[61.5,3798],[61.5,3883],[61.5,3965],[61.5,4048],[61.5,4133],[61.5,4216],[61.5,4298],[61.5,4382],[61.5,4466],[61.5,4548],[61.5,4632],[61.5,4718],[61.5,4797],[61.5,4884],[61.5,4965],[61.5,5050],[61.5,5133],[61.5,5216],[61.5,5299],[61.5,5382],[61.5,5464],[61.5,5549],[61.5,5633],[61.5,5717],[61.5,5799],[61.5,5881],[61.5,5964],[61.5,6048],[61.5,6133],[61.5,6216],[61.5,6299],[61.5,6381],[61.5,6466],[61.5,6550],[61.5,6632],[61.5,6719],[61.5,6799],[61.5,6882],[61.5,6965],[61.5,7048],[61.5,7133],[61.5,7216],[61.5,7302],[61.5,7383],[61.5,7465],[61.5,7549],[61.5,7633],[61.5,7715],[61.5,7800],[61.5,7885],[61.5,7966],[61.5,8051],[61.5,8133],[61.5,8215],[61.5,8299],[61.5,8381],[61.5,8464],[61.5,8549],[61.5,8634],[61.5,8714],[61.5,8800],[61.5,8881],[61.5,8965],[61.5,9049],[61.5,9132],[61.5,9215],[61.5,9299],[61.5,9382],[61.5,9466],[61.5,9548],[61.5,9633],[61.5,9717],[61.5,9798],[61.5,9885],[61.5,9965],[61.5,10048],[61.5,10132],[61.5,10216],[61.5,10299],[61.5,10381],[61.5,10464],[61.5,10548],[61.5,10634],[61.5,10715],[61.5,10799],[61.5,10881],[61.5,10965],[61.5,11050],[61.5,11133],[61.5,11215],[61.5,11299],[61.5,11382],[61.5,11466],[61.5,11551],[61.5,11632],[61.5,11717],[61.5,11801],[61.5,11882],[61.5,11966],[61.5,12049],[61.5,12132],[61.5,12214],[61.5,12298],[61.5,12384],[61.5,12466],[61.5,12550],[61.5,12632],[61.5,12716],[61.5,12798],[61.5,12883],[61.5,12968],[61.5,13049],[61.5,13134],[61.5,13214],[61.5,13299],[61.5,13382],[61.5,13467],[61.5,13548],[61.5,13631],[61.5,13718],[61.5,13799],[61.5,13882],[61.5,13966],[61.5,14048],[61.5,14131],[61.5,14219],[61.5,14298],[61.5,14384],[61.5,14465],[61.5,14549],[61.5,14634],[61.5,14715],[61.5,14798],[61.5,14882],[61.5,14965],[61.5,15049],[61.5,15133],[61.5,15215],[61.5,15299],[61.5,15382],[61.5,15466],[61.5,15547],[61.5,15632],[61.5,15714],[61.5,15799],[61.5,15882],[61.5,15965],[61.5,16050],[61.5,16132],[61.5,16219],[61.5,16299],[61.5,16381],[61.5,16468],[61.5,16550],[61.5,16631],[61.5,16716],[61.5,16799],[61.5,16882],[61.5,16967],[61.5,17049],[61.5,17133],[61.5,17217],[61.5,17301],[61.5,17382],[61.5,17464],[61.5,17551],[61.5,17632],[61.5,17714],[61.5,17801],[61.5,17881],[61.5,17966],[61.5,18049],[61.5,18134],[61.5,18216],[61.5,18299],[61.5,18382],[61.5,18464],[61.5,18549],[61.5,18632],[61.5,18717],[61.5,18802],[61.5,18883],[61.5,18966],[61.5,19050],[61.5,19132],[61.5,19214],[61.5,19301],[61.5,19383],[61.5,19464],[61.5,19551],[61.5,19632],[61.5,19716],[61.5,19800],[61.5,19881],[61.5,19966],[61.5,20048],[61.5,20134],[61.5,20215],[61.5,20300],[61.5,20382],[61.5,20468],[61.5,20549],[61.5,20632],[61.5,20715],[61.5,20799],[61.5,20882],[61.5,20965],[61.5,21051],[61.5,21133],[61.5,21214],[61.5,21298],[61.5,21382],[61.5,21466],[61.5,21550],[61.5,21632],[61.5,21716],[61.5,21799],[61.5,21884],[61.5,21966],[61.5,22049],[61.5,22134],[61.5,22215],[61.5,22298],[61.5,22381],[61.5,22465],[61.5,22549],[61.5,22633],[61.5,22714],[61.5,22799],[61.5,22881],[61.5,22966],[61.5,23049],[61.5,23132],[61.5,23215],[61.5,23299],[61.5,23382],[61.5,23469],[61.5,23551],[61.5,23632],[61.5,23714],[61.5,23799],[61.5,23881],[61.5,23965],[61.5,24049],[61.5,24131],[61.5,24216],[61.5,24298],[61.5,24381],[61.5,24468],[61.5,24549],[61.5,24631],[61.5,24717],[61.5,24799],[61.5,24882],[61.5,24964],[61.6,25048],[63.4,25132],[65.7,25216],[67.8,25300],[70.9,25383],[76.3,25466],[81,25550],[82.9,25631],[84,25716],[87.1,25798],[90.6,25883],[92.4,25966],[93.2,26050],[93.2,26131],[93.2,26217],[93.2,26299],[93.2,26383],[93.2,26464],[93.2,26549],[93.2,26633],[93.2,26715],[93.2,26799],[93.2,26882],[93.2,26964],[93.2,27049],[93.2,27132],[93.2,27215],[93.2,27298],[93.2,27381],[93.2,27465],[93.2,27549],[93.2,27633],[93.2,27715],[93.2,27799],[93.2,27882],[93.2,27964],[93.2,28049],[93.2,28132],[93.2,28216],[93.2,28302],[93.2,28382],[93.2,28465],[93.2,28549],[93.2,28635],[93.2,28715],[93.2,28798],[93.2,28882],[93.2,28964],[93.2,29050],[93.2,29132],[93.2,29216],[93.2,29297],[93.2,29382],[93.2,29466],[93.2,29549],[93.2,29632],[93.2,29715]]",1,0,193.3203,208.3384,100,13.5634,"[{""rating"":90.28103298611111,""responseTime"":10.078599999999625},{""rating"":100,""responseTime"":13.563400000000371}]",space,14.4676,,208.3387,Half the time,50,208.349,,,[],,0,0,0,0,1,audio/Narrative13Situation2.wav,audio/Narrative13Situation2.wav,audio/Narrative13Situation2.wav,audio/Narrative13Situation2.wav,2,2,2,2,,,,,,,,,,,,,,,,,,,,,,,,,,,,,,,,,,,,,,,
,,,,,,663e3c879d11a64e4dbc8912,2024-05-14_12h46.21.321,group3.1-3.2-social-tom,2023.2.2,MacIntel,60.0024001,65c5074098b851296ff0b7ed,6643a351648e62756371155d,,,,,,,,,,,,,,,,,,,,,,,,,,,,,208.3493,1,audio/Narrative7Situation1.wav,210.7523,space,210.7524,266.6495,"[[999,2],[999,99],[999,182],[999,266],[999,348],[999,431],[999,516],[999,598],[999,684],[999,765],[999,848],[999,934],[999,1014],[999,1099],[999,1183],[999,1264],[999,1350],[999,1433],[999,1515],[999,1597],[999,1683],[999,1766],[999,1847],[999,1933],[999,2015],[999,2098],[999,2181],[999,2265],[999,2348],[999,2431],[999,2515],[999,2597],[999,2681],[999,2766],[999,2849],[999,2933],[999,3018],[999,3099],[999,3182],[999,3266],[999,3347],[999,3430],[999,3516],[999,3599],[999,3682],[999,3764],[999,3848],[999,3932],[999,4016],[999,4098],[999,4182],[999,4266],[999,4348],[999,4435],[999,4516],[999,4599],[999,4682],[999,4767],[999,4848],[999,4931],[999,5014],[999,5098],[999,5183],[999,5264],[999,5349],[999,5432],[999,5516],[999,5599],[999,5682],[999,5765],[999,5849],[999,5930],[999,6015],[999,6099],[999,6182],[999,6266],[999,6348],[999,6431],[999,6515],[78.8,6600],[78.5,6682],[78.6,6764],[78.6,6847],[78.6,6932],[78.6,7016],[78.6,7099],[78.6,7182],[78.6,7266],[78.6,7347],[78.6,7432],[78.6,7514],[78.6,7598],[78.6,7680],[78.6,7766],[78.6,7847],[78.6,7931],[78.6,8016],[78.6,8098],[78.6,8184],[78.6,8264],[78.6,8349],[78.6,8434],[78.6,8514],[78.6,8599],[80.6,8681],[82.9,8768],[84.4,8847],[84.7,8933],[84.7,9015],[84.7,9098],[84.4,9181],[84.3,9264],[84.3,9351],[84.3,9432],[84.3,9514],[84.3,9600],[84.3,9682],[84.3,9765],[84.3,9848],[84.3,9931],[84.2,10015],[84,10098],[84,10181],[84,10265],[84,10349],[84,10433],[84,10518],[84,10599],[84,10681],[84,10766],[84,10849],[84,10933],[84,11014],[84,11099],[84,11181],[84,11265],[84,11348],[84,11432],[84,11516],[84,11598],[84,11685],[84,11764],[84,11849],[84,11933],[84,12016],[84,12098],[84,12182],[84,12265],[84,12348],[84,12432],[84,12514],[84,12598],[84,12682],[84,12767],[84,12848],[84,12932],[84,13016],[84,13099],[84,13182],[84,13264],[84,13348],[84,13430],[84,13515],[84,13599],[84,13682],[84,13766],[84,13848],[84,13933],[84,14015],[84,14097],[84,14181],[84,14264],[84,14349],[84,14430],[84,14517],[84,14598],[84,14683],[84,14767],[84,14848],[84,14932],[84,15016],[84,15098],[84,15182],[84,15265],[84,15347],[84,15432],[84,15516],[84,15597],[84,15682],[84,15765],[84,15848],[84,15934],[84,16015],[84,16102],[84,16183],[84,16265],[84,16349],[84,16432],[84,16514],[84,16598],[84,16682],[84,16767],[84,16848],[84,16931],[84,17014],[84,17101],[84,17182],[84,17265],[84,17350],[84,17432],[84,17515],[84,17598],[84,17684],[82.6,17764],[81.5,17850],[81.1,17932],[80.9,18015],[80.9,18099],[80.9,18183],[80.9,18265],[80.9,18349],[80.9,18433],[80.9,18517],[80.9,18598],[80.9,18681],[80.9,18767],[80.9,18848],[80.9,18931],[80.9,19015],[80.9,19099],[80.9,19183],[80.9,19266],[80.9,19350],[80.9,19432],[81,19516],[82,19600],[83.3,19683],[84.6,19766],[85.5,19850],[85.8,19931],[86,20015],[86.4,20100],[86.7,20184],[86.9,20264],[87.1,20348],[87.1,20433],[87.1,20515],[87.1,20598],[87.1,20682],[87.1,20764],[87.1,20848],[87.1,20930],[87.1,21016],[87.1,21097],[87.1,21182],[87.1,21265],[87.1,21349],[87.1,21430],[87.1,21515],[87.1,21597],[87.1,21681],[87.1,21765],[87.1,21847],[87.1,21931],[87.1,22014],[87.1,22099],[87.1,22182],[87.1,22265],[87.1,22349],[87.1,22432],[87.1,22515],[87.1,22598],[87.1,22680],[87.1,22766],[87.1,22847],[87.1,22931],[87.1,23015],[87.1,23098],[87.1,23182],[87.1,23266],[87.1,23348],[87.1,23430],[87.1,23515],[87.1,23600],[87.1,23683],[87.1,23763],[87.1,23848],[87.1,23932],[87.1,24014],[87.1,24098],[87.1,24182],[87.1,24264],[87.1,24348],[87.1,24432],[87.1,24514],[87.1,24601],[87.1,24681],[87.1,24764],[87.1,24850],[87.1,24930],[87.1,25015],[87.1,25098],[87.1,25181],[87.1,25266],[87.1,25347],[87.1,25431],[87.1,25515],[87.1,25597],[87.1,25683],[87.1,25765],[87.1,25849],[87.1,25931],[87.1,26014],[87.1,26097],[87.1,26180],[87.1,26265],[87.1,26348],[87.1,26431],[87.1,26514],[87.1,26599],[87.1,26682],[87.1,26764],[87.1,26850],[87.1,26931],[87.1,27015],[87.1,27097],[87.1,27180],[87.1,27266],[87.1,27349],[87.1,27433],[87.1,27514],[87.1,27598],[87.1,27682],[87.1,27764],[87.1,27847],[87.1,27932],[87.1,28014],[87.1,28098],[87.1,28182],[87.1,28265],[87.1,28348],[87.1,28432],[87.1,28515],[87.1,28599],[87.1,28682],[87.1,28763],[87.1,28847],[87.1,28930],[87.1,29015],[87.1,29099],[87.1,29181],[87.1,29265],[87.1,29349],[87.1,29433],[87.1,29517],[87.1,29599],[87.1,29682],[87.1,29763],[87.1,29851],[87.1,29932],[87.1,30015],[87.1,30098],[87.1,30182],[87.1,30266],[87.1,30348],[87.1,30431],[87.1,30516],[87.1,30597],[87.1,30680],[87.1,30765],[87.1,30847],[87.1,30930],[87.1,31016],[87.1,31097],[87.1,31181],[87.1,31265],[87.1,31347],[87.1,31431],[87.1,31514],[87.1,31599],[87.1,31681],[87.1,31765],[87.1,31848],[87.1,31932],[87.1,32015],[87.1,32099],[87.1,32182],[87.1,32266],[87.1,32347],[87.1,32432],[87.1,32516],[87.1,32597],[87.1,32681],[87.1,32765],[87.1,32848],[87.1,32931],[87.1,33015],[87.1,33098],[87.1,33182],[87.1,33265],[87.1,33349],[87.1,33431],[87.1,33513],[87.1,33597],[87.1,33682],[87.1,33767],[87.1,33848],[87.1,33931],[87.1,34015],[87.1,34098],[87.1,34181],[87.1,34263],[87.1,34350],[87.1,34431],[87.1,34514],[87.1,34597],[87.1,34680],[87.1,34765],[87.1,34849],[87.1,34930],[87.1,35015],[87.1,35099],[87.1,35183],[87.1,35263],[87.1,35349],[87.1,35433],[87.1,35514],[87.1,35598],[87.1,35682],[87.1,35763],[87.1,35850],[87.1,35932],[87.1,36015],[87.1,36098],[87.1,36182],[87.1,36266],[87.1,36350],[87.1,36431],[87.1,36513],[87.1,36599],[87.1,36680],[87.1,36768],[87.1,36849],[87.1,36930],[87.1,37015],[87.1,37098],[87.1,37180],[87.1,37264],[87.1,37349],[87.1,37431],[87.1,37513],[87.1,37599],[87.1,37681],[87.1,37765],[87.1,37851],[87.1,37931],[87.1,38015],[87.1,38097],[87.1,38180],[87.1,38263],[87.1,38348],[87.1,38432],[87.1,38513],[87.1,38599],[87.1,38681],[87.1,38765],[87.1,38847],[87.1,38930],[87.1,39015],[87.1,39098],[87.1,39183],[87.1,39264],[87.1,39347],[87.1,39432],[87.1,39516],[87.1,39598],[87.1,39682],[87.1,39765],[87.1,39850],[87.1,39934],[87.1,40014],[87.1,40098],[87.1,40181],[87.1,40265],[87.1,40347],[87.1,40430],[87.1,40514],[87.1,40599],[87.1,40680],[87.1,40763],[87.1,40849],[87.1,40931],[87.1,41013],[87.1,41101],[87.1,41182],[87.1,41265],[87.1,41348],[87.1,41432],[87.1,41515],[87.1,41597],[87.1,41681],[87.1,41765],[87.1,41847],[87.1,41931],[87.1,42016],[87.1,42098],[87.1,42181],[87.1,42265],[87.1,42348],[87.1,42431],[87.1,42515],[87.1,42599],[87.1,42681],[87.1,42763],[87.1,42848],[87.1,42933],[87.1,43013],[87.1,43098],[87.1,43181],[87.1,43267],[87.1,43347],[87.1,43430],[87.1,43515],[87.1,43597],[88.6,43680],[97.3,43767],[100,43851],[100,43930],[100,44015],[100,44097],[100,44181],[100,44265],[100,44347],[100,44430],[100,44515],[100,44599],[100,44680],[100,44764],[100,44849],[100,44932],[100,45013],[100,45099],[100,45181],[100,45267],[100,45347],[100,45430],[100,45516],[100,45597],[100,45680],[100,45766],[100,45847],[100,45931],[100,46014],[100,46097],[100,46181],[100,46265],[100,46348],[100,46433],[100,46515],[100,46598],[100,46682],[100,46764],[100,46848],[100,46930],[100,47014],[100,47097],[100,47182],[100,47265],[100,47347],[100,47432],[100,47514],[100,47597],[100,47682],[100,47763],[100,47847],[100,47931],[100,48015],[100,48099],[100,48182],[100,48264],[100,48349],[100,48431],[100,48513],[100,48598],[100,48681],[100,48763],[100,48847],[100,48930],[100,49013],[100,49098],[100,49181],[100,49266],[100,49348],[100,49431],[100,49515],[100,49599],[100,49682],[100,49765],[100,49849],[100,49931],[100,50015],[100,50099],[100,50183],[100,50263],[100,50348],[100,50433],[100,50513],[100,50598],[100,50681],[100,50763],[100,50848],[100,50931],[100,51016],[100,51099],[100,51184],[100,51265],[100,51350],[100,51432],[100,51515],[100,51599],[100,51681],[100,51764],[100,51848],[100,51930],[100,52014],[100,52097],[100,52181],[100,52267],[100,52347],[100,52432],[100,52513],[100,52597],[100,52680],[100,52766],[100,52848],[100,52931],[100,53015],[100,53098],[100,53180],[100,53266],[100,53347],[100,53431],[100,53515],[100,53597],[100,53683],[100,53763],[100,53849],[100,53930],[100,54013],[100,54097],[100,54181],[100,54263],[100,54347],[100,54432],[100,54514],[100,54598],[100,54682],[100,54765],[100,54849],[100,54932],[100,55015],[100,55100],[100,55182],[100,55264],[100,55350],[100,55430],[100,55513],[100,55598],[100,55680],[100,55764],[100,55849]]",1,0,266.6498,278.7338,99.57573785,6.2286,"[{""rating"":99.57573784722223,""responseTime"":6.228599999999631}]",space,11.5521,,278.7339,All the time,100,278.7436,,,[],,0,1,1,1,1,audio/Narrative7Situation1.wav,audio/Narrative8Situation1.wav,audio/Narrative5Situation1.wav,audio/Narrative6Situation1.wav,2,5,5,2,2.3746,,,,,,,,,,,,,,,,,,,,,,,,,,,,,,,,,,,,,,
,,,,,,663e3c879d11a64e4dbc8912,2024-05-14_12h46.21.321,group3.1-3.2-social-tom,2023.2.2,MacIntel,60.0024001,65c5074098b851296ff0b7ed,6643a351648e62756371155d,,,,,,,,,,,,,,,,,,,,,,,,,,,,,278.7439,1,audio/Narrative7Situation2.wav,281.7509,,281.7511,289.2178,[],1,0,289.218,295.3504,75.07703993,3.1769,"[{""rating"":75.07703993055556,""responseTime"":3.1768999999985112}]",space,5.5843,,295.3504,Half the time,50,295.3601,,,[],,0,2,2,2,1,audio/Narrative7Situation2.wav,audio/Narrative8Situation2.wav,audio/Narrative5Situation2.wav,audio/Narrative6Situation2.wav,3,3,3,3,,,,,,,,,,,,,,,,,,,,,,,,,,,,,,,,,,,,,,,
,,,,,,663e3c879d11a64e4dbc8912,2024-05-14_12h46.21.321,group3.1-3.2-social-tom,2023.2.2,MacIntel,60.0024001,65c5074098b851296ff0b7ed,6643a351648e62756371155d,,,,,,,,,,,,,,,,,,,,,,,,,,,,,295.3603,1,audio/Narrative7Situation3.wav,303.3662,,303.3663,312.619,"[[999,0],[999,86],[999,166],[999,250],[999,332],[999,417],[999,500],[999,584],[999,667],[999,751],[999,833],[999,916],[999,1000],[999,1082],[999,1165],[999,1251],[999,1332],[999,1417],[999,1501],[999,1582],[999,1667],[999,1751],[999,1835],[999,1916],[999,2001],[999,2084],[999,2168],[999,2250],[999,2333],[999,2416],[999,2499],[999,2584],[999,2666],[999,2750],[999,2832],[999,2919],[999,3002],[999,3082],[999,3165],[999,3252],[999,3335],[999,3417],[999,3499],[999,3584],[999,3667],[999,3749],[999,3833],[999,3916],[999,4000],[999,4085],[999,4166],[999,4250],[999,4334],[999,4417],[999,4499],[999,4584],[999,4668],[999,4749],[999,4834],[999,4918],[999,5000],[999,5083],[999,5165],[999,5249],[999,5335],[999,5417],[999,5499],[999,5582],[999,5667],[999,5751],[999,5834],[999,5915],[999,6000],[999,6084],[999,6168],[999,6250],[999,6334],[999,6416],[999,6500],[999,6583],[999,6668],[999,6749],[999,6834],[999,6917],[999,6999],[999,7083],[999,7167],[999,7249],[999,7333],[999,7416],[999,7501],[999,7585],[999,7667],[999,7750],[999,7832],[999,7916],[999,8003],[999,8082],[999,8165],[999,8250],[999,8334],[999,8418],[999,8502],[999,8583],[999,8667],[999,8750],[999,8832],[999,8917],[999,9000],[999,9084],[999,9167],[999,9252]]",1,0,312.6192,320.8674,54.37228733,4.3717,"[{""rating"":54.37228732638889,""responseTime"":4.371699999999237}]",space,7.6991,,320.8675,All the time,100,320.8766,,,[],,0,3,3,3,1,audio/Narrative7Situation3.wav,audio/Narrative8Situation3.wav,audio/Narrative5Situation3.wav,audio/Narrative6Situation3.wav,8,4,3,5,,,,,,,,,,,,,,,,,,,,,,,,,,,,,,,,,,,,,,,
,,,,,,663e3c879d11a64e4dbc8912,2024-05-14_12h46.21.321,group3.1-3.2-social-tom,2023.2.2,MacIntel,60.0024001,65c5074098b851296ff0b7ed,6643a351648e62756371155d,,,,,,,,,,,,,,,,,,,,,,,,,,,,,320.8768,1,audio/Narrative7Situation4.wav,323.8858,,323.8859,335.6349,"[[999,0],[999,98],[999,180],[999,265],[999,348],[999,429],[999,514],[999,596],[999,680],[999,762],[999,847],[999,929],[999,1012],[999,1097],[999,1180],[999,1264],[999,1349],[999,1431],[999,1514],[999,1596],[999,1680],[999,1764],[999,1846],[999,1930],[999,2014],[999,2097],[999,2180],[999,2262],[999,2347],[999,2429],[999,2514],[999,2597],[999,2681],[999,2764],[999,2846],[999,2929],[999,3014],[999,3095],[999,3179],[999,3264],[999,3348],[999,3430],[999,3514],[999,3595],[999,3679],[999,3764],[999,3848],[999,3929],[999,4012],[999,4096],[999,4179],[999,4262],[999,4346],[999,4430],[999,4514],[999,4597],[999,4681],[999,4762],[999,4846],[999,4933],[999,5012],[999,5096],[999,5179],[999,5262],[999,5349],[999,5433],[999,5514],[999,5597],[999,5679],[999,5764],[999,5845],[999,5930],[999,6012],[999,6095],[999,6181],[999,6262],[999,6346],[999,6429],[999,6512],[999,6597],[999,6679],[999,6764],[999,6849],[999,6930],[999,7014],[999,7099],[999,7180],[999,7264],[999,7346],[999,7429],[999,7514],[999,7597],[999,7680],[999,7763],[999,7847],[999,7932],[999,8013],[999,8097],[999,8180],[999,8264],[999,8345],[999,8430],[999,8513],[999,8596],[999,8680],[999,8763],[999,8846],[999,8930],[999,9014],[999,9097],[999,9179],[999,9264],[999,9345],[999,9429],[999,9514],[999,9597],[999,9679],[999,9763],[999,9846],[999,9930],[999,10012],[999,10097],[999,10179],[999,10262],[999,10347],[999,10431],[999,10514],[999,10597],[999,10681],[999,10764],[999,10846],[999,10932],[999,11013],[999,11097],[999,11180],[999,11264],[999,11346],[999,11430],[999,11512],[999,11597],[999,11679]]",1,0,335.6355,341.699,76.30588108,4.8422,"[{""rating"":59.86273871527777,""responseTime"":2.3596999999992363},{""rating"":76.30588107638889,""responseTime"":4.842199999999252}]",space,5.5193,,341.6991,Not at all,0,341.7076,,,[],,0,4,4,4,1,audio/Narrative7Situation4.wav,audio/Narrative8Situation4.wav,audio/Narrative5Situation4.wav,audio/Narrative6Situation4.wav,3,3,1,2,,,,,,,,,,,,,,,,,,,,,,,,,,,,,,,,,,,,,,,
,,,,,,663e3c879d11a64e4dbc8912,2024-05-14_12h46.21.321,group3.1-3.2-social-tom,2023.2.2,MacIntel,60.0024001,65c5074098b851296ff0b7ed,6643a351648e62756371155d,,,,,,,,,,,,,,,,,,,,,,,,,,,,,341.7078,1,audio/Narrative7Situation5.wav,346.715,,346.715,355.2004,"[[100,501],[100,588],[100,669],[100,753],[100,833],[100,918],[97.1,1004],[86.1,1087],[84,1167],[84,1250],[84,1334],[84,1418],[84,1500],[83.7,1586],[83.4,1667],[83.4,1749],[80.9,1836],[78.3,1918],[78.1,2001],[78.1,2082],[78.1,2166],[78.1,2250],[78.1,2334],[78.1,2416],[78.1,2501],[78.1,2584],[78.1,2669],[78.1,2751],[78.1,2834],[78.1,2917],[78.1,3000],[78.1,3084],[78.1,3166],[78.1,3252],[78.1,3336],[78.1,3416],[78.1,3501],[78.1,3586],[78.1,3668],[78.1,3751],[78.1,3834],[78.1,3916],[78.1,4001],[78.1,4084],[78.1,4167],[78.1,4250],[78.1,4334],[78.1,4418],[78.1,4501],[78.1,4584],[78.1,4668],[78.1,4751],[78.1,4836],[78.1,4918],[78.1,5002],[78.1,5086],[78.1,5167],[78.1,5252],[78.1,5336],[78.1,5417],[78.1,5500],[78.1,5584],[78.1,5666],[78.1,5751],[78.1,5835],[78.1,5918],[78.1,6001],[78.1,6083],[78.1,6168],[78.1,6251],[78.1,6334],[78.1,6417],[78.1,6500],[78.1,6584],[78.1,6667],[78.1,6752],[78.1,6835],[78.1,6917],[78.1,7002],[78.1,7084],[78.1,7167],[78.1,7251],[78.1,7334],[78.1,7420],[78.1,7501],[78.1,7583],[78.1,7667],[78.1,7751],[78.1,7834],[78.1,7917],[78.1,8000],[78.1,8084],[78.1,8169],[78.1,8253],[78.1,8334],[78.1,8418]]",1,0,355.2005,363.6844,82.68663194,7.3261,"[{""rating"":88.53515625,""responseTime"":3.827600000001439},{""rating"":78.25466579861111,""responseTime"":6.760900000000333},{""rating"":82.68663194444444,""responseTime"":7.326100000001475}]",space,7.9342,,363.6849,All the time,100,363.6936,,,[],,0,5,5,5,1,audio/Narrative7Situation5.wav,audio/Narrative8Situation5.wav,audio/Narrative5Situation5.wav,audio/Narrative6Situation5.wav,5,2,5,2,,,,,,,,,,,,,,,,,,,,,,,,,,,,,,,,,,,,,,,
,,,,,,663e3c879d11a64e4dbc8912,2024-05-14_12h46.21.321,group3.1-3.2-social-tom,2023.2.2,MacIntel,60.0024001,65c5074098b851296ff0b7ed,6643a351648e62756371155d,,,,,,,,,,,,,,,,,,,,,,,,,,,,,363.6939,1,audio/Narrative7Situation6.wav,366.6994,,366.6995,376.6852,"[[999,0],[999,81],[999,166],[999,250],[999,333],[999,415],[999,499],[999,581],[999,665],[999,748],[999,832],[999,917],[999,998],[999,1083],[999,1165],[999,1248],[999,1331],[999,1416],[999,1501],[999,1585],[999,1666],[999,1748],[999,1832],[999,1915],[999,1999],[999,2082],[999,2164],[999,2250],[999,2335],[84,2416],[82.8,2499],[82.6,2581],[82.6,2666],[82.6,2749],[82.6,2833],[82.6,2915],[82.6,2998],[82.6,3082],[82.6,3167],[82.6,3248],[82.6,3331],[82.6,3416],[82.6,3498],[82.6,3582],[82.6,3666],[82.6,3748],[82.6,3832],[82.6,3916],[82.6,3999],[82.6,4084],[82.6,4167],[82.6,4250],[82.6,4331],[82.6,4416],[82.6,4499],[82.6,4581],[82.6,4666],[82.6,4748],[82.6,4833],[82.6,4916],[82.6,5001],[82.6,5083],[83,5166],[83.8,5249],[85.1,5335],[85.7,5416],[85.9,5499],[86.2,5585],[86.6,5665],[87,5750],[87.3,5834],[87.6,5919],[87.9,6000],[88.1,6081],[88.3,6168],[88.4,6250],[88.5,6333],[88.5,6417],[88.5,6499],[88.5,6583],[88.5,6666],[88.5,6748],[88.5,6833],[88.5,6917],[88.5,6998],[88.5,7081],[88.5,7167],[88.5,7250],[88.5,7335],[88.5,7416],[88.5,7499],[88.5,7583],[88.5,7665],[88.5,7749],[88.5,7833],[88.5,7915],[88.5,8002],[88.5,8084],[88.5,8168],[88.5,8252],[88.5,8332],[88.5,8416],[88.5,8498],[88.5,8581],[88.5,8667],[88.5,8748],[88.5,8833],[88.5,8914],[88.5,8999],[88.5,9082],[88.5,9165],[88.5,9249],[88.5,9332],[88.5,9415],[88.5,9500],[88.5,9581],[88.5,9667],[88.5,9750],[88.5,9833],[88.5,9915]]",1,0,376.6855,379.8831,95.97384983,2.0912,"[{""rating"":90.3955078125,""responseTime"":1.1580999999995925},{""rating"":95.97384982638889,""responseTime"":2.091199999999219}]",space,2.6529,,379.8831,All the time,100,379.8898,,,[],,0,6,6,6,1,audio/Narrative7Situation6.wav,audio/Narrative8Situation6.wav,audio/Narrative5Situation6.wav,audio/Narrative6Situation6.wav,3,2,3,2,,,,,,,,,,,,,,,,,,,,,,,,,,,,,,,,,,,,,,,
,,,,,,663e3c879d11a64e4dbc8912,2024-05-14_12h46.21.321,group3.1-3.2-social-tom,2023.2.2,MacIntel,60.0024001,65c5074098b851296ff0b7ed,6643a351648e62756371155d,,,,,,,,,,,,,,,,,,,,,,,,,,,,,379.89,1,audio/Narrative7Situation7.wav,384.8996,,384.8997,402.0671,"[[999,0],[999,83],[999,165],[999,251],[999,333],[999,415],[999,500],[999,582],[999,665],[999,750],[999,831],[999,915],[999,1001],[999,1081],[999,1164],[999,1249],[999,1333],[999,1418],[999,1499],[999,1581],[999,1668],[999,1749],[999,1836],[999,1914],[999,1999],[93,2082],[93.4,2167],[94.3,2248],[96.5,2334],[99.1,2415],[100,2499],[100,2581],[100,2666],[100,2750],[100,2833],[100,2916],[100,2999],[100,3084],[100,3167],[100,3249],[100,3331],[100,3417],[100,3499],[100,3581],[100,3666],[100,3749],[100,3834],[100,3916],[100,4000],[100,4083],[100,4166],[100,4248],[100,4331],[100,4414],[100,4500],[100,4581],[100,4669],[100,4749],[100,4831],[100,4915],[100,5000],[100,5081],[100,5168],[100,5247],[100,5333],[100,5414],[100,5499],[100,5582],[100,5665],[100,5748],[100,5833],[100,5917],[100,5998],[100,6082],[100,6165],[100,6251],[100,6332],[100,6415],[100,6499],[100,6583],[100,6664],[100,6748],[100,6835],[100,6915],[100,7000],[100,7081],[100,7165],[100,7249],[100,7333],[100,7414],[100,7499],[100,7583],[100,7666],[100,7749],[100,7833],[100,7915],[100,7998],[100,8082],[100,8165],[100,8249],[100,8331],[100,8415],[100,8499],[100,8581],[100,8664],[100,8750],[100,8831],[100,8916],[100,8997],[100,9082],[100,9168],[100,9249],[100,9333],[100,9417],[100,9498],[100,9583],[100,9667],[100,9748],[100,9832],[100,9915],[100,10000],[100,10082],[100,10165],[100,10250],[100,10332],[100,10416],[100,10498],[100,10582],[100,10666],[100,10748],[100,10831],[100,10914],[100,10997],[100,11083],[100,11165],[100,11248],[100,11331],[100,11414],[100,11498],[100,11583],[100,11667],[100,11751],[100,11832],[100,11914],[100,12000],[100,12082],[100,12165],[100,12249],[100,12332],[100,12419],[100,12500],[100,12581],[100,12665],[100,12749],[100,12832],[100,12915],[100,13000],[100,13081],[100,13168],[100,13250],[100,13333],[100,13416],[100,13499],[100,13582],[100,13664],[100,13748],[100,13831],[100,13916],[100,13997],[100,14085],[100,14166],[100,14248],[100,14333],[100,14415],[100,14497],[100,14584],[100,14665],[100,14747],[100,14831],[100,14914],[100,15002],[100,15081],[100,15164],[100,15249],[100,15333],[100,15416],[100,15497],[100,15582],[100,15665],[100,15751],[100,15832],[100,15915],[100,15999],[100,16081],[100,16165],[100,16247],[100,16333],[100,16417],[100,16500],[100,16584],[100,16664],[100,16747],[100,16833],[100,16918],[100,16999],[100,17081],[100,17167]]",1,0,402.0674,407.048,98.72124566,2.0424,"[{""rating"":98.72124565972223,""responseTime"":2.0423999999985085}]",space,4.4321,,407.048,Not at all,0,407.0564,,,[],,0,7,7,7,1,audio/Narrative7Situation7.wav,audio/Narrative8Situation7.wav,audio/Narrative5Situation7.wav,audio/Narrative6Situation7.wav,5,3,4,5,,,,,,,,,,,,,,,,,,,,,,,,,,,,,,,,,,,,,,,
,,,,,,663e3c879d11a64e4dbc8912,2024-05-14_12h46.21.321,group3.1-3.2-social-tom,2023.2.2,MacIntel,60.0024001,65c5074098b851296ff0b7ed,6643a351648e62756371155d,,,,,,,,,,,,,,,,,,,,,,,,,,,,,407.0566,1,audio/Narrative7Situation8.wav,409.0643,,409.0644,419.0821,"[[100,2167],[81.4,2583],[78.3,2668],[75.5,2752],[75.2,2835],[75.2,2917],[75.2,2999],[74.8,3085],[74.3,3168],[74.3,3254],[74.9,3336],[78.1,3417],[80.2,3501],[80.4,3583],[80.5,3666],[80.9,3755],[80.9,3834],[80.9,3918],[80.9,4000],[80.9,4082],[80.9,4169],[80.9,4249],[80.9,4334],[80.9,4416],[80.9,4501],[80.9,4585],[80.9,4667],[80.9,4750],[80.9,4835],[80.9,4916],[80.9,5001],[80.9,5084],[80.9,5170],[80.9,5252],[80.9,5334],[80.9,5419],[80.9,5500],[80.9,5584],[80.9,5666],[80.9,5750],[80.9,5834],[80.9,5918],[80.9,6003],[80.9,6083],[80.9,6168],[80.9,6249],[80.9,6333],[80.9,6418],[80.9,6501],[80.9,6584],[80.9,6667],[80.9,6750],[80.9,6835],[80.9,6917],[80.9,7001],[80.9,7083],[80.9,7168],[80.9,7249],[80.9,7334],[80.9,7418],[80.9,7500],[80.9,7584],[80.9,7669],[80.9,7749],[80.9,7834],[80.9,7917],[80.9,7999],[80.9,8083],[80.9,8167],[80.9,8251],[80.9,8333],[80.9,8416],[80.9,8501],[80.9,8583],[80.9,8666],[80.9,8751],[80.9,8835],[80.9,8917],[80.9,9001],[80.9,9082],[80.9,9170],[80.9,9251],[80.9,9332],[80.9,9416],[80.9,9500],[80.9,9584],[80.9,9668],[80.9,9749],[80.9,9834],[80.9,9918],[80.9,10001]]",1,0,419.0823,430.4002,84.90885417,5.0617,"[{""rating"":84.90885416666667,""responseTime"":5.0616999999992345}]",space,10.7716,,430.4003,Half the time,50,430.409,,,[],,0,8,8,8,1,audio/Narrative7Situation8.wav,audio/Narrative8Situation8.wav,audio/Narrative5Situation8.wav,audio/Narrative6Situation8.wav,2,3,3,5,,,,,,,,,,,,,,,,,,,,,,,,,,,,,,,,,,,,,,,
,,,,,,663e3c879d11a64e4dbc8912,2024-05-14_12h46.21.321,group3.1-3.2-social-tom,2023.2.2,MacIntel,60.0024001,65c5074098b851296ff0b7ed,6643a351648e62756371155d,,,,,,,,,,,,,,,,,,,,,,,,,,,,,430.4092,1,audio/Narrative7Situation9.wav,432.4138,,432.4138,441.0511,"[[999,0],[999,84],[999,170],[999,250],[999,334],[999,417],[999,500],[999,585],[999,667],[999,752],[999,833],[999,918],[999,1000],[999,1084],[999,1168],[999,1252],[999,1333],[999,1418],[999,1500],[999,1585],[999,1666],[999,1750],[999,1833],[999,1920],[999,2004],[999,2084],[999,2168],[999,2251],[999,2334],[999,2419],[999,2501],[999,2585],[999,2668],[999,2751],[999,2834],[999,2917],[999,3002],[999,3083],[999,3166],[999,3251],[999,3333],[999,3417],[999,3501],[999,3584],[999,3670],[999,3751],[999,3834],[999,3916],[999,4001],[999,4083],[999,4168],[999,4250],[999,4334],[999,4419],[999,4503],[999,4584],[999,4668],[999,4751],[999,4833],[999,4917],[999,5001],[999,5083],[999,5168],[999,5250],[999,5334],[999,5418],[999,5499],[999,5585],[999,5669],[999,5749],[999,5833],[999,5916],[999,5999],[999,6085],[999,6169],[999,6251],[999,6334],[999,6416],[999,6501],[999,6585],[999,6668],[999,6750],[999,6834],[100,6918],[100,7251],[99.3,7333],[99.2,7416],[99.2,7501],[99.2,7584],[99.2,7666],[99.2,7750],[99.2,7833],[99.2,7916],[99.2,8001],[99.2,8084],[99.2,8169],[99.2,8250],[99.2,8337],[99.2,8416],[99.2,8500],[99.2,8584]]",1,0,441.0513,447.7652,70.64507378,5.1421,"[{""rating"":99.64789496527777,""responseTime"":1.1949000000003593},{""rating"":87.04210069444444,""responseTime"":1.9589000000003693},{""rating"":58.39789496527777,""responseTime"":3.058499999999981},{""rating"":70.64507378472223,""responseTime"":5.14209999999963}]",space,6.1672,,447.7653,Not at all,0,447.7749,,,[],,0,9,9,9,1,audio/Narrative7Situation9.wav,audio/Narrative8Situation9.wav,audio/Narrative5Situation9.wav,audio/Narrative6Situation9.wav,2,3,3,4,,,,,,,,,,,,,,,,,,,,,,,,,,,,,,,,,,,,,,,
,,,,,,663e3c879d11a64e4dbc8912,2024-05-14_12h46.21.321,group3.1-3.2-social-tom,2023.2.2,MacIntel,60.0024001,65c5074098b851296ff0b7ed,6643a351648e62756371155d,,,,,,,,,,,,,,,,,,,,,,,,,,,,,447.7752,1,audio/Narrative8Situation1.wav,452.7819,,452.782,468.7315,"[[71.1,7748],[59.4,8167],[57.1,8249],[56.3,8333],[53.8,8415],[51.2,8499],[48.8,8583],[46.2,8666],[44.1,8749],[42.3,8832],[41.6,8916],[41.5,8997],[41.5,9082],[41.5,9165],[41.5,9250],[41.5,9331],[41.5,9415],[41.5,9500],[41.5,9583],[41.5,9664],[41.5,9750],[41.5,9832],[41.5,9916],[41.5,9999],[41.5,10083],[41.5,10168],[41.5,10252],[41.5,10332],[41.5,10417],[41.5,10501],[41.5,10582],[41.5,10664],[41.5,10748],[41.5,10832],[41.5,10917],[41.5,10999],[41.5,11081],[41.5,11164],[41.5,11250],[41.5,11332],[41.5,11418],[41.5,11498],[41.5,11583],[41.5,11667],[41.5,11749],[41.5,11832],[41.5,11918],[41.5,11998],[41.5,12083],[41.5,12165],[41.5,12249],[41.5,12333],[41.5,12415],[41.5,12501],[41.5,12582],[41.5,12665],[41.5,12751],[41.5,12831],[41.5,12915],[41.5,13000],[41.8,13081],[43.8,13166],[45.9,13248],[47.8,13334],[50,13416],[52.3,13500],[55,13584],[58.5,13665],[62.1,13749],[65.3,13831],[68.5,13917],[70,13999],[70.8,14082],[70.8,14166],[70.8,14247],[70.8,14331],[70.8,14416],[70.8,14498],[70.8,14584],[70.8,14665],[70.8,14750],[70.8,14833],[70.8,14915],[70.8,14999],[70.8,15082],[70.8,15165],[70.8,15247],[70.8,15334],[70.8,15414],[70.8,15499],[70.8,15581],[70.8,15664],[70.8,15749],[70.8,15833],[70.8,15914]]",1,0,468.7316,472.2981,50.70095486,2.2775,"[{""rating"":50.700954861111114,""responseTime"":2.277499999999975}]",space,3.0169,,472.2981,Not at all,0,472.3055,,,[],,0,10,10,10,1,audio/Narrative8Situation1.wav,audio/Narrative7Situation1.wav,audio/Narrative6Situation1.wav,audio/Narrative5Situation1.wav,5,2,2,5,,,,,,,,,,,,,,,,,,,,,,,,,,,,,,,,,,,,,,,
,,,,,,663e3c879d11a64e4dbc8912,2024-05-14_12h46.21.321,group3.1-3.2-social-tom,2023.2.2,MacIntel,60.0024001,65c5074098b851296ff0b7ed,6643a351648e62756371155d,,,,,,,,,,,,,,,,,,,,,,,,,,,,,472.3057,1,audio/Narrative8Situation2.wav,475.3143,,475.3143,485.4163,"[[999,0],[999,82],[999,167],[999,252],[999,332],[999,416],[999,499],[999,583],[999,667],[999,750],[999,833],[999,917],[999,1000],[999,1083],[999,1166],[999,1250],[999,1334],[999,1416],[999,1500],[999,1583],[999,1665],[999,1750],[999,1832],[999,1915],[999,2002],[999,2083],[999,2168],[999,2250],[999,2333],[999,2415],[999,2501],[999,2582],[999,2665],[999,2750],[999,2832],[999,2916],[999,3000],[999,3085],[999,3167],[999,3250],[999,3335],[999,3416],[999,3501],[999,3582],[72.7,3669],[82.1,3750],[90.2,3832],[93.7,3915],[94.2,4002],[94.2,4082],[94.2,4166],[94.2,4248],[94.2,4333],[94.2,4417],[94.2,4499],[94.2,4584],[94.2,4667],[94.2,4748],[94.2,4835],[94.2,4916],[94.2,5000],[94.2,5083],[94.2,5167],[94.2,5250],[94.2,5333],[94.2,5415],[94.2,5500],[94.2,5584],[94.2,5665],[94.2,5748],[94.2,5833],[94.2,5916],[94.2,6000],[94.2,6083],[94.1,6167],[94.1,6250],[94.1,6333],[94,6416],[93.9,6498],[93.7,6586],[93.6,6667],[93.4,6751],[93.4,6833],[93.4,6917],[93.4,7001],[93.4,7084],[93.4,7169],[93.4,7249],[93.4,7332],[93.4,7418],[93.3,7500],[93.3,7582],[93.3,7666],[93.3,7749],[93.3,7834],[93.3,7918],[93.3,7999],[93.3,8083],[93.3,8167],[93.3,8251],[93.3,8332],[93.3,8417],[93.3,8500],[93.3,8583],[93.3,8667],[93.3,8750],[93.3,8833],[93.3,8916],[93.3,8999],[93.3,9083],[93.3,9165],[93.3,9249],[93.3,9334],[93.3,9415],[93.3,9498],[93.3,9583],[93.3,9665],[93.3,9752],[93.3,9833],[93.3,9915],[93.3,9999],[94.1,10083]]",1,0,485.4165,489.8008,93.12065972,2.2251,"[{""rating"":99.54644097222223,""responseTime"":1.4441999999992277},{""rating"":93.12065972222221,""responseTime"":2.2250999999995997}]",space,3.8323,,489.8009,Half the time,50,489.8091,,,[],,0,11,11,11,1,audio/Narrative8Situation2.wav,audio/Narrative7Situation2.wav,audio/Narrative6Situation2.wav,audio/Narrative5Situation2.wav,3,3,3,3,,,,,,,,,,,,,,,,,,,,,,,,,,,,,,,,,,,,,,,
,,,,,,663e3c879d11a64e4dbc8912,2024-05-14_12h46.21.321,group3.1-3.2-social-tom,2023.2.2,MacIntel,60.0024001,65c5074098b851296ff0b7ed,6643a351648e62756371155d,,,,,,,,,,,,,,,,,,,,,,,,,,,,,489.8094,1,audio/Narrative8Situation3.wav,493.8165,,493.8167,516.199,"[[100,5247],[81.6,5913],[82.3,5997],[82.4,6081],[82.5,6162],[82.7,6249],[82.7,6329],[82.7,6413],[82.7,6496],[82.7,6581],[82.7,6665],[82.7,6746],[82.7,6829],[82.7,6912],[82.7,6996],[82.7,7079],[82.7,7162],[82.7,7248],[82.7,7329],[82.7,7414],[82.7,7496],[82.7,7579],[82.7,7664],[82.7,7746],[82.7,7831],[82.7,7915],[82.7,7997],[82.7,8080],[82.7,8165],[82.7,8247],[82.7,8333],[82.7,8415],[82.7,8497],[82.7,8583],[82.7,8664],[82.7,8747],[82.7,8833],[82.7,8914],[82.7,8997],[82.7,9082],[82.7,9164],[82.7,9247],[82.7,9332],[82.7,9413],[82.7,9497],[82.7,9581],[82.7,9663],[82.7,9745],[82.7,9831],[82.7,9913],[82.7,9997],[82.7,10081],[82.7,10164],[82.7,10249],[82.7,10330],[82.7,10414],[82.7,10496],[82.7,10581],[82.7,10664],[82.7,10746],[82.7,10830],[82.7,10912],[82.7,10998],[82.7,11079],[82.7,11166],[82.7,11247],[82.7,11331],[82.7,11414],[82.7,11498],[82.7,11580],[82.7,11666],[82.7,11747],[82.7,11830],[82.7,11912],[82.7,11996],[82.7,12079],[82.7,12165],[82.7,12246],[82.7,12331],[82.7,12413],[82.7,12496],[82.7,12580],[82.7,12662],[82.7,12748],[82.7,12830],[82.7,12914],[82.7,12996],[82.7,13080],[82.7,13164],[82.7,13246],[82.7,13330],[82.7,13413],[82.7,13497],[82.7,13579],[82.7,13663],[82.7,13747],[82.7,13830],[82.7,13914],[82.7,13997],[82.7,14081],[82.7,14165],[82.7,14249],[82.7,14333],[87.6,14412],[92.1,14500],[92.3,14580],[92.5,14665],[94.2,14749],[98.9,15916],[97.4,15996],[96.8,16084],[96.8,16163],[96.8,16246],[97,16331],[98.6,16415],[99.8,16497],[100,16579],[100,16664],[100,16748],[100,16833],[100,16914],[100,16995],[100,17079],[100,17163],[100,17247],[100,17329],[100,17413],[100,17500],[100,17580],[100,17663],[100,17747],[100,17831],[100,17913],[100,17997],[100,18081],[100,18162],[100,18247],[100,18330],[100,18414],[100,18498],[100,18582],[100,18664],[100,18747],[100,18831],[100,18913],[100,18997],[100,19081],[100,19162],[100,19247],[100,19330],[100,19414],[100,19497],[100,19580],[100,19663],[100,19746],[100,19829],[100,19914],[100,19998],[100,20079],[100,20163],[100,20247],[100,20330],[100,20414],[100,20497],[100,20581],[100,20665],[100,20748],[100,20830],[100,20913],[100,20999],[100,21082],[100,21163],[100,21247],[100,21331],[100,21414],[100,21497],[100,21582],[100,21664],[100,21745],[100,21830],[100,21912],[100,21996],[100,22080],[100,22164],[100,22248],[100,22330]]",1,0,516.1994,520.7674,89.6750217,3.6066,"[{""rating"":82.32367621527779,""responseTime"":1.9241999999992458},{""rating"":89.67502170138889,""responseTime"":3.6065999999996166}]",space,4.0201,,520.7675,Half the time,50,520.773,,,[],,0,12,12,12,1,audio/Narrative8Situation3.wav,audio/Narrative7Situation3.wav,audio/Narrative6Situation3.wav,audio/Narrative5Situation3.wav,4,8,5,3,,,,,,,,,,,,,,,,,,,,,,,,,,,,,,,,,,,,,,,
,,,,,,663e3c879d11a64e4dbc8912,2024-05-14_12h46.21.321,group3.1-3.2-social-tom,2023.2.2,MacIntel,60.0024001,65c5074098b851296ff0b7ed,6643a351648e62756371155d,,,,,,,,,,,,,,,,,,,,,,,,,,,,,520.7732,1,audio/Narrative8Situation4.wav,523.7804,,523.7805,537.9471,"[[89.3,2915],[88.9,3001],[37.8,3417],[39.1,3500],[42.2,3585],[42.7,3668],[42.7,3749],[43.5,3833],[43.8,3915],[44.6,3999],[45.7,4082],[46.4,4168],[46.8,4249],[47.2,4334],[47.6,4417],[47.9,4498],[47.9,4582],[47.9,4665],[48.1,4752],[48.2,4834],[48.4,4917],[48.7,4999],[49.1,5082],[49.4,5168],[49.7,5251],[50,5332],[50.2,5419],[50.4,5500],[50.6,5583],[50.8,5667],[51.2,5750],[51.7,5833],[52.1,5915],[52.4,6000],[52.4,6082],[52.4,6166],[52.4,6251],[52.4,6332],[52.4,6416],[52.4,6498],[52.4,6582],[52.4,6666],[52.4,6750],[52.4,6834],[52.4,6915],[52.4,6999],[52.4,7083],[52.4,7165],[52.4,7248],[52.4,7333],[52.4,7415],[52.4,7500],[53.5,7582],[54.7,7669],[56.3,7750],[57.8,7833],[59.5,7918],[61.5,8001],[63.3,8083],[65.2,8167],[66.6,8248],[67.3,8336],[67.8,8417],[68.8,8498],[70.3,8586],[72.2,8666],[73.5,8751],[74.1,8833],[74.1,8916],[74.1,9000],[74.1,9083],[74.1,9165],[74.1,9250],[74.1,9333],[74.1,9416],[74.1,9499],[74.1,9584],[74.1,9666],[74.1,9748],[74.1,9833],[74.1,9915],[74.1,9998],[74.1,10081],[74.1,10165],[74.1,10250],[74.1,10332],[74.1,10416],[74.1,10500],[74.1,10582],[74.1,10666],[74.1,10750],[74.1,10832],[74.1,10915],[74.1,11000],[74.1,11082],[74.1,11168],[74.1,11251],[74.1,11331],[74.1,11415],[74.1,11499],[74.1,11583],[74.1,11666],[74.1,11751],[74.1,11833],[74.1,11917],[74.1,11998],[74.1,12081],[74.1,12166],[74.1,12250],[74.1,12335],[74.1,12414],[74.1,12500],[74.1,12584],[74.1,12666],[74.1,12748],[74.1,12833],[74.1,12917],[74.1,12999],[74.1,13084],[74.1,13168],[74.1,13249],[74.1,13332],[74.1,13418],[74.1,13498],[74.1,13583],[74.1,13665],[74.1,13749],[74.1,13831],[74.2,13915],[74.5,13999],[76.4,14082],[79,14166]]",1,0,537.9473,547.1959,60.42588976,2.1931,"[{""rating"":60.42588975694444,""responseTime"":2.19310000000155}]",space,8.7168,,547.196,Half the time,50,547.2047,,,[],,0,13,13,13,1,audio/Narrative8Situation4.wav,audio/Narrative7Situation4.wav,audio/Narrative6Situation4.wav,audio/Narrative5Situation4.wav,3,3,2,1,,,,,,,,,,,,,,,,,,,,,,,,,,,,,,,,,,,,,,,
,,,,,,663e3c879d11a64e4dbc8912,2024-05-14_12h46.21.321,group3.1-3.2-social-tom,2023.2.2,MacIntel,60.0024001,65c5074098b851296ff0b7ed,6643a351648e62756371155d,,,,,,,,,,,,,,,,,,,,,,,,,,,,,547.2049,1,audio/Narrative8Situation5.wav,549.2134,,549.2135,557.464,"[[999,0],[999,81],[999,165],[999,250],[999,332],[999,416],[999,498],[999,584],[999,665],[999,749],[999,833],[999,915],[999,1000],[999,1083],[999,1166],[999,1248],[999,1332],[999,1415],[999,1499],[999,1581],[999,1667],[999,1750],[999,1832],[999,1917],[999,2000],[999,2083],[999,2167],[999,2250],[999,2333],[999,2419],[999,2500],[999,2583],[999,2665],[999,2749],[999,2832],[999,2918],[999,3000],[999,3083],[999,3168],[999,3250],[999,3332],[999,3418],[999,3499],[999,3583],[999,3665],[999,3750],[61,3835],[59.9,3915],[60.6,4000],[63.7,4086],[65.9,4166],[66.9,4250],[67.4,4336],[67.7,4416],[67.8,4502],[67.9,4584],[68,4667],[68.5,4749],[68.6,4834],[69.6,4915],[86.9,5666],[86.8,5752],[87.8,5834],[89.3,5916],[89.6,6000],[89.6,6083],[89.6,6168],[89.6,6250],[89.6,6331],[89.6,6416],[89.6,6498],[89.6,6583],[89.6,6666],[89.6,6750],[89.6,6831],[89.6,6917],[89.6,6998],[89.6,7083],[89.6,7165],[89.6,7248],[89.6,7333],[89.6,7416],[89.6,7501],[89.6,7585],[89.6,7666],[89.6,7749],[89.6,7833],[89.6,7916],[89.6,8000],[89.6,8084],[89.6,8166],[89.6,8250]]",1,0,557.4642,561.0622,75.93207465,1.8461,"[{""rating"":75.93207465277779,""responseTime"":1.8460999999996375}]",space,3.0546,,561.0622,Not at all,0,561.0725,,,[],,0,14,14,14,1,audio/Narrative8Situation5.wav,audio/Narrative7Situation5.wav,audio/Narrative6Situation5.wav,audio/Narrative5Situation5.wav,2,5,2,5,,,,,,,,,,,,,,,,,,,,,,,,,,,,,,,,,,,,,,,
,,,,,,663e3c879d11a64e4dbc8912,2024-05-14_12h46.21.321,group3.1-3.2-social-tom,2023.2.2,MacIntel,60.0024001,65c5074098b851296ff0b7ed,6643a351648e62756371155d,,,,,,,,,,,,,,,,,,,,,,,,,,,,,561.0726,1,audio/Narrative8Situation6.wav,563.0804,,563.0805,569.564,"[[999,0],[999,82],[999,167],[999,248],[999,332],[999,416],[999,500],[999,582],[999,664],[999,748],[999,833],[999,918],[999,999],[999,1083],[999,1166],[999,1249],[999,1334],[999,1415],[999,1499],[999,1583],[999,1665],[999,1749],[999,1834],[999,1915],[999,2002],[999,2084],[999,2165],[999,2251],[999,2333],[999,2414],[999,2499],[999,2583],[999,2666],[999,2748],[999,2832],[999,2915],[999,3000],[999,3083],[72.2,3165],[70.4,3250],[69.5,3331],[69.3,3415],[69.3,3500],[69.3,3582],[67.4,3665],[60.7,3749],[55.3,3832],[54.6,3918],[54.5,3999],[54.5,4083],[54.5,4167],[54.5,4249],[54.5,4332],[54.5,4414],[54.5,4499],[54.5,4582],[54.5,4664],[54.5,4749],[54.5,4835],[54.5,4914],[54.5,4999],[54.5,5083],[54.5,5168],[54.7,5250],[55.1,5332],[56.7,5416],[60.6,5499],[63.6,5584],[65.2,5665],[66,5749],[66.3,5833],[66.8,5915],[67.1,5998],[67.1,6083],[67.1,6164],[67.1,6247],[67.1,6333],[67.1,6415]]",1,0,569.5641,573.3646,63.08485243,1.0924,"[{""rating"":63.08485243055555,""responseTime"":1.0924000000003389}]",space,3.254,,573.3648,All the time,100,573.3737,,,[],,0,15,15,15,1,audio/Narrative8Situation6.wav,audio/Narrative7Situation6.wav,audio/Narrative6Situation6.wav,audio/Narrative5Situation6.wav,2,3,2,3,,,,,,,,,,,,,,,,,,,,,,,,,,,,,,,,,,,,,,,
,,,,,,663e3c879d11a64e4dbc8912,2024-05-14_12h46.21.321,group3.1-3.2-social-tom,2023.2.2,MacIntel,60.0024001,65c5074098b851296ff0b7ed,6643a351648e62756371155d,,,,,,,,,,,,,,,,,,,,,,,,,,,,,573.3739,1,audio/Narrative8Situation7.wav,576.3796,,576.3797,588.4634,"[[999,0],[999,83],[999,167],[999,250],[999,332],[999,415],[999,500],[999,585],[999,667],[999,749],[999,833],[999,917],[999,999],[999,1082],[999,1166],[999,1250],[999,1333],[999,1418],[999,1500],[999,1584],[999,1668],[999,1750],[999,1834],[999,1918],[999,2000],[79.2,2083],[72.4,2168],[65.1,2249],[65.1,2333],[65.1,2416],[65.1,2499],[60,2586],[50.8,2667],[50,2751],[50.3,2832],[49,2916],[45.1,3001],[44.9,3083],[45,3165],[45,3250],[45.1,3333],[45.1,3416],[45.1,3499],[45.1,3582],[45.1,3668],[45.1,3748],[45.1,3833],[45.1,3915],[45.1,4002],[45.1,4083],[45.1,4167],[45.1,4252],[45.1,4333],[45.1,4415],[45.1,4500],[45.1,4581],[45.1,4667],[45.1,4748],[45.1,4834],[45.1,4915],[45.1,4999],[45.1,5082],[45.1,5167],[45.1,5249],[45.1,5333],[45.1,5417],[45.1,5502],[45.1,5583],[45.1,5668],[45.1,5748],[45.1,5833],[45.1,5917],[45.2,5999],[45.2,6083],[45.2,6165],[45.2,6250],[45.2,6332],[45.2,6417],[45.2,6500],[45.2,6585],[45.2,6666],[45.2,6749],[45.2,6833],[45.2,6915],[45.6,7000],[46.9,7084],[48.6,7168],[50.2,7250],[52.3,7333],[53.5,7419],[54.7,7499],[55.8,7583],[57.4,7665],[57.7,7749],[57.7,7833],[57.7,7917],[57.7,8001],[62,8082],[64.6,8167],[66.5,8250],[68.2,8332],[70.2,8416],[72,8500],[77.3,8582],[82.1,8669],[84.9,8749],[86.3,8835],[86.8,8916],[86.9,9000],[86.9,9082],[86.9,9167],[86.9,9250],[86.9,9333],[86.9,9417],[86.7,9498],[86.2,9582],[86,9666],[86,9749],[85.9,9833],[85.9,9916],[85.9,9999],[85.9,10082],[85.9,10165],[85.9,10249],[85.9,10332],[85.9,10418],[85.9,10499],[85.9,10583],[85.9,10668],[88.9,10749],[100,10834],[100,10917],[100,11002],[100,11083],[100,11166],[100,11249],[100,11333],[100,11417],[100,11499],[100,11581],[100,11667],[100,11748],[100,11836],[100,11916],[100,12000],[100,12083]]",1,0,588.4637,592.7287,82.56022135,3.1778,"[{""rating"":74.45909288194444,""responseTime"":2.030300000000693},{""rating"":82.56022135416667,""responseTime"":3.1778000000007296}]",space,3.7198,,592.7288,All the time,100,592.7358,,,[],,0,16,16,16,1,audio/Narrative8Situation7.wav,audio/Narrative7Situation7.wav,audio/Narrative6Situation7.wav,audio/Narrative5Situation7.wav,3,5,5,4,,,,,,,,,,,,,,,,,,,,,,,,,,,,,,,,,,,,,,,
,,,,,,663e3c879d11a64e4dbc8912,2024-05-14_12h46.21.321,group3.1-3.2-social-tom,2023.2.2,MacIntel,60.0024001,65c5074098b851296ff0b7ed,6643a351648e62756371155d,,,,,,,,,,,,,,,,,,,,,,,,,,,,,592.7361,1,audio/Narrative8Situation8.wav,595.7478,,595.7479,608.6149,"[[999,0],[999,81],[999,165],[999,248],[999,332],[999,413],[999,498],[999,581],[999,664],[999,748],[999,832],[999,913],[999,998],[999,1082],[999,1166],[999,1248],[999,1332],[999,1415],[999,1500],[999,1580],[999,1663],[999,1750],[999,1831],[999,1915],[999,2000],[999,2081],[98.3,2164],[98.9,2249],[99,2332],[99,2417],[99,2496],[99,2581],[99,2663],[99,2748],[99,2830],[99,2916],[99,2996],[99,3081],[99,3163],[99,3247],[99,3330],[99,3415],[99,3500],[99,3580],[99,3663],[99,3748],[99,3830],[99,3913],[99,3998],[99,4083],[99,4164],[99,4248],[99,4332],[99,4413],[99,4496],[99,4582],[99,4663],[99,4747],[99,4830],[99,4913],[99,5000],[99,5080],[99,5165],[99,5246],[99,5331],[99,5414],[99,5496],[99,5580],[99,5663],[99,5749],[99,5830],[99,5914],[99,5998],[99,6082],[99,6164],[99,6246],[99,6331],[99,6417],[99,6498],[99,6582],[99,6666],[99,6747],[99,6831],[99,6914],[99,6997],[99,7084],[99,7164],[99,7249],[99,7330],[99,7414],[99,7498],[99,7581],[99,7665],[99,7749],[99,7833],[99,7914],[99,7997],[99,8082],[99,8164],[99,8247],[99,8331],[99,8416],[99,8498],[99,8582],[99,8666],[99,8749],[99,8831],[99,8915],[99,9000],[99,9081],[99,9165],[99,9246],[99,9331],[99,9414],[99,9498],[99,9580],[99,9665],[99,9748],[99,9831],[98.2,9914],[94.2,10000],[90.1,10081],[86.7,10165],[82.9,10247],[81.7,10332],[81.7,10414],[81.8,10497],[81.8,10581],[81.8,10665],[81.8,10747],[81.8,10831],[81.8,10915],[81.8,10998],[81.8,11081],[81.8,11164],[81.8,11248],[81.8,11330],[81.8,11415],[81.8,11499],[81.8,11583],[81.8,11665],[81.8,11747],[81.8,11832],[81.8,11916],[81.8,11997],[81.8,12082],[81.8,12166],[81.8,12248],[81.8,12331],[81.8,12415],[81.8,12500],[81.8,12582],[81.8,12663],[81.8,12746],[81.8,12831]]",1,0,608.6153,611.7143,85.80349392,0.9085,"[{""rating"":85.80349392361111,""responseTime"":0.9085000000000036}]",space,2.5514,,611.7143,Half the time,50,611.723,,,[],,0,17,17,17,1,audio/Narrative8Situation8.wav,audio/Narrative7Situation8.wav,audio/Narrative6Situation8.wav,audio/Narrative5Situation8.wav,3,2,5,3,,,,,,,,,,,,,,,,,,,,,,,,,,,,,,,,,,,,,,,
,,,,,,663e3c879d11a64e4dbc8912,2024-05-14_12h46.21.321,group3.1-3.2-social-tom,2023.2.2,MacIntel,60.0024001,65c5074098b851296ff0b7ed,6643a351648e62756371155d,,,,,,,,,,,,,,,,,,,,,,,,,,,,,611.7231,1,audio/Narrative8Situation9.wav,614.7301,,614.7302,626.0643,"[[100,5415],[100,7501],[100,7583],[100,7665],[100,7747],[100,7833],[100,7917],[100,7998],[100,8081],[100,8164],[100,8251],[100,8332],[100,8415],[100,8498],[100,8582],[100,8665],[100,8750],[100,8831],[100,8914],[100,8999],[100,9081],[100,9166],[100,9249],[100,9332],[100,9417],[100,9499],[100,9582],[100,9668],[100,9749],[100,9831],[100,9914],[100,9998],[100,10081],[100,10164],[100,10248],[100,10332],[100,10415],[100,10498],[100,10582],[100,10665],[100,10747],[100,10834],[100,10915],[100,11000],[100,11080],[100,11165],[100,11248],[100,11333]]",1,0,626.0647,628.3279,91.88693576,1.5116,"[{""rating"":91.88693576388889,""responseTime"":1.5115999999995893}]",space,1.7203,,628.328,Half the time,50,638.4461,50.16438802,8.0133,"[{""rating"":50.16438802083333,""responseTime"":8.013300000000754}]",space,0,18,18,18,1,audio/Narrative8Situation9.wav,audio/Narrative7Situation9.wav,audio/Narrative6Situation9.wav,audio/Narrative5Situation9.wav,3,2,4,3,,,9.5888,,,,,,,,,,,,,,,,,,,,,,,,,,,,,,,,,,,,
,,,,,,663e3c879d11a64e4dbc8912,2024-05-14_12h46.21.321,group3.1-3.2-social-tom,2023.2.2,MacIntel,60.0024001,65c5074098b851296ff0b7ed,6643a351648e62756371155d,,,,,,,,,,,,,,,,,,,,,,,,,,,682.8638,685.4439,685.456,2,audio/Narrative13Situation2.wav,685.4561,,685.4561,715.1972,"[[49.1,1255],[56.4,2004],[56.4,2091],[56.4,2171],[56.6,2255],[56.8,2337],[56.8,2422],[56.8,2506],[56.8,2587],[56.8,2672],[56.8,2755],[56.8,2837],[56.8,2921],[56.8,3008],[56.8,3089],[56.7,3172],[56.7,3255],[56.7,3339],[56.7,3423],[56.7,3507],[56.7,3588],[56.7,3672],[56.7,3755],[56.7,3838],[56.7,3922],[56.7,4006],[56.7,4088],[56.7,4173],[56.7,4256],[56.7,4337],[56.9,4421],[62.9,4506],[73.8,5171],[70.4,5254],[70.7,5339],[71.4,5425],[71.7,5504],[71.7,5589],[71.7,5672],[71.7,5756],[71.7,5837],[71.7,5922],[71.7,6004],[71.7,6089],[71.7,6172],[71.7,6255],[71.7,6340],[71.7,6422],[71.7,6505],[71.7,6589],[71.7,6674],[71.7,6755],[71.7,6838],[71.7,6920],[71.7,7008],[71.7,7087],[71.7,7173],[71.7,7255],[71.7,7339],[71.7,7421],[71.7,7505],[71.7,7588],[71.7,7672],[71.7,7756],[71.7,7838],[71.7,7923],[71.7,8005],[71.7,8087],[71.7,8175],[71.7,8256],[71.7,8338],[71.7,8420],[71.7,8505],[71.7,8591],[71.7,8670],[71.7,8754],[71.7,8839],[71.7,8923],[71.7,9005],[71.7,9090],[71.7,9171],[71.7,9255],[71.7,9338],[71.7,9420],[71.7,9505],[71.7,9587],[71.7,9672],[71.7,9755],[71.7,9840],[71.7,9922],[71.7,10005],[71.7,10087],[71.7,10171],[71.7,10254],[71.7,10340],[71.7,10422],[71.7,10507],[71.7,10589],[71.7,10671],[71.7,10756],[71.7,10839],[71.7,10922],[71.7,11005],[71.7,11089],[71.7,11173],[71.7,11257],[71.7,11337],[71.7,11423],[71.7,11506],[71.7,11587],[71.7,11675],[71.7,11756],[71.7,11841],[71.7,11922],[71.7,12005],[71.7,12087],[71.7,12170],[71.7,12255],[71.7,12338],[71.7,12420],[71.7,12505],[71.7,12587],[71.7,12673],[71.7,12754],[71.7,12838],[71.7,12920],[71.7,13004],[71.7,13087],[71.7,13172],[71.7,13254],[71.7,13338],[71.7,13420],[71.7,13505],[71.7,13588],[71.7,13672],[71.7,13754],[71.7,13840],[71.7,13922],[71.7,14004],[73.6,14089],[77.6,14171],[81.1,14258],[82.7,14340],[83.7,14421],[83.7,14508],[83.7,14588],[83.7,14672],[83.7,14757],[83.7,14839],[83.7,14922],[83.7,15007],[83.7,15087],[83.7,15173],[83.7,15256],[83.7,15338],[83.7,15421],[83.7,15504],[83.7,15590],[83.7,15670],[83.7,15755],[83.7,15837],[83.7,15922],[83.7,16005],[83.7,16088],[83.7,16170],[83.7,16254],[83.7,16337],[83.7,16423],[83.7,16505],[83.7,16587],[83.7,16673],[83.7,16755],[83.7,16838],[83.7,16922],[83.7,17005],[83.7,17091],[83.7,17172],[83.7,17255],[83.7,17341],[83.7,17422],[83.7,17504],[83.7,17590],[83.7,17671],[83.7,17755],[83.7,17838],[83.7,17921],[83.7,18006],[83.7,18089],[83.7,18170],[83.7,18258],[83.7,18339],[83.7,18422],[83.7,18507],[83.7,18588],[83.7,18672],[83.7,18757],[83.7,18838],[83.7,18922],[83.7,19004],[83.7,19088],[83.7,19170],[83.7,19256],[83.7,19337],[83.7,19422],[83.7,19505],[83.7,19587],[83.7,19672],[83.7,19755],[83.7,19840],[83.7,19924],[83.7,20005],[83.7,20087],[83.7,20170],[83.7,20253],[83.7,20340],[83.7,20421],[83.7,20506],[83.7,20588],[83.7,20672],[83.7,20754],[83.7,20838],[83.7,20922],[83.7,21005],[83.7,21087],[83.7,21172],[83.7,21255],[83.7,21337],[83.7,21421],[83.7,21506],[83.7,21588],[83.7,21671],[83.7,21755],[83.7,21839],[83.7,21920],[83.7,22007],[83.7,22087],[83.7,22174],[83.7,22257],[83.7,22337],[83.7,22421],[83.7,22507],[83.7,22588],[83.7,22672],[83.7,22754],[83.7,22838],[83.7,22925],[83.7,23007],[83.8,23087],[85.5,23171],[86.2,23262],[86.7,23339],[86.9,23421],[87.3,23505],[88.3,23590],[88.3,23672],[88.3,23755],[88.3,23838],[88.3,23923],[88.3,24005],[88.3,24087],[88.3,24173],[88.3,24254],[88.3,24338],[88.3,24421],[88.3,24506],[88.3,24590],[88.3,24670],[88.3,24754],[88.3,24837],[88.3,24922],[88.3,25008],[88.3,25091],[88.3,25172],[88.3,25254],[88.3,25340],[88.3,25421],[88.3,25503],[88.3,25589],[88.3,25671],[88.3,25753],[88.3,25839],[88.3,25920],[88.3,26006],[88.3,26088],[88.3,26171],[88.3,26254],[88.3,26338],[88.3,26423],[88.3,26503],[88.3,26587],[88.3,26672],[88.3,26754],[88.3,26837],[88.3,26920],[88.3,27005],[88.3,27087],[88.3,27171],[88.3,27255],[88.3,27340],[88.3,27422],[88.3,27505],[88.3,27587],[88.3,27672],[88.3,27754],[88.3,27838],[88.3,27923],[88.3,28004],[88.3,28087],[88.3,28171],[88.3,28255],[88.3,28337],[88.3,28422],[88.3,28504],[88.3,28591],[88.3,28671],[88.3,28756],[88.3,28838],[88.3,28921],[88.3,29006],[88.3,29088],[88.3,29171],[88.3,29255],[88.3,29338],[88.3,29422],[88.3,29508],[88.3,29589],[88.3,29671]]",1,0,715.1975,715.2036,,,[],,,,715.2036,All the time,100,715.2111,,,[],,0,0,0,0,1,audio/Narrative13Situation2.wav,audio/Narrative13Situation2.wav,audio/Narrative13Situation2.wav,audio/Narrative13Situation2.wav,2,2,2,2,,,,,638.447,682.863,space,43.8824,,,,,,,,,,,,,,,,,,,,,,,,,,,,,,,
,,,,,,663e3c879d11a64e4dbc8912,2024-05-14_12h46.21.321,group3.1-3.2-social-tom,2023.2.2,MacIntel,60.0024001,65c5074098b851296ff0b7ed,6643a351648e62756371155d,,,,,,,,,,,,,,,,,,,,,,,,,,,,,715.2113,2,audio/Narrative5Situation1.wav,720.2121,,720.2122,733.5292,"[[87.7,1998],[85.7,2083],[83.9,2164],[83,2250],[82.9,2332],[82.9,2414],[82.9,2499],[82.9,2581],[82.9,2668],[82.9,2751],[82.9,2832],[82.9,2915],[82.7,3001],[69.3,3082],[62.7,3164],[62.3,3248],[62.3,3331],[62.3,3414],[62.3,3500],[61.9,3582],[56.1,3668],[53.5,3749],[53.2,3831],[53.2,3916],[53.2,3999],[53.2,4083],[53.4,4164],[53.5,4249],[53.5,4330],[53.5,4416],[53.5,4498],[53.5,4581],[53.5,4665],[53.5,4747],[53.5,4832],[53.5,4916],[53.5,5000],[53.5,5085],[53.5,5166],[53.5,5251],[53.5,5331],[53.5,5414],[53.5,5500],[53.5,5584],[53.5,5665],[53.5,5749],[53.5,5833],[53.5,5915],[53.5,5999],[53.5,6083],[53.5,6165],[53.5,6250],[53.5,6332],[53.5,6414],[53.5,6501],[53.5,6582],[53.9,6666],[55.5,6749],[57.4,6835],[58.4,6914],[59.5,7001],[60.1,7081],[60.7,7165],[61.2,7250],[61.8,7334],[62.3,7416],[63,7499],[63.7,7583],[64.6,7665],[65,7749],[65.2,7834],[65.2,7916],[65.2,7998],[65.2,8080],[65.2,8167],[65.2,8248],[65.2,8332],[65.2,8417],[65.2,8499],[65.2,8580],[65.2,8664],[65.2,8748],[65.2,8831],[65.2,8916],[65.2,8997],[65.2,9080],[65.2,9166],[65.2,9248],[65.2,9330],[65.2,9415],[65.2,9498],[65.2,9582],[65.2,9665],[65.2,9747],[65.2,9831],[65.2,9916],[65.2,9999],[65.2,10082],[65.2,10166],[65.2,10251],[65.3,10331],[69.2,10415],[72.2,10499],[73.7,10582],[75.3,10665],[76.4,10751],[76.6,10832],[76.6,10914],[76.6,10998],[76.6,11082],[76.6,11168],[76.6,11249],[76.6,11332],[76.6,11414],[76.6,11499],[76.6,11582],[76.6,11665],[76.6,11749],[76.6,11832],[76.6,11917],[76.6,11998],[76.6,12082],[76.6,12167],[76.6,12248],[76.6,12332],[76.6,12416],[76.6,12500],[76.6,12581],[76.6,12666],[76.6,12748],[76.6,12834],[76.6,12915],[76.6,12998],[76.6,13084],[76.6,13165],[76.6,13247]]",1,0,733.5294,737.9287,90.39659288,2.4092,"[{""rating"":90.39659288194444,""responseTime"":2.409200000001192}]",space,3.8517,,737.9289,All the time,100,737.9346,,,[],,0,1,1,1,1,audio/Narrative7Situation1.wav,audio/Narrative8Situation1.wav,audio/Narrative5Situation1.wav,audio/Narrative6Situation1.wav,2,5,5,2,,,,,,,,,,,,,,,,,,,,,,,,,,,,,,,,,,,,,,,
,,,,,,663e3c879d11a64e4dbc8912,2024-05-14_12h46.21.321,group3.1-3.2-social-tom,2023.2.2,MacIntel,60.0024001,65c5074098b851296ff0b7ed,6643a351648e62756371155d,,,,,,,,,,,,,,,,,,,,,,,,,,,,,737.9348,2,audio/Narrative5Situation2.wav,740.9446,,740.9447,770.4109,"[[999,0],[999,83],[999,165],[999,248],[999,333],[999,415],[999,501],[999,581],[999,666],[999,748],[999,831],[999,916],[999,1000],[999,1082],[999,1166],[999,1249],[999,1333],[999,1416],[999,1501],[999,1583],[999,1668],[999,1750],[999,1833],[999,1918],[999,2000],[999,2082],[999,2168],[999,2252],[999,2331],[999,2417],[999,2499],[999,2582],[66.4,2667],[61.8,2749],[59.5,2835],[59.2,2917],[59.2,2997],[59.2,3085],[59.2,3166],[59.2,3251],[59.3,3334],[59.5,3416],[59.6,3500],[59.8,3584],[59.9,3665],[59.9,3748],[59.9,3831],[59.9,3916],[59.9,4002],[60,4083],[60,4165],[60,4248],[60.2,4333],[60.3,4415],[60.3,4501],[60.3,4581],[60.7,4670],[63.3,4752],[68.5,4832],[70.3,4914],[70.5,4997],[70.5,5081],[70.5,5166],[70.5,5250],[70.5,5331],[70.5,5414],[70.5,5500],[70.5,5581],[70.5,5666],[70.5,5750],[70.5,5833],[70.5,5914],[70.5,5999],[70.5,6081],[70.5,6166],[70.5,6248],[70.5,6334],[70.5,6414],[70.5,6499],[70.5,6584],[70.5,6664],[70.5,6749],[70.5,6831],[70.5,6916],[70.5,7000],[70.5,7081],[70.5,7166],[70.5,7249],[70.5,7332],[70.5,7414],[70.5,7500],[70.5,7585],[70.5,7667],[70.5,7748],[70.5,7833],[70.5,7917],[70.5,7999],[70.5,8084],[70.5,8164],[70.5,8247],[70.5,8332],[70.5,8416],[70.5,8501],[70.5,8581],[70.5,8667],[70.5,8747],[70.5,8832],[70.5,8919],[70.5,8998],[70.5,9082],[70.5,9167],[70.5,9249],[70.5,9332],[70.5,9418],[70.5,9497],[70.5,9584],[70.5,9664],[70.5,9749],[70.7,9834],[70.9,9915],[71.3,9999],[71.7,10084],[72,10167],[72.2,10250],[72.2,10334],[72.2,10416],[72.4,10498],[72.4,10583],[72.4,10666],[72.4,10749],[72.4,10831],[72.5,10916],[72.8,10998],[72.9,11084],[72.9,11166],[72.9,11249],[72.9,11332],[72.9,11414],[72.9,11500],[72.9,11583],[72.9,11666],[72.9,11750],[72.9,11832],[72.9,11915],[72.9,12001],[72.9,12082],[72.9,12166],[72.9,12250],[72.9,12334],[72.9,12415],[72.9,12499],[72.9,12581],[72.9,12667],[72.9,12750],[72.9,12831],[72.9,12915],[72.9,12998],[72.9,13084],[72.9,13166],[72.9,13249],[72.9,13334],[72.9,13417],[72.9,13499],[72.9,13582],[72.9,13667],[72.9,13750],[72.9,13832],[72.9,13915],[72.9,13999],[72.9,14084],[72.9,14164],[72.9,14249],[72.9,14332],[72.9,14416],[72.9,14497],[72.9,14585],[72.9,14664],[72.9,14749],[73,14832],[73.1,14915],[73.2,14999],[73.3,15083],[73.3,15164],[73.4,15252],[73.7,15333],[73.7,15419],[73.7,15499],[73.7,15581],[74.2,15667],[75.4,15749],[76.2,15833],[76.9,15914],[78.3,16001],[79.6,16083],[81.2,16167],[82.1,16248],[82.8,16332],[83.2,16414],[83.2,16498],[83.2,16585],[83.2,16665],[83.2,16749],[83.2,16832],[83.2,16916],[83.2,17000],[83.2,17082],[83.1,17169],[82.8,17249],[82.6,17333],[82.4,17418],[82.3,17498],[82.3,17583],[82.3,17665],[82.3,17748],[82.3,17831],[82.3,17915],[82.3,17998],[82.3,18085],[82.3,18166],[82.3,18252],[82.3,18332],[82.3,18416],[82.3,18498],[82.3,18583],[82.3,18666],[82.3,18747],[82.3,18831],[82.3,18915],[82.3,18999],[82.3,19081],[82.3,19164],[82.3,19247],[82.3,19333],[82.3,19414],[82.3,19501],[82.3,19583],[82.3,19666],[82.3,19750],[82.3,19832],[82.3,19919],[82.3,20000],[82.3,20082],[82.3,20167],[82.3,20250],[82.3,20331],[82.3,20416],[82.3,20499],[82.3,20583],[82.3,20666],[82.3,20747],[82.2,20831],[82.1,20918],[82.1,20999],[82,21081],[82,21167],[82,21248],[82,21332],[82,21417],[82,21500],[82,21584],[82.1,21666],[82.1,21749],[82.2,21833],[82.3,21916],[82.6,21998],[82.7,22085],[82.7,22166],[82.9,22251],[84.2,22332],[86.8,22416],[87.9,22499],[88,22582],[89.1,22665],[91.4,22750],[91.6,22833],[91.6,22917],[91.6,22997],[91.6,23083],[91.6,23164],[91.6,23251],[91.6,23333],[91.6,23416],[91.6,23499],[91.6,23582],[91.6,23667],[91.6,23749],[91.6,23831],[91.6,23916],[91.6,24000],[91.6,24082],[91.6,24167],[91.6,24249],[91.6,24332],[91.6,24414],[91.6,24497],[91.6,24582],[91.6,24668],[91.6,24749],[91.6,24832],[91.6,24915],[91.6,24999],[91.6,25081],[91.6,25164],[91.6,25249],[91.6,25330],[91.6,25416],[91.6,25502],[91.6,25582],[91.6,25666],[91.6,25750],[91.6,25834],[91.6,25916],[91.6,25999],[91.6,26084],[92.2,26167],[92.8,26249],[92.8,26334],[92.8,26414],[92.9,26500],[93.1,26584],[93.1,26666],[93.1,26749],[93.1,26833],[93.5,26915],[94.2,27002],[94.8,27082],[95.2,27166],[95.3,27247],[95.4,27333],[95.5,27414],[95.5,27499],[95.5,27582],[95.5,27669],[95.5,27749],[95.5,27832],[95.5,27915],[95.5,27999],[95.6,28083],[95.7,28164],[95.7,28249],[95.7,28332],[95.7,28418],[95.8,28497],[95.8,28581],[95.8,28666],[95.9,28749],[95.9,28833],[95.9,28916],[95.9,28999],[95.9,29082],[95.9,29166],[95.9,29248],[95.9,29335],[95.9,29416]]",1,0,770.4112,774.4441,82.47124566,1.5294,"[{""rating"":90.56803385416667,""responseTime"":0.9594000000003007},{""rating"":82.47124565972221,""responseTime"":1.5294000000003507}]",space,3.4871,,774.4442,Not at all,0,774.4535,,,[],,0,2,2,2,1,audio/Narrative7Situation2.wav,audio/Narrative8Situation2.wav,audio/Narrative5Situation2.wav,audio/Narrative6Situation2.wav,3,3,3,3,,,,,,,,,,,,,,,,,,,,,,,,,,,,,,,,,,,,,,,
,,,,,,663e3c879d11a64e4dbc8912,2024-05-14_12h46.21.321,group3.1-3.2-social-tom,2023.2.2,MacIntel,60.0024001,65c5074098b851296ff0b7ed,6643a351648e62756371155d,,,,,,,,,,,,,,,,,,,,,,,,,,,,,774.4537,2,audio/Narrative5Situation3.wav,777.4612,,777.4612,791.3927,"[[999,0],[999,84],[999,168],[999,249],[999,331],[999,417],[999,498],[999,581],[999,667],[999,748],[999,832],[999,914],[999,1001],[999,1081],[999,1166],[999,1247],[999,1335],[999,1416],[999,1497],[999,1581],[999,1666],[999,1750],[82.9,1834],[81.6,1918],[80.6,1998],[80.2,2081],[80.1,2165],[80.1,2248],[80.1,2333],[80.1,2415],[80.1,2498],[80.1,2582],[80.1,2664],[80.1,2751],[80.1,2831],[80.1,2915],[80.1,3000],[80.1,3081],[80.1,3166],[80.1,3247],[80.1,3331],[80.1,3415],[80.1,3499],[80.1,3581],[80.1,3664],[80.1,3749],[80.1,3831],[80.1,3914],[80.1,3999],[80.1,4082],[80.1,4167],[80.1,4250],[80.1,4331],[80.1,4414],[80.1,4498],[80.1,4582],[80.1,4665],[80.1,4751],[80.1,4834],[80.1,4914],[80.1,4999],[80.1,5081],[80.1,5166],[80.1,5250],[80.1,5334],[80.1,5416],[80.1,5498],[80.1,5582],[80.1,5665],[80.1,5749],[80.1,5832],[80.1,5915],[80.1,5997],[80.1,6083],[80.1,6165],[79.7,6248],[77.9,6332],[77.8,6415],[77.7,6500],[77.7,6582],[77.7,6667],[77.7,6750],[77.7,6831],[77.8,6914],[77.8,7000],[77.8,7084],[77.8,7164],[77.8,7249],[77.8,7331],[77.8,7416],[77.8,7499],[77.8,7581],[77.8,7668],[77.8,7749],[78.4,7833],[80.6,7914],[84.3,7998],[88.6,8081],[90,8167],[91.4,8248],[93.5,8335],[95.1,8415],[95.8,8500],[96.3,8582],[96.5,8666],[96.5,8750],[96.5,8834],[96.5,8916],[96.5,8998],[96.5,9081],[96.5,9165],[96.5,9248],[96.5,9331],[96.5,9415],[96.5,9502],[96.5,9582],[96.5,9664],[96.5,9748],[96.5,9833],[96.5,9914],[96.5,9999],[96.5,10082],[96.5,10165],[96.5,10247],[96.5,10332],[96.5,10415],[96.5,10500],[96.5,10582],[96.5,10665],[96.5,10750],[96.5,10831],[96.5,10917],[96.5,10999],[96.5,11081],[96.5,11165],[96.5,11252],[96.5,11332],[96.5,11417],[96.5,11499],[96.5,11582],[96.5,11664],[96.5,11747],[96.5,11833],[96.5,11917],[96.5,12002],[96.5,12081],[96.5,12164],[96.5,12248],[96.5,12332],[96.5,12416],[96.5,12501],[96.5,12584],[96.5,12666],[96.5,12747],[96.5,12834],[96.5,12915],[96.5,12998],[96.5,13081],[96.5,13164],[96.5,13250],[96.5,13330],[96.5,13415],[96.5,13497],[96.5,13580],[96.5,13665],[96.5,13747],[96.5,13831],[96.5,13914]]",1,0,791.3929,800.3106,84.60015191,3.0948,"[{""rating"":91.26898871527777,""responseTime"":0.8455000000000155},{""rating"":80.19097222222223,""responseTime"":2.263900000000376},{""rating"":84.60015190972221,""responseTime"":3.0948000000007596}]",space,8.3685,,800.3108,Not at all,0,800.3174,,,[],,0,3,3,3,1,audio/Narrative7Situation3.wav,audio/Narrative8Situation3.wav,audio/Narrative5Situation3.wav,audio/Narrative6Situation3.wav,8,4,3,5,,,,,,,,,,,,,,,,,,,,,,,,,,,,,,,,,,,,,,,
,,,,,,663e3c879d11a64e4dbc8912,2024-05-14_12h46.21.321,group3.1-3.2-social-tom,2023.2.2,MacIntel,60.0024001,65c5074098b851296ff0b7ed,6643a351648e62756371155d,,,,,,,,,,,,,,,,,,,,,,,,,,,,,800.3176,2,audio/Narrative5Situation4.wav,801.3252,,801.3252,821.7108,"[[84.6,251],[84.7,336],[84.7,416],[84.7,500],[84.7,585],[84.7,667],[84.7,750],[83.5,1167],[76.7,1250],[75.8,1335],[75.7,1417],[71.5,1502],[68.2,1584],[68.1,1666],[68.1,1751],[68.1,1834],[68.1,1919],[68.1,2001],[68.1,2083],[68.1,2168],[68.1,2252],[68.1,2335],[68.1,2418],[68.1,2502],[68.1,2585],[68.1,2669],[68.1,2751],[68.1,2834],[68.1,2919],[68.1,3002],[68.1,3084],[68.1,3169],[68.1,3250],[68.1,3336],[68.1,3416],[68.1,3501],[68.1,3583],[68.1,3668],[68.1,3754],[68.1,3836],[68.1,3918],[68.1,4000],[68.1,4084],[68.1,4167],[68.1,4251],[68.1,4335],[68.1,4417],[68.1,4504],[68.1,4584],[68.1,4668],[68.1,4753],[68.1,4835],[68.1,4919],[67.5,5003],[61.8,5085],[52,5167],[48.1,5251],[45.4,5334],[39.9,5418],[39.3,5501],[39.3,5583],[39.3,5666],[39.3,5750],[39.3,5833],[39.3,5918],[39.3,6002],[39.3,6085],[39.3,6166],[39.3,6252],[39.3,6335],[39.3,6420],[39.3,6501],[39.3,6586],[39.3,6669],[39.3,6750],[39.3,6833],[39.3,6919],[39.3,7002],[39.3,7084],[39.3,7169],[39.3,7250],[39.3,7333],[39.3,7418],[39.3,7501],[39.3,7583],[39.3,7668],[39.3,7751],[39.3,7836],[39.3,7918],[39.3,8001],[39.3,8084],[39.3,8168],[39.3,8250],[39.3,8335],[39.3,8417],[39.3,8500],[39.3,8584],[39.3,8668],[39.3,8750],[39.3,8835],[39.3,8918],[39.3,9000],[39.3,9084],[39.3,9166],[39.3,9250],[39.3,9334],[39.3,9418],[39.3,9500],[39.3,9584],[40.8,9667],[43.5,9751],[46.4,9834],[49.6,9918],[54.3,10001],[58.8,10084],[62.8,10166],[65.6,10251],[66.7,10333],[67,10420],[67.1,10501],[67.7,10588],[69,10670],[70.1,10750],[71.6,10835],[73.5,10919],[73.5,11003],[73.5,11086],[73.5,11166],[73.5,11251],[73.5,11335],[73.5,11418],[73.5,11501],[73.6,11586],[73.6,11667],[73.6,11754],[73.6,11834],[73.6,11916],[73.6,12000],[73.6,12083],[73.6,12166],[73.6,12253],[73.6,12335],[73.6,12416],[73.6,12500],[73.6,12585],[73.6,12667],[73.6,12753],[73.6,12833],[73.6,12918],[73.6,13000],[73.6,13084],[73.6,13168],[73.6,13252],[73.6,13333],[73.6,13418],[73.6,13502],[73.6,13585],[73.6,13668],[73.6,13750],[73.6,13833],[73.6,13920],[73.6,14001],[73.6,14085],[73.6,14169],[73.6,14250],[73.6,14335],[73.6,14419],[73.6,14501],[73.6,14583],[73.6,14668],[73.6,14751],[73.6,14836],[73.6,14918],[73.6,15002],[73.6,15086],[73.6,15169],[73.6,15250],[73.6,15336],[73.6,15418],[73.6,15501],[73.6,15586],[73.6,15667],[73.6,15753],[73.6,15834],[73.6,15916],[73.6,16003],[73.6,16084],[73.6,16166],[73.6,16250],[73.6,16333],[73.6,16418],[73.6,16503],[73.6,16586],[73.6,16668],[73.6,16752],[73.6,16833],[73.6,16918],[73.6,17000],[73.6,17086],[73.6,17167],[73.6,17251],[73.6,17334],[73.6,17418],[73.6,17501],[73.6,17584],[73.6,17666],[73.6,17751],[73.6,17836],[73.6,17917],[73.6,18002],[73.6,18084],[73.6,18169],[73.6,18250],[73.6,18333],[73.6,18416],[73.6,18500],[73.6,18583],[73.6,18668],[73.6,18751],[73.6,18833],[73.6,18918],[73.6,19003],[73.6,19084],[73.6,19168],[73.6,19250],[73.6,19336],[73.6,19417],[73.7,19501],[73.8,19585],[73.8,19667],[73.8,19750],[73.8,19835],[73.8,19917],[73.8,20000],[73.8,20085],[73.8,20167],[73.8,20249],[73.8,20334]]",1,0,821.711,826.9931,54.19542101,3.9105,"[{""rating"":78.04307725694444,""responseTime"":0.9260999999996784},{""rating"":54.091796875,""responseTime"":2.610500000000002},{""rating"":49.767795138888886,""responseTime"":3.2929000000003725},{""rating"":54.19542100694444,""responseTime"":3.9104999999999563}]",space,4.7507,,826.9932,Not at all,0,826.9987,,,[],,0,4,4,4,1,audio/Narrative7Situation4.wav,audio/Narrative8Situation4.wav,audio/Narrative5Situation4.wav,audio/Narrative6Situation4.wav,3,3,1,2,,,,,,,,,,,,,,,,,,,,,,,,,,,,,,,,,,,,,,,
,,,,,,663e3c879d11a64e4dbc8912,2024-05-14_12h46.21.321,group3.1-3.2-social-tom,2023.2.2,MacIntel,60.0024001,65c5074098b851296ff0b7ed,6643a351648e62756371155d,,,,,,,,,,,,,,,,,,,,,,,,,,,,,826.999,2,audio/Narrative5Situation5.wav,832.0102,,832.0102,847.4458,"[[999,0],[999,81],[999,164],[999,248],[57.5,332],[54.9,418],[54.5,498],[54.5,585],[54.5,667],[54.5,749],[54.5,833],[54.5,914],[54.5,998],[54.5,1083],[54.5,1167],[54.5,1248],[54.5,1335],[54.5,1416],[54.5,1502],[54.5,1581],[54.5,1666],[54.5,1749],[54.5,1834],[54.5,1915],[54.5,1999],[54.5,2084],[54.5,2165],[54.5,2249],[54.5,2333],[54.5,2416],[54.5,2498],[54.5,2583],[54.5,2665],[54.5,2750],[54.5,2832],[54.5,2916],[54.5,3000],[54.5,3082],[54.5,3166],[54.5,3249],[54.5,3332],[54.5,3415],[54.5,3500],[54.5,3581],[54.5,3664],[54.5,3747],[54.5,3832],[54.5,3915],[55.3,3999],[56.3,4084],[58.6,4165],[70,4250],[79.9,4332],[83.9,4418],[86.6,4499],[87.9,4582],[88.2,4666],[88.2,4748],[88.2,4832],[88.2,4917],[88.2,4998],[88.2,5081],[88.2,5165],[88.2,5249],[88.2,5331],[88.2,5416],[88.2,5499],[88.2,5584],[88.2,5666],[88.2,5749],[88.2,5833],[88.2,5915],[88.2,6002],[88.2,6082],[88.2,6165],[88.2,6249],[88.2,6331],[88.2,6416],[88.2,6498],[88.2,6582],[88.2,6664],[88.2,6751],[88.2,6832],[88.2,6917],[88.2,7000],[88.2,7083],[88.2,7165],[88.2,7250],[88.2,7331],[88.2,7415],[88.2,7499],[88.2,7583],[88.2,7666],[88.2,7750],[88.2,7831],[88.2,7915],[88.2,8000],[88.2,8083],[88.2,8167],[88.2,8248],[88.2,8331],[88.2,8417],[88.2,8498],[88.2,8582],[88.3,8665],[88.3,8748],[88.3,8832],[88.3,8916],[88.3,8998],[88.3,9081],[88.3,9166],[88.3,9248],[88.3,9331],[88.3,9415],[88.3,9497],[88.3,9581],[88.3,9665],[88.3,9750],[88.3,9833],[88.3,9918],[88.3,10001],[88.3,10083],[88.3,10165],[88.3,10251],[88.3,10333],[88.3,10414],[88.3,10499],[88.3,10582],[88.3,10666],[88.3,10750],[88.3,10834],[88.3,10915],[88.3,10999],[88.3,11082],[88.3,11167],[88.3,11249],[88.3,11332],[88.3,11416],[88.3,11499],[89.2,11582],[100,11668],[100,11750],[100,11831],[100,11917],[100,11998],[100,12084],[100,12166],[100,12250],[100,12333],[100,12416],[100,12498],[100,12584],[100,12666],[100,12748],[100,12832],[100,12915],[100,12999],[100,13084],[100,13165],[100,13249],[100,13334],[100,13415],[100,13500],[100,13582],[100,13666],[100,13750],[100,13832],[100,13918],[100,13999],[100,14083],[100,14166],[100,14251],[100,14331],[100,14414],[100,14500],[100,14582],[100,14664],[100,14750],[100,14832],[100,14916],[100,15000],[100,15082],[100,15165],[100,15250],[100,15333],[100,15415]]",1,0,847.446,849.2919,94.06467014,0.9064,"[{""rating"":94.06467013888889,""responseTime"":0.9064000000004171}]",space,1.2992,,849.292,Not at all,0,849.2988,,,[],,0,5,5,5,1,audio/Narrative7Situation5.wav,audio/Narrative8Situation5.wav,audio/Narrative5Situation5.wav,audio/Narrative6Situation5.wav,5,2,5,2,,,,,,,,,,,,,,,,,,,,,,,,,,,,,,,,,,,,,,,
,,,,,,663e3c879d11a64e4dbc8912,2024-05-14_12h46.21.321,group3.1-3.2-social-tom,2023.2.2,MacIntel,60.0024001,65c5074098b851296ff0b7ed,6643a351648e62756371155d,,,,,,,,,,,,,,,,,,,,,,,,,,,,,849.299,2,audio/Narrative5Situation6.wav,852.3104,,852.3105,857.9762,"[[999,0],[999,81],[999,167],[999,249],[999,332],[999,415],[999,499],[999,581],[999,666],[999,749],[999,832],[999,917],[999,998],[999,1086],[999,1167],[999,1249],[999,1335],[999,1416],[999,1498],[999,1581],[54.5,1666],[54,1748],[53.9,1834],[53.9,1915],[53.9,1999],[53.9,2081],[53.9,2164],[53.9,2250],[53.9,2333],[53.9,2414],[53.9,2500],[53.9,2582],[53.9,2665],[53.9,2749],[53.9,2832],[53.9,2914],[53.9,3001],[53.9,3082],[53.9,3165],[53.9,3250],[53.9,3331],[53.9,3417],[53.9,3498],[53.9,3582],[53.9,3665],[53.9,3749],[53.9,3832],[53.9,3914],[53.9,3999],[53.9,4085],[53.9,4167],[54.1,4249],[54.8,4331],[55.8,4415],[56.5,4498],[57.1,4582],[57.5,4668],[57.8,4748],[58,4833],[58.1,4916],[58.1,4997],[58.1,5080],[58.9,5166],[59.4,5250],[59.8,5334],[59.9,5417],[59.9,5498],[59.9,5582],[59.9,5665]]",1,0,857.9764,861.4749,59.76074219,2.3446,"[{""rating"":59.76074218750001,""responseTime"":2.344600000001492}]",space,2.9533,,861.475,Half the time,50,861.4854,,,[],,0,6,6,6,1,audio/Narrative7Situation6.wav,audio/Narrative8Situation6.wav,audio/Narrative5Situation6.wav,audio/Narrative6Situation6.wav,3,2,3,2,,,,,,,,,,,,,,,,,,,,,,,,,,,,,,,,,,,,,,,
,,,,,,663e3c879d11a64e4dbc8912,2024-05-14_12h46.21.321,group3.1-3.2-social-tom,2023.2.2,MacIntel,60.0024001,65c5074098b851296ff0b7ed,6643a351648e62756371155d,,,,,,,,,,,,,,,,,,,,,,,,,,,,,861.4856,2,audio/Narrative5Situation7.wav,865.4915,,865.4915,886.5275,"[[999,0],[999,84],[999,166],[999,251],[999,334],[999,416],[999,500],[999,585],[999,667],[999,751],[999,834],[999,917],[999,1003],[999,1083],[999,1167],[999,1250],[999,1332],[999,1418],[999,1502],[999,1586],[999,1668],[999,1749],[999,1834],[999,1917],[999,2000],[999,2084],[999,2168],[999,2249],[999,2333],[999,2418],[999,2500],[999,2585],[999,2666],[999,2753],[999,2834],[999,2918],[999,3000],[999,3083],[999,3167],[999,3253],[999,3333],[999,3417],[999,3499],[999,3584],[999,3667],[69.8,3752],[55.7,4251],[55.5,4332],[55.7,4416],[55.2,4501],[55,9918],[55.1,10003],[55.1,10083],[55.5,10166],[56.1,10253],[56.5,10334],[56.7,10420],[56.7,10499],[56.7,10584],[56.7,10667],[56.7,10750],[56.7,10833],[56.7,10918],[56.7,11002],[56.7,11084],[56.7,11170],[56.7,11249],[56.7,11334],[56.7,11416],[56.7,11501],[56.7,11583],[56.7,11667],[56.7,11751],[56.7,11837],[56.7,11919],[56.7,11999],[56.7,12085],[56.7,12168],[56.7,12251],[56.7,12334],[56.7,12418],[56.7,12502],[56.7,12583],[56.7,12668],[56.7,12749],[56.7,12832],[56.7,12917],[56.7,13000],[56.7,13084],[56.7,13167],[56.7,13251],[56.7,13333],[56.7,13417],[56.7,13501],[56.7,13583],[56.7,13666],[56.7,13751],[56.7,13835],[56.7,13917],[56.7,14003],[56.7,14082],[56.7,14166],[56.7,14250],[56.7,14332],[56.7,14419],[56.7,14499],[56.7,14584],[56.7,14668],[56.7,14752],[56.7,14832],[56.7,14917],[56.7,15001],[56.7,15084],[56.7,15167],[56.7,15250],[56.7,15337],[56.8,15417],[56.9,15501],[56.9,15584],[56.9,15667],[56.9,15751],[56.9,15832],[56.9,15919],[56.9,16000],[56.9,16084],[56.9,16168],[56.9,16250],[56.9,16334],[56.9,16418],[56.9,16499],[56.9,16584],[56.9,16668],[56.9,16750],[56.9,16834],[56.9,16916],[56.9,17002],[56.9,17084],[56.9,17167],[56.9,17249],[56.9,17335],[56.9,17416],[56.9,17501],[56.9,17583],[57,17666],[57,17753],[57,17834],[57,17917],[57,17999],[57,18084],[57,18167],[57,18251],[57,18334],[57,18418],[57,18502],[57.1,18583],[57.1,18669],[57.1,18750],[57.1,18832],[57.1,18919],[57.1,19001],[57.1,19083],[57.1,19166],[57.1,19249],[57.1,19335],[57.1,19416],[57.1,19500],[57.1,19582],[57.1,19667],[57.1,19750],[57.1,19834],[57.1,19918],[57.1,19999],[57.1,20082],[57.1,20167],[57.1,20250],[57.1,20333],[57.1,20418],[57.1,20500],[57.1,20582],[57.1,20666],[57.1,20752],[57.1,20836],[57.1,20917],[57.1,20999]]",1,0,886.528,890.0911,51.53917101,1.3243,"[{""rating"":51.53917100694444,""responseTime"":1.324299999998857}]",space,3.0203,,890.0911,Half the time,50,890.099,,,[],,0,7,7,7,1,audio/Narrative7Situation7.wav,audio/Narrative8Situation7.wav,audio/Narrative5Situation7.wav,audio/Narrative6Situation7.wav,5,3,4,5,,,,,,,,,,,,,,,,,,,,,,,,,,,,,,,,,,,,,,,
,,,,,,663e3c879d11a64e4dbc8912,2024-05-14_12h46.21.321,group3.1-3.2-social-tom,2023.2.2,MacIntel,60.0024001,65c5074098b851296ff0b7ed,6643a351648e62756371155d,,,,,,,,,,,,,,,,,,,,,,,,,,,,,890.0993,2,audio/Narrative5Situation8.wav,893.1095,,893.1095,901.9408,"[[999,0],[999,82],[999,166],[999,249],[999,335],[999,416],[999,498],[999,581],[999,665],[999,751],[999,832],[999,915],[999,1002],[999,1083],[999,1164],[999,1248],[999,1332],[999,1417],[999,1498],[999,1583],[999,1665],[999,1749],[999,1832],[38.9,1918],[37.8,2000],[37.4,2081],[37.4,2167],[37.4,2249],[37.4,2334],[37.4,2417],[37.4,2499],[37.4,2583],[37.4,2668],[37.4,2750],[37.4,2832],[37.4,2918],[37.4,2999],[37.4,3082],[37.4,3167],[37.4,3249],[37.4,3335],[37.4,3416],[37.4,3498],[37.4,3583],[37.4,3665],[37.4,3752],[37.4,3832],[37.4,3916],[37.4,4000],[37.4,4081],[37.4,4166],[37.4,4249],[37.4,4331],[37.4,4415],[37.4,4497],[37.4,4581],[37.4,4665],[37.4,4748],[37.4,4831],[37.4,4915],[37.4,5002],[37.4,5083],[37.4,5164],[37.4,5249],[37.4,5331],[37.4,5417],[37.4,5501],[37.4,5582],[37.4,5665],[37.4,5748],[37.4,5832],[37.4,5917],[37.4,5997],[39.1,6082],[42.4,6168],[53.6,6250],[67.6,6335],[82.6,6414],[88,6499],[88.2,6582],[88.4,6664],[89.1,6749],[90,6833],[90.9,6916],[93.6,6999],[94.1,7081],[94.1,7165],[94.1,7249],[94.1,7333],[94.1,7416],[94.1,7500],[94.1,7583],[94.1,7666],[94.1,7748],[94.1,7831],[94.1,7914],[94.1,7999],[94.1,8084],[94.1,8166],[94.1,8249],[94.1,8333],[94.1,8415],[94.1,8499],[94.1,8583],[94.1,8665],[94.1,8748],[94.1,8831]]",1,0,901.941,903.5427,66.30045573,0.8469,"[{""rating"":66.30045572916666,""responseTime"":0.8469000000003462}]",space,1.0695,,903.5427,Not at all,0,909.7924,50.01302083,4.1764,"[{""rating"":50.013020833333336,""responseTime"":4.176400000000399}]",space,0,8,8,8,1,audio/Narrative7Situation8.wav,audio/Narrative8Situation8.wav,audio/Narrative5Situation8.wav,audio/Narrative6Situation8.wav,2,3,3,5,,,5.6989,,,,,,,,,,,,,,,,,,,,,,,,,,,,,,,,,,,,
,,,,,,663e3c879d11a64e4dbc8912,2024-05-14_12h46.21.321,group3.1-3.2-social-tom,2023.2.2,MacIntel,60.0024001,65c5074098b851296ff0b7ed,6643a351648e62756371155d,,,,,,,,,,,,,,,,,,,,,,,,,,,,,909.7929,2,audio/Narrative5Situation9.wav,912.8088,,912.8089,952.3769,"[[50.1,2166],[49.9,2250],[39.4,2666],[42,2749],[44.2,2834],[47.5,2916],[49.5,2999],[49.9,3083],[50,3166],[50.1,3249],[50.1,3333],[50.1,3414],[50.1,3501],[50.1,3582],[50.1,3666],[50.1,3751],[50.1,3832],[50.1,3915],[50.1,3998],[50.1,4081],[50.1,4165],[50.1,4250],[50.1,4334],[50.1,4416],[50.1,4500],[50.1,4581],[50.1,4667],[50.1,4748],[50.1,4836],[50.1,4915],[50.1,4999],[50.1,5083],[50.1,5166],[50.1,5249],[50.1,5333],[50.1,5417],[50.1,5498],[50.1,5581],[50.2,5666],[50.2,5748],[50.2,5832],[50.2,5916],[50.2,5998],[50.2,6083],[50.3,6166],[51.6,6251],[53.9,6335],[56.7,6419],[58.8,6499],[59.1,6584],[59.1,6665],[59.1,6750],[59.1,6833],[59.1,6915],[59.1,7001],[59.1,7083],[59.1,7166],[59.1,7251],[59.1,7333],[59.1,7416],[59.1,7498],[59.1,7583],[59.1,7667],[59.1,7750],[59.1,7833],[59.1,7916],[59.1,7999],[59.1,8082],[59.1,8168],[59.1,8249],[59.1,8331],[59.1,8414],[59.1,8499],[59.1,8582],[59.1,8667],[59.1,8748],[59.1,8832],[59.1,8917],[59.1,8999],[59.1,9084],[59.1,9167],[59.1,9248],[59.1,9332],[59.1,9416],[59.1,9498],[59.1,9585],[59.1,9666],[59.1,9749],[59.1,9833],[59.1,9916],[59.1,9999],[59.1,10084],[59.1,10168],[59.1,10248],[59.1,10333],[59.1,10417],[59.1,10499],[59.1,10583],[59.1,10664],[59.1,10748],[59.1,10833],[59.1,10915],[59.1,11001],[59.1,11083],[59.1,11166],[59.1,11248],[59.1,11332],[59.1,11417],[59.1,11500],[59.1,11582],[59.1,11665],[59.1,11748],[59.1,11831],[59.1,11915],[59.1,11999],[59.1,12083],[59.1,12168],[59.1,12249],[59.1,12331],[59.1,12417],[59.1,12498],[59.1,12581],[59.1,12667],[59.1,12748],[59.1,12835],[59.1,12916],[59.1,12998],[59.1,13083],[59.1,13166],[59.1,13249],[59.1,13332],[59.1,13414],[59.1,13499],[59.1,13584],[59.1,13666],[59.1,13750],[59.1,13831],[59.9,13915],[61.4,14002],[63.3,14084],[66.5,14165],[69.1,14249],[71.6,14333],[72.3,14416],[72.6,14502],[72.7,14583],[72.7,14666],[72.7,14750],[72.7,14832],[72.7,14916],[72.7,15000],[72.7,15082],[72.7,15166],[72.7,15248],[72.7,15334],[72.7,15415],[72.7,15500],[72.7,15581],[72.7,15665],[72.7,15749],[72.7,15831],[72.7,15916],[72.7,16000],[72.7,16082],[72.7,16168],[72.7,16249],[72.7,16331],[72.7,16417],[72.7,16499],[72.7,16584],[72.7,16666],[72.7,16749],[72.7,16831],[72.7,16918],[72.7,16999],[72.7,17081],[72.7,17166],[72.7,17249],[72.7,17334],[72.7,17417],[72.7,17501],[72.7,17581],[72.7,17665],[72.7,17752],[72.7,17833],[72.7,17916],[72.7,17998],[72.7,18081],[72.7,18165],[72.7,18251],[72.7,18333],[72.7,18417],[72.7,18498],[72.7,18583],[72.7,18664],[72.7,18750],[72.7,18832],[72.7,18914],[72.7,19000],[72.7,19081],[72.7,19168],[72.7,19250],[72.7,19331],[72.7,19414],[72.7,19499],[72.7,19581],[72.7,19668],[72.7,19748],[72.7,19831],[72.7,19917],[72.7,20001],[72.7,20082],[72.7,20164],[72.7,20248],[72.7,20332],[72.7,20417],[72.7,20498],[72.7,20585],[72.7,20666],[72.7,20748],[72.7,20835],[72.7,20916],[72.7,21000],[72.7,21084],[72.7,21166],[72.7,21249],[72.7,21332],[72.7,21415],[72.7,21499],[72.7,21583],[72.7,21665],[72.7,21747],[72.7,21833],[72.7,21916],[72.7,22001],[72.7,22081],[72.7,22166],[72.7,22251],[72.7,22332],[72.7,22414],[72.7,22499],[72.7,22586],[72.7,22665],[72.7,22748],[72.7,22833],[72.7,22915],[72.7,23000],[72.7,23081],[72.7,23167],[72.7,23250],[72.7,23333],[72.7,23415],[73,23498],[74.5,23581],[75.1,23666],[75.1,23749],[75.1,23832],[75.1,23915],[75.1,23998],[75.1,24083],[75.1,24165],[75.1,24248],[75.1,24333],[75.1,24414],[75.1,24499],[75.1,24581],[75.1,24666],[75.1,24748],[75.1,24835],[75.1,24916],[75.1,25000],[75.1,25084],[75.1,25165],[75.1,25249],[75.1,25333],[75.1,25416],[75.1,25501],[75.1,25582],[75.1,25666],[75.1,25749],[75.1,25833],[75.1,25917],[75.1,26000],[75.1,26083],[75.1,26166],[75.1,26251],[75.1,26332],[75.1,26415],[75.1,26499],[75.1,26582],[75.1,26664],[75.1,26749],[75.1,26831],[75.1,26917],[75.1,26999],[75.1,27082],[75.1,27168],[75.1,27249],[75.1,27332],[75.1,27414],[75.1,27499],[75.1,27584],[75.1,27667],[75.1,27748],[75.1,27835],[75.1,27916],[75.1,27999],[75.1,28085],[75.1,28166],[75.1,28248],[75.1,28334],[75.1,28416],[75.1,28499],[75.1,28582],[75.1,28666],[75.1,28747],[75.1,28831],[75.1,28916],[75.1,29002],[75.1,29083],[75.1,29165],[75.1,29249],[75.1,29332],[75.1,29416],[75.1,29499],[75.1,29583],[75.1,29665],[75.1,29752],[75.1,29831],[75.1,29916],[75.1,30001],[75.1,30082],[75.1,30165],[75.1,30249],[75.1,30331],[75.1,30417],[75.1,30500],[75.1,30581],[75.1,30668],[75.1,30749],[75.1,30831],[75.1,30914],[75.1,30999],[75.1,31083],[75.1,31167],[75.1,31249],[75.1,31331],[75.1,31417],[75.1,31499],[75.1,31581],[75.1,31666],[75.1,31750],[75.1,31834],[75.1,31916],[75.1,31998],[75.1,32083],[75.1,32166],[75.1,32247],[75.1,32334],[75.1,32416],[75.1,32499],[75.1,32581],[75.1,32665],[75.1,32751],[75.1,32834],[75.1,32914],[75.1,32997],[75.1,33083],[75.1,33166],[75.1,33249],[75.1,33334],[75.1,33414],[75.1,33501],[75.1,33583],[75.1,33664],[75.1,33749],[75.1,33832],[75.1,33914],[75.1,33999],[75.1,34082],[75.1,34168],[75.1,34248],[75.1,34331],[75.1,34418],[75.1,34500],[75.1,34582],[75.1,34664],[75.1,34749],[75.1,34832],[75.1,34918],[75.1,34999],[75.1,35083],[75.1,35167],[75.1,35249],[75.1,35332],[75.1,35416],[75.1,35498],[75.1,35581],[75.1,35666],[75.1,35749],[75.1,35833],[75.1,35916],[75.1,35999],[75.1,36084],[75.1,36166],[75.1,36247],[75.1,36333],[75.1,36416],[75.1,36498],[75.1,36583],[75.1,36665],[75.1,36748],[75.1,36831],[75.1,36914],[75.1,36999],[75.1,37083],[75.1,37164],[75.1,37251],[75.1,37332],[75.1,37416],[75.1,37499],[75.1,37582],[75.1,37664],[75.1,37750],[75.1,37832],[75.1,37914],[75.1,38000],[75.1,38081],[75.1,38167],[75.1,38249],[75.1,38331],[75.1,38416],[75.1,38498],[75.1,38583],[75.1,38664],[75.1,38749],[75.1,38833],[75.1,38917],[75.1,38999],[75.1,39085],[75.1,39165],[75.1,39248],[75.1,39332],[75.1,39416],[75.1,39498]]",1,0,952.3772,954.6282,69.53559028,1.3924,"[{""rating"":69.53559027777779,""responseTime"":1.3924000000002934}]",space,1.7033,,954.6285,Half the time,50,954.6364,,,[],,0,9,9,9,1,audio/Narrative7Situation9.wav,audio/Narrative8Situation9.wav,audio/Narrative5Situation9.wav,audio/Narrative6Situation9.wav,2,3,3,4,,,,,,,,,,,,,,,,,,,,,,,,,,,,,,,,,,,,,,,
,,,,,,663e3c879d11a64e4dbc8912,2024-05-14_12h46.21.321,group3.1-3.2-social-tom,2023.2.2,MacIntel,60.0024001,65c5074098b851296ff0b7ed,6643a351648e62756371155d,,,,,,,,,,,,,,,,,,,,,,,,,,,,,954.6366,2,audio/Narrative6Situation1.wav,956.6434,,956.6435,983.2246,"[[999,0],[999,81],[999,166],[999,249],[999,330],[999,414],[999,497],[999,581],[999,664],[999,746],[999,830],[999,914],[999,998],[999,1082],[999,1164],[999,1246],[999,1329],[999,1413],[999,1497],[999,1581],[999,1665],[999,1747],[999,1832],[999,1913],[999,1996],[999,2081],[999,2165],[999,2246],[999,2329],[999,2414],[999,2497],[999,2582],[999,2664],[999,2747],[999,2830],[999,2913],[999,2997],[999,3082],[999,3163],[999,3248],[999,3329],[999,3414],[999,3496],[999,3581],[999,3664],[999,3749],[999,3831],[999,3913],[999,3999],[999,4081],[999,4164],[999,4247],[999,4331],[999,4414],[999,4499],[999,4580],[999,4663],[999,4746],[999,4830],[999,4915],[999,4998],[999,5080],[999,5166],[999,5246],[999,5334],[55,5416],[52,5665],[51.5,5747],[51.5,5831],[51.5,5913],[51.5,5999],[51.5,6081],[51.5,6164],[51.5,6249],[52.9,6330],[57.8,6414],[59.4,6501],[61.3,6580],[62.1,6664],[62.2,6748],[62.4,6832],[62.4,6913],[62.4,7000],[62.4,7081],[62.4,7164],[62.4,7247],[62.4,7331],[62.4,7415],[62.4,7499],[62.4,7581],[62.4,7663],[62.4,7749],[62.4,7830],[62.4,7913],[62.4,7997],[62.4,8080],[62.4,8167],[62.4,8248],[62.4,8330],[62.4,8416],[62.4,8498],[62.4,8581],[62.4,8664],[62.4,8746],[62.4,8829],[62.4,8916],[62.4,8996],[62.4,9080],[62.4,9166],[62.4,9246],[62.4,9332],[62.4,9415],[62.4,9498],[62.4,9580],[62.4,9663],[62.4,9747],[62.4,9832],[62.4,9914],[62.4,9996],[62.4,10082],[63.7,10163],[65.6,10247],[66.5,10332],[66.7,10414],[66.9,10498],[66.9,10580],[66.9,10664],[66.9,10747],[66.9,10831],[66.9,10913],[66.9,10997],[66.9,11081],[66.9,11164],[66.9,11250],[66.9,11331],[66.9,11414],[66.9,11499],[66.9,11581],[66.9,11664],[66.9,11748],[66.9,11830],[66.9,11914],[66.9,11998],[66.9,12081],[66.9,12165],[66.9,12248],[66.9,12334],[66.9,12413],[66.9,12496],[66.9,12581],[66.9,12666],[66.9,12746],[66.9,12829],[66.9,12916],[66.9,12998],[66.9,13082],[66.9,13163],[66.9,13246],[66.9,13331],[66.9,13415],[66.9,13500],[66.9,13581],[66.9,13664],[66.9,13746],[66.9,13833],[66.9,13914],[66.9,13996],[66.9,14079],[66.9,14164],[66.9,14247],[66.9,14331],[66.9,14413],[66.9,14499],[66.9,14581],[66.9,14663],[66.9,14747],[66.9,14831],[66.9,14912],[66.9,14996],[66.9,15081],[66.9,15164],[66.9,15249],[66.9,15329],[66.9,15413],[66.9,15499],[66.9,15580],[66.9,15664],[66.9,15748],[66.9,15831],[66.9,15917],[66.9,15996],[66.9,16079],[66.9,16163],[66.9,16247],[66.9,16331],[66.9,16414],[66.9,16497],[66.9,16579],[66.9,16663],[67.3,16746],[74.4,16834],[76.9,16913],[77.5,16996],[77.6,17080],[77.6,17163],[77.6,17248],[77.6,17333],[77.6,17413],[77.6,17498],[77.6,17583],[77.6,17664],[77.6,17749],[77.6,17832],[77.6,17913],[77.6,17997],[77.6,18079],[77.6,18163],[77.6,18246],[77.6,18331],[77.6,18413],[77.6,18497],[77.6,18581],[77.6,18664],[77.6,18747],[77.6,18829],[77.6,18916],[77.6,18999],[77.6,19080],[77.6,19163],[77.6,19249],[77.6,19330],[77.6,19415],[70.9,19498],[62.8,19580],[56,19663],[51.7,19748],[50.1,19830],[49,19913],[48.8,19998],[48.1,20083],[46.3,20164],[46,20247],[46,20329],[46,20414],[46,20499],[46,20579],[46,20664],[46,20748],[46,20833],[46,20914],[46,20996],[46,21080],[46,21164],[46,21247],[46,21333],[46,21414],[46,21496],[46,21582],[46,21663],[46,21746],[46,21832],[46,21913],[46,21996],[46,22080],[46,22162],[46,22249],[46,22331],[46,22415],[46,22496],[46,22581],[46,22662],[46,22746],[47.1,22831],[48.4,22913],[49.3,22999],[50.5,23080],[51.9,23166],[52.8,23249],[53.5,23329],[54,23412],[54.3,23498],[54.4,23583],[54.4,23663],[54.4,23748],[54.4,23829],[54.4,23916],[54.4,23997],[54.4,24082],[55.4,24163],[60.5,24247],[61.9,24329],[62.5,24412],[63,24497],[63.5,24581],[63.8,24665],[63.9,24746],[64,24832],[64,24914],[64,24997],[64,25081],[64,25164],[64,25248],[64,25332],[64,25414],[64,25496],[64,25580],[64,25662],[64,25748],[64,25831],[64,25913],[64,25996],[64,26081],[64,26165],[64,26247],[64,26331],[64,26418],[64,26496],[64,26580]]",1,0,983.2248,984.7242,56.52452257,0.6278,"[{""rating"":56.52452256944444,""responseTime"":0.6278000000007751}]",space,0.9541,,984.7242,All the time,100,984.7339,,,[],,0,10,10,10,1,audio/Narrative8Situation1.wav,audio/Narrative7Situation1.wav,audio/Narrative6Situation1.wav,audio/Narrative5Situation1.wav,5,2,2,5,,,,,,,,,,,,,,,,,,,,,,,,,,,,,,,,,,,,,,,
,,,,,,663e3c879d11a64e4dbc8912,2024-05-14_12h46.21.321,group3.1-3.2-social-tom,2023.2.2,MacIntel,60.0024001,65c5074098b851296ff0b7ed,6643a351648e62756371155d,,,,,,,,,,,,,,,,,,,,,,,,,,,,,984.7341,2,audio/Narrative6Situation2.wav,987.7409,,987.7409,1016.2561,"[[56.3,1083],[55.1,1166],[54.9,1250],[54.9,1335],[54.9,1415],[54.9,1498],[54.9,1583],[54.9,1666],[54.9,1751],[54.9,1832],[54.9,1916],[54.9,1998],[54.9,2083],[54.9,2165],[54.9,2248],[54.9,2333],[54.9,2415],[54.9,2502],[54.9,2583],[54.9,2666],[54.9,2748],[54.9,2833],[54.9,2919],[54.9,2998],[54.9,3083],[54.9,3169],[54.9,3250],[54.9,3331],[54.9,3416],[54.9,3500],[54.9,3584],[54.9,3668],[54.9,3749],[54.9,3831],[54.9,3915],[54.9,3998],[54.9,4084],[54.9,4167],[54.9,4248],[54.9,4331],[54.9,4417],[54.9,4500],[54.9,4581],[54.9,4666],[54.9,4748],[54.9,4831],[54.9,4916],[54.9,5003],[54.9,5083],[53.7,5166],[36.8,5251],[27.2,5335],[21.2,5418],[16.7,5500],[14.1,5584],[14,5666],[14,5752],[14,5833],[14,5918],[14.1,5998],[14.2,6083],[14.2,6166],[14.2,6249],[14.2,6333],[14.3,6416],[14.4,6501],[14.8,6583],[15.1,6666],[15.1,6748],[15.1,6836],[15.1,6917],[15.1,7001],[15.5,7083],[15.5,7166],[15.5,7248],[15.5,7333],[15.5,7418],[15.5,7498],[15.5,7584],[15.5,7668],[15.5,7749],[15.5,7836],[15.5,7916],[15.5,8000],[15.5,8083],[15.5,8166],[15.5,8250],[15.5,8335],[15.5,8417],[15.5,8500],[15.5,8585],[15.5,8666],[15.5,8749],[15.5,8834],[15.5,8916],[15.5,8999],[15.5,9084],[15.5,9165],[15.5,9248],[15.5,9333],[15.5,9419],[15.5,9501],[15.5,9583],[15.5,9666],[15.5,9750],[15.5,9833],[15.5,9915],[15.5,10000],[15.5,10082],[15.5,10168],[15.5,10251],[15.5,10332],[15.5,10417],[15.5,10498],[15.5,10583],[15.5,10665],[15.5,10752],[15.5,10832],[15.5,10916],[15.5,11000],[15.5,11081],[15.5,11168],[15.5,11250],[15.5,11333],[15.5,11417],[15.5,11499],[15.5,11583],[15.5,11667],[15.5,11748],[15.5,11836],[15.5,11917],[15.5,11999],[15.5,12083],[15.5,12166],[15.5,12251],[15.5,12331],[15.5,12415],[15.5,12499],[15.5,12581],[15.5,12666],[15.5,12750],[15.5,12834],[15.5,12916],[15.5,13003],[15.5,13081],[15.5,13165],[15.5,13249],[15.5,13333],[15.5,13417],[15.5,13498],[15.5,13583],[15.5,13666],[15.5,13752],[15.5,13833],[15.5,13916],[15.5,13998],[15.5,14082],[15.5,14165],[15.5,14248],[15.5,14333],[15.5,14418],[15.5,14498],[15.5,14583],[15.5,14666],[15.5,14748],[15.5,14833],[15.5,14917],[15.5,15000],[15.5,15083],[15.5,15165],[15.5,15249],[15.5,15332],[15.5,15416],[15.5,15500],[15.5,15584],[15.5,15667],[15.5,15748],[17,15835],[18.7,15917],[19.1,16002],[19.2,16083],[19.2,16166],[19.2,16251],[19.2,16334],[19.2,16415],[19.2,16499],[19.2,16582],[19.2,16665],[19.2,16749],[19.2,16834],[19.2,16915],[19.2,16999],[19.2,17083],[19.2,17166],[19.2,17248],[19.2,17333],[19.2,17416],[19.2,17501],[19.2,17583],[19.2,17667],[19.2,17749],[19.2,17832],[19.2,17916],[21,18001],[30.4,18082],[42.7,18165],[46.7,18251],[51.2,18332],[58.6,18419],[63,18500],[65.1,18584],[66,18668],[66,18750],[66,18831],[66,18917],[66.6,18999],[67,19081],[67,19167],[67,19248],[67.1,19333],[67.2,19415],[67.2,19499],[67.2,19582],[67.2,19666],[67.2,19749],[67.2,19831],[67.2,19917],[67.2,19999],[67.2,20082],[67.2,20166],[67.2,20249],[67.2,20331],[67.2,20415],[67.2,20499],[67.7,20584],[68.8,20667],[69.9,20752],[72.1,20832],[76.4,20918],[78.3,21000],[78.5,21082],[78.7,21166],[78.8,21252]]",1,0,1016.2562,1022.9425,56.97157118,5.7477,"[{""rating"":66.84841579861111,""responseTime"":3.2135999999995875},{""rating"":50.70366753472222,""responseTime"":5.062900000000354},{""rating"":56.97157118055556,""responseTime"":5.747699999999213}]",space,6.1518,,1022.9427,All the time,100,1022.9486,,,[],,0,11,11,11,1,audio/Narrative8Situation2.wav,audio/Narrative7Situation2.wav,audio/Narrative6Situation2.wav,audio/Narrative5Situation2.wav,3,3,3,3,,,,,,,,,,,,,,,,,,,,,,,,,,,,,,,,,,,,,,,
,,,,,,663e3c879d11a64e4dbc8912,2024-05-14_12h46.21.321,group3.1-3.2-social-tom,2023.2.2,MacIntel,60.0024001,65c5074098b851296ff0b7ed,6643a351648e62756371155d,,,,,,,,,,,,,,,,,,,,,,,,,,,,,1022.9488,2,audio/Narrative6Situation3.wav,1027.9558,,1027.9558,1040.5555,"[[57.7,1337],[60.3,1419],[60.4,1501],[58.8,1587],[58.7,1668],[58.9,1751],[59,1834],[59,1917],[60,2004],[61.1,2086],[61.9,2167],[62.7,2254],[63.4,2334],[63.9,2416],[64.1,2503],[64.2,2584],[64.2,2670],[64.2,2753],[64.2,2835],[64.2,2918],[64.2,3003],[64.2,3084],[64.2,3169],[64.2,3250],[64.2,3333],[64.2,3416],[64.2,3499],[64.2,3584],[64.2,3667],[64.2,3752],[64.2,3834],[64.2,3920],[64.2,4001],[64.2,4084],[64.2,4166],[64.2,4251],[64.4,4333],[66.1,4416],[66.9,4501],[68.2,4588],[68.7,4669],[68.7,4750],[68.7,4837],[68.7,4918],[68.7,4999],[68.7,5086],[68.7,5168],[68.7,5250],[68.7,5336],[68.7,5417],[68.7,5501],[68.7,5585],[68.7,5667],[68.7,5751],[68.7,5835],[68.7,5917],[68.7,6003],[68.7,6085],[68.7,6167],[68.7,6252],[68.7,6334],[68.7,6416],[68.7,6499],[68.7,6584],[68.7,6668],[68.7,6752],[68.7,6834],[68.7,6916],[68.7,7002],[68.7,7083],[68.7,7167],[68.7,7250],[68.7,7334],[68.7,7417],[68.7,7499],[68.7,7584],[68.7,7669],[68.7,7751],[68.7,7837],[68.7,7919],[68.7,8001],[68.7,8083],[68.7,8166],[68.7,8250],[68.7,8334],[68.7,8418],[68.7,8500],[68.7,8587],[68.7,8668],[68.7,8751],[68.7,8835],[68.7,8918],[68.7,9000],[68.7,9083],[68.7,9168],[68.7,9250],[68.7,9336],[68.7,9416],[68.7,9500],[68.7,9584],[68.7,9666],[68.7,9752],[68.7,9835],[68.7,9916],[68.7,10000],[68.7,10085],[68.7,10168],[68.7,10253],[68.7,10333],[68.7,10419],[68.7,10502],[68.7,10584],[68.7,10666],[68.7,10752],[68.7,10833],[68.7,10917],[68.7,11001],[68.8,11083],[68.9,11169],[68.9,11251],[71.2,11334],[75.7,11420],[78,11501],[84.1,11670],[84.2,11751],[84.2,11836],[84.2,11918],[84.2,12000],[84.2,12083],[84.2,12168],[84.2,12253],[84.2,12337],[84.2,12418],[84.2,12499],[84.2,12586]]",1,0,1040.5557,1042.5224,71.88639323,0.9797,"[{""rating"":71.88639322916667,""responseTime"":0.9796999999994114}]",space,1.4173,,1042.5224,Not at all,0,1042.5338,,,[],,0,12,12,12,1,audio/Narrative8Situation3.wav,audio/Narrative7Situation3.wav,audio/Narrative6Situation3.wav,audio/Narrative5Situation3.wav,4,8,5,3,,,,,,,,,,,,,,,,,,,,,,,,,,,,,,,,,,,,,,,
,,,,,,663e3c879d11a64e4dbc8912,2024-05-14_12h46.21.321,group3.1-3.2-social-tom,2023.2.2,MacIntel,60.0024001,65c5074098b851296ff0b7ed,6643a351648e62756371155d,,,,,,,,,,,,,,,,,,,,,,,,,,,,,1042.5339,2,audio/Narrative6Situation4.wav,1044.5402,,1044.5404,1057.1393,"[[62.1,915],[58.2,1000],[58.2,1082],[58.2,1164],[58.2,1248],[58.2,1333],[58.2,1419],[58.2,1500],[58.2,1581],[58.2,1666],[58.2,1749],[58.2,1834],[58.2,1917],[58.2,1998],[58.2,2081],[58.2,2167],[58.2,2251],[58.2,2332],[58.2,2416],[58.2,2501],[58.2,2585],[58.2,2666],[58.2,2749],[58.2,2835],[58.2,2916],[58.2,3001],[58.2,3083],[58.2,3166],[58.2,3251],[58.2,3334],[58.2,3416],[58.2,3502],[58.2,3581],[58.2,3665],[58.2,3749],[58.2,3833],[58.2,3917],[58.2,3998],[58.2,4082],[58.2,4164],[58.2,4250],[58.2,4332],[58.2,4415],[58.2,4500],[58.2,4582],[58.2,4666],[58.2,4749],[58.2,4831],[58.2,4919],[58.2,5000],[58.2,5081],[58.2,5164],[58.2,5249],[58.2,5332],[58.2,5417],[58.2,5499],[58.2,5581],[58.2,5667],[58.2,5748],[58.3,5833],[58.3,5915],[58.4,5998],[58.5,6084],[58.5,6166],[58.5,6249],[58.5,6335],[58.5,6416],[59.1,6500],[60.5,6583],[63.6,6666],[65.7,6748],[67.8,6835],[69,6915],[70.3,6999],[72.8,7084],[74.1,7166],[74.2,7249],[74.2,7331],[74.2,7415],[74.2,7501],[74.2,7583],[74.2,7666],[74.2,7749],[74.2,7833],[74.2,7917],[74.2,8001],[74.2,8081],[74.2,8167],[74.2,8248],[74.2,8332],[74.2,8419],[74.2,8500],[74.2,8584],[74.2,8668],[74.2,8750],[74.2,8831],[74.2,8918],[74.2,8999],[74.2,9083],[74.2,9168],[74.2,9248],[74.2,9333],[74.2,9416],[74.2,9500],[74.2,9584],[74.2,9666],[74.2,9750],[74.2,9833],[74.2,9917],[74.2,9999],[74.2,10081],[74.2,10167],[74.2,10250],[74.2,10335],[74.2,10416],[74.2,10500],[74.2,10583],[74.2,10668],[74.2,10749],[74.2,10833],[74.2,10916],[74.2,11001],[74.2,11083],[74.2,11165],[74.2,11248],[74.2,11333],[74.2,11414],[74.2,11501],[74.2,11582],[74.2,11666],[75.3,11751],[76.3,11832],[76.8,11917],[77.2,12001],[77.8,12082],[78.3,12169],[78.5,12249],[78.5,12333],[78.5,12418],[78.5,12498],[78.5,12586]]",1,0,1057.1395,1058.8387,67.2016059,1.0783,"[{""rating"":67.20160590277777,""responseTime"":1.0782999999989897}]",space,1.1688,,1058.8388,All the time,100,1058.8497,,,[],,0,13,13,13,1,audio/Narrative8Situation4.wav,audio/Narrative7Situation4.wav,audio/Narrative6Situation4.wav,audio/Narrative5Situation4.wav,3,3,2,1,,,,,,,,,,,,,,,,,,,,,,,,,,,,,,,,,,,,,,,
,,,,,,663e3c879d11a64e4dbc8912,2024-05-14_12h46.21.321,group3.1-3.2-social-tom,2023.2.2,MacIntel,60.0024001,65c5074098b851296ff0b7ed,6643a351648e62756371155d,,,,,,,,,,,,,,,,,,,,,,,,,,,,,1058.8499,2,audio/Narrative6Situation5.wav,1060.8561,,1060.8562,1068.8235,"[[66.8,832],[47.4,1166],[46.1,1250],[46.1,1332],[46.1,1415],[46.1,1503],[46.2,1583],[46.2,1665],[46.2,1748],[46.2,1832],[46.2,1919],[46.2,1999],[46.2,2083],[46.2,2168],[46.2,2251],[46.2,2333],[46.2,2418],[46.2,2503],[46.2,2582],[46.2,2668],[46.2,2748],[46.2,2835],[46.2,2918],[46.2,2999],[46.2,3083],[46.2,3167],[46.2,3251],[46.2,3336],[46.2,3417],[46.2,3500],[46.2,3582],[46.2,3666],[46.2,3748],[46.2,3835],[46.2,3916],[46.8,4000],[53.8,4085],[59.7,4167],[62.5,4252],[67.3,4334],[70.8,4417],[74.2,4503],[77.4,4582],[80.6,4668],[83.2,4752],[84.3,4834],[85.2,4918],[86.5,5002],[88.9,5083],[92.5,6583],[92,6668],[91.6,6751],[92.4,6832],[98.1,6917],[100,6999],[100,7083],[100,7167],[100,7248],[100,7335],[100,7418],[100,7499],[100,7583],[100,7666],[100,7751],[100,7832],[100,7916]]",1,0,1068.8237,1071.6386,89.99077691,1.8448,"[{""rating"":83.25412326388889,""responseTime"":0.7464999999999691},{""rating"":89.99077690972221,""responseTime"":1.8447999999989406}]",space,2.2843,,1071.6387,Not at all,0,1071.6494,,,[],,0,14,14,14,1,audio/Narrative8Situation5.wav,audio/Narrative7Situation5.wav,audio/Narrative6Situation5.wav,audio/Narrative5Situation5.wav,2,5,2,5,,,,,,,,,,,,,,,,,,,,,,,,,,,,,,,,,,,,,,,
