exp_question,consent.started,consent.stopped,consentResponse.keys,consentResponse.rt,consentResponse.duration,participantID,date,expName,psychopyVersion,OS,frameRate,STUDY_ID,SESSION_ID,opening1.started,opening1.stopped,keyEndingOpening1.keys,keyEndingOpening1.rt,keyEndingOpening1.duration,volumeAdjust.started,volumeAdjust.stopped,endingAdjust.keys,endingAdjust.rt,endingAdjust.duration,opening2.started,opening2.stopped,keyEndingOpening.keys,keyEndingOpening.rt,keyEndingOpening.duration,mouse.x,mouse.y,mouse.leftButton,mouse.midButton,mouse.rightButton,mouse.time,instructionLoop.thisRepN,instructionLoop.thisTrialN,instructionLoop.thisN,instructionLoop.thisIndex,instructionLoop.ran,readyForAudio.started,readyForAudio.stopped,fixation.started,run,audio_played,fixation.stopped,endPractice.keys,audioPre.started,audioPre.stopped,continuousResponses_audio,continuousSlider.response,continuousSlider.rt,intRating.started,intRating.stopped,intQuestionSlider.response,intQuestionSlider.rt,intQuestionSlider.history,confirmResponse.keys,confirmResponse.rt,confirmResponse.duration,catchQuestion.started,catch_label,catch_value,catchQuestion.stopped,catchQuestionSlider.response,catchQuestionSlider.rt,catchQuestionSlider.history,confirmResponse_2.keys,audioRunLoop.thisRepN,audioRunLoop.thisTrialN,audioRunLoop.thisN,audioRunLoop.thisIndex,audioRunLoop.ran,conditions1_1,conditions2_1,conditions1_2,conditions2_2,dur1_1,dur2_1,dur1_2,dur2_2,endPractice.rt,endPractice.duration,confirmResponse_2.rt,confirmResponse_2.duration,runIntervalBreak.started,runIntervalBreak.stopped,endingBreakKey.keys,endingBreakKey.rt,endingBreakKey.duration,connection.started,connection.stopped,connectionEnding.keys,connectionEnding.rt,connectionEnding.duration,readyForText.started,readyForText.stopped,textPre.started,run_dup,textPre.stopped,continuousResponses_text,textRunLoop.thisRepN,textRunLoop.thisTrialN,textRunLoop.thisN,textRunLoop.thisIndex,textRunLoop.ran,text1_1,text1_2,text2_1,text2_2,runBreakText.started,runBreakText.stopped,endingBreakKey_2.keys,ending.started,ending.stopped,endingEnding.keys,endingEnding.rt,endingEnding.duration
social,0.0004,4.1489,y,3.8349,,663e5e89d602aa442c7b2845,2024-05-13_10h45.24.619,group3.1-3.2-social-tom,2023.2.2,Win32,59.88023952,65c5074098b851296ff0b7ed,66423307085dc23876366c40,,,,,,,,,,,,,,,,,,,,,,,,,,,,,,,,,,,,,,,,,,,,,,,,,,,,,,,,,,,,,,,,,,,,,,,,,,,,,,,,,,,,,,,,,,,,,,,,,,,,,,,,
,,,,,,663e5e89d602aa442c7b2845,2024-05-13_10h45.24.619,group3.1-3.2-social-tom,2023.2.2,Win32,59.88023952,65c5074098b851296ff0b7ed,66423307085dc23876366c40,4.1491,8.4083,space,4.2326,,,,,,,,,,,,,,,,,,,,,,,,,,,,,,,,,,,,,,,,,,,,,,,,,,,,,,,,,,,,,,,,,,,,,,,,,,,,,,,,,,,,,,,,,,,,,,,,,,,,
,,,,,,663e5e89d602aa442c7b2845,2024-05-13_10h45.24.619,group3.1-3.2-social-tom,2023.2.2,Win32,59.88023952,65c5074098b851296ff0b7ed,66423307085dc23876366c40,,,,,,8.4084,20.1518,space,11.4246,,,,,,,,,,,,,,,,,,,,,,,,,,,,,,,,,,,,,,,,,,,,,,,,,,,,,,,,,,,,,,,,,,,,,,,,,,,,,,,,,,,,,,,,,,,,,,,
,,,,,,663e5e89d602aa442c7b2845,2024-05-13_10h45.24.619,group3.1-3.2-social-tom,2023.2.2,Win32,59.88023952,65c5074098b851296ff0b7ed,66423307085dc23876366c40,,,,,,,,,,,20.1602,32.0946,space,11.9015,,[],[],[],[],[],[],0,0,0,0,1,,,,,,,,,,,,,,,,,,,,,,,,,,,,,,,,,,,,,,,,,,,,,,,,,,,,,,,,,,,,,,,,,,,,,,,,,,,,,,
,,,,,,663e5e89d602aa442c7b2845,2024-05-13_10h45.24.619,group3.1-3.2-social-tom,2023.2.2,Win32,59.88023952,65c5074098b851296ff0b7ed,66423307085dc23876366c40,,,,,,,,,,,32.0949,129.4793,space,97.3088,,[],[],[],[],[],[],1,0,1,0,1,,,,,,,,,,,,,,,,,,,,,,,,,,,,,,,,,,,,,,,,,,,,,,,,,,,,,,,,,,,,,,,,,,,,,,,,,,,,,,
,,,,,,663e5e89d602aa442c7b2845,2024-05-13_10h45.24.619,group3.1-3.2-social-tom,2023.2.2,Win32,59.88023952,65c5074098b851296ff0b7ed,66423307085dc23876366c40,,,,,,,,,,,129.5019,171.3221,space,41.7778,,[],[],[],[],[],[],2,0,2,0,1,,,,,,,,,,,,,,,,,,,,,,,,,,,,,,,,,,,,,,,,,,,,,,,,,,,,,,,,,,,,,,,,,,,,,,,,,,,,,,
,,,,,,663e5e89d602aa442c7b2845,2024-05-13_10h45.24.619,group3.1-3.2-social-tom,2023.2.2,Win32,59.88023952,65c5074098b851296ff0b7ed,66423307085dc23876366c40,,,,,,,,,,,171.328,236.8371,space,65.497,,"[-0.7898437529802322,0.9992188215255737,0.9976562261581421,-0.3882812261581421]","[-0.9986112382676866,-0.9986112382676866,-0.9958332909478081,-0.17638895246717665]","[1,0,0,1]","[0,0,0,0]","[0,1,1,0]","[44.978899999976164,48.118099999964244,48.28089999997616,64.50049999999999]",3,0,3,0,1,,,,,,,,,,,,,,,,,,,,,,,,,,,,,,,,,,,,,,,,,,,,,,,,,,,,,,,,,,,,,,,,,,,,,,,,,,,,,,
,,,,,,663e5e89d602aa442c7b2845,2024-05-13_10h45.24.619,group3.1-3.2-social-tom,2023.2.2,Win32,59.88023952,65c5074098b851296ff0b7ed,66423307085dc23876366c40,,,,,,,,,,,236.8428,327.8718,space,91.0063,,[],[],[],[],[],[],4,0,4,0,1,,,,,,,,,,,,,,,,,,,,,,,,,,,,,,,,,,,,,,,,,,,,,,,,,,,,,,,,,,,,,,,,,,,,,,,,,,,,,,
,,,,,,663e5e89d602aa442c7b2845,2024-05-13_10h45.24.619,group3.1-3.2-social-tom,2023.2.2,Win32,59.88023952,65c5074098b851296ff0b7ed,66423307085dc23876366c40,,,,,,,,,,,,,,,,,,,,,,,,,,,327.8905,330.4604,330.4718,1,audio/Narrative13Situation2.wav,332.4818,,332.4819,362.2168,"[[999,0],[999,99],[999,183],[999,266],[999,350],[999,433],[999,517],[999,601],[999,684],[999,768],[999,851],[999,935],[999,1018],[999,1102],[999,1185],[999,1269],[999,1352],[999,1436],[999,1520],[999,1603],[999,1687],[999,1770],[999,1853],[999,1937],[999,2021],[999,2104],[999,2188],[999,2271],[999,2355],[999,2438],[999,2522],[999,2605],[999,2689],[999,2772],[999,2856],[999,2939],[999,3023],[999,3106],[999,3190],[999,3273],[999,3357],[999,3441],[999,3524],[999,3608],[999,3691],[999,3774],[999,3858],[999,3941],[999,4025],[999,4109],[999,4192],[999,4275],[999,4359],[999,4466],[999,4526],[999,4610],[999,4694],[25.1,5111],[23.3,5195],[22.2,5278],[20.2,5361],[19,5445],[18.9,5528],[18.9,5612],[18.1,5696],[18,5779],[18,5863],[17.9,5946],[17.9,6030],[17.9,6113],[19.5,6197],[19.5,6280],[19.5,6364],[20.3,6447],[21.6,6531],[24,6614],[25.5,6698],[26.1,6782],[27,6865],[28.1,6948],[29.3,7032],[30.1,7115],[30.5,7199],[31.4,7282],[31.4,7366],[31.4,7449],[31.4,7533],[31.4,7616],[31.4,7700],[31.4,7783],[31.4,7867],[31.4,7950],[31.4,8034],[31.4,8117],[31.4,8201],[31.4,8285],[31.4,8368],[31.4,8452],[31.4,8535],[31.4,8619],[31.4,8702],[31.4,8786],[31.4,8869],[31.4,8953],[31.4,9036],[31.4,9120],[31.4,9203],[31.4,9287],[31.4,9370],[31.4,9454],[31.4,9537],[31.4,9621],[31.4,9704],[31.4,9788],[31.4,9871],[31.4,9955],[31.4,10039],[31.4,10122],[31.4,10206],[31.4,10289],[31.4,10373],[31.4,10456],[31.4,10540],[31.4,10623],[31.4,10707],[31.4,10790],[31.4,10873],[31.4,10957],[31.4,11041],[31.4,11124],[31.4,11208],[31.4,11291],[31.4,11375],[31.4,11458],[31.4,11542],[31.4,11625],[31.4,11709],[31.4,11792],[31.4,11876],[31.4,11959],[31.4,12043],[31.4,12126],[31.4,12210],[31.4,12293],[31.4,12377],[31.4,12461],[31.4,12544],[31.4,12628],[31.4,12711],[31.4,12795],[31.4,12878],[31.4,12962],[31.4,13045],[31.4,13128],[31.4,13212],[31.4,13296],[31.4,13379],[31.4,13463],[31.4,13546],[31.4,13630],[31.4,13713],[31.4,13797],[31.4,13880],[31.4,13964],[31.4,14048],[31.4,14131],[31.4,14215],[31.4,14298],[31.4,14382],[31.4,14465],[31.4,14548],[31.4,14632],[31.4,14716],[31.4,14799],[31.4,14883],[31.4,14966],[31.4,15050],[31.4,15133],[31.4,15217],[31.4,15300],[31.4,15384],[31.4,15467],[31.4,15551],[31.4,15634],[31.4,15718],[31.4,15801],[31.4,15885],[31.4,15968],[31.4,16052],[31.4,16135],[31.4,16219],[31.4,16302],[31.4,16386],[31.4,16470],[31.4,16553],[31.4,16637],[31.4,16720],[31.4,16804],[31.4,16887],[31.4,16970],[31.4,17054],[31.4,17138],[31.4,17221],[31.4,17305],[31.4,17389],[31.4,17471],[31.4,17555],[31.4,17639],[31.4,17722],[31.4,17806],[31.4,17889],[31.4,17973],[31.4,18056],[31.4,18140],[31.4,18224],[31.4,18307],[31.4,18391],[31.4,18474],[31.4,18558],[31.4,18641],[31.4,18725],[31.4,18808],[31.4,18891],[31.4,18975],[31.4,19059],[31.4,19142],[31.4,19226],[31.4,19309],[31.4,19393],[31.4,19476],[31.4,19560],[31.4,19643],[31.4,19727],[31.4,19810],[31.4,19894],[31.4,19977],[31.4,20061],[31.4,20145],[31.4,20228],[31.4,20311],[31.4,20395],[31.4,20478],[31.4,20562],[31.4,20645],[31.4,20729],[31.4,20813],[31.4,20896],[31.4,20979],[31.4,21063],[31.4,21147],[31.4,21230],[31.4,21314],[31.4,21397],[31.4,21481],[31.4,21565],[31.4,21647],[31.4,21731],[31.4,21815],[31.4,21898],[31.4,21982],[31.4,22065],[31.4,22149],[31.4,22233],[31.4,22316],[31.4,22399],[31.4,22483],[31.4,22567],[31.4,22650],[31.4,22733],[31.4,22817],[31.4,22900],[31.4,22984],[31.4,23067],[31.4,23151],[31.4,23235],[31.4,23318],[31.4,23402],[31.4,23485],[31.4,23569],[31.4,23652],[31.4,23736],[31.4,23819],[31.4,23903],[31.4,23987],[31.4,24070],[31.4,24153],[31.4,24237],[31.4,24320],[31.4,24404],[31.4,24487],[31.4,24571],[31.4,24654],[31.4,24738],[31.4,24822],[31.4,24905],[31.4,24989],[31.4,25072],[31.4,25156],[31.4,25239],[31.4,25323],[31.4,25406],[31.4,25490],[31.4,25573],[31.4,25656],[31.4,25740],[31.4,25824],[31.4,25907],[31.4,25991],[31.4,26074],[31.4,26158],[31.4,26241],[31.4,26325],[31.4,26408],[31.4,26492],[31.4,26575],[31.4,26659],[31.4,26743],[31.4,26826],[31.4,26910],[26.9,27411],[26.8,27495],[29.7,27745],[29.7,27828],[33.3,27912],[39.8,27995],[42.3,28079],[43.2,28162],[43.2,28246],[43.2,28329],[43.2,28413],[43.1,28496],[43.1,28580],[43.1,28663],[43.1,28747],[43.1,28830],[43.1,28914],[43.1,28998],[40,29082],[37.5,29165],[37.5,29248],[37.4,29332],[37,29415],[37,29498],[37.3,29583],[40.4,29665]]",1,0,362.2174,435.2299,45.23437619,6.6101,"[{""rating"":40.546876192092896,""responseTime"":0.21989999997617815},{""rating"":45.234376192092896,""responseTime"":6.610100000023863}]",space,72.4629,,435.25,Partially,50,435.2543,,,[],,0,0,0,0,1,audio/Narrative13Situation2.wav,audio/Narrative13Situation2.wav,audio/Narrative13Situation2.wav,audio/Narrative13Situation2.wav,2,2,2,2,,,,,,,,,,,,,,,,,,,,,,,,,,,,,,,,,,,,,
,,,,,,663e5e89d602aa442c7b2845,2024-05-13_10h45.24.619,group3.1-3.2-social-tom,2023.2.2,Win32,59.88023952,65c5074098b851296ff0b7ed,66423307085dc23876366c40,,,,,,,,,,,,,,,,,,,,,,,,,,,,,435.2545,1,audio/Narrative8Situation1.wav,437.4832,space,437.4833,453.4229,"[[80,11358],[80.2,11441],[7.2,12199],[57.2,13033],[57.7,13112],[59.2,13200],[60.2,13283],[62.4,13363],[63,13450],[64.4,13534],[65.5,13613],[66.9,13701],[66.9,13780],[67,13863],[69.8,13951],[71.2,14035],[71.2,14118],[71.2,14197],[71.2,14286],[71.3,14369],[71.6,14448],[71.6,14536],[71.6,14616],[71.7,14703],[71.7,14782],[72.2,14870],[72.4,14953],[72.3,15037],[72.3,15116],[72.3,15205],[72.2,15288],[72.2,15371],[72.2,15451],[72.2,15534],[72.2,15617],[72.7,15705],[73.2,15789],[73.3,15868]]",1,0,453.4231,456.1621,74.14063215,0.1827,"[{""rating"":74.14063215255737,""responseTime"":0.18270000004764597}]",space,2.1983,,456.1621,Partially,50,456.163,,,[],,0,1,1,1,1,audio/Narrative7Situation1.wav,audio/Narrative8Situation1.wav,audio/Narrative5Situation1.wav,audio/Narrative6Situation1.wav,2,5,5,2,2.199,,,,,,,,,,,,,,,,,,,,,,,,,,,,,,,,,,,,
,,,,,,663e5e89d602aa442c7b2845,2024-05-13_10h45.24.619,group3.1-3.2-social-tom,2023.2.2,Win32,59.88023952,65c5074098b851296ff0b7ed,66423307085dc23876366c40,,,,,,,,,,,,,,,,,,,,,,,,,,,,,456.1631,1,audio/Narrative8Situation2.wav,459.1687,,459.1687,469.2915,"[[999,5],[999,79],[999,162],[999,246],[999,329],[999,413],[999,496],[999,584],[999,668],[999,747],[999,830],[999,914],[999,997],[999,1085],[999,1168],[999,1248],[999,1332],[999,1415],[999,1499],[999,1582],[999,1666],[999,1750],[999,1833],[999,1920],[999,2000],[999,2083],[999,2167],[999,2250],[999,2334],[999,2417],[999,2501],[999,2584],[999,2668],[999,2751],[999,2838],[999,2919],[999,3002],[999,3085],[999,3173],[999,3252],[999,3336],[999,3420],[999,3503],[999,3591],[999,3674],[999,3753],[999,3837],[999,3921],[999,4004],[999,4088],[999,4171],[999,4255],[999,4339],[999,4422],[999,4505],[999,4589],[999,4673],[999,4756],[999,4844],[999,4923],[999,5007],[999,5090],[999,5173],[999,5261],[999,5344],[999,5428],[999,5507],[999,5591],[999,5675],[999,5758],[999,5842],[999,5925],[999,6009],[999,6093],[999,6176],[999,6259],[999,6343],[999,6426],[999,6510],[999,6598],[999,6677],[999,6760],[999,6844],[999,6930],[999,7015],[999,7094],[999,7178],[999,7261],[999,7349],[999,7429],[999,7512],[999,7595],[999,7679],[999,7763],[999,7846],[999,7930],[999,8013],[999,8097],[999,8185],[999,8264],[999,8347],[999,8431],[999,8514],[999,8602],[999,8681],[999,8765],[999,8848],[999,8932],[999,9019],[999,9103],[999,9182],[999,9266],[999,9350],[999,9437],[999,9520],[999,9600],[999,9683],[999,9767],[999,9855],[999,9938],[999,10018],[999,10101]]",1,0,469.2916,474.6871,6.562501192,3.1515,"[{""rating"":6.5625011920928955,""responseTime"":3.1514999999999986}]",space,4.8566,,474.6871,Not at all,0,474.6904,,,[],,0,2,2,2,1,audio/Narrative7Situation2.wav,audio/Narrative8Situation2.wav,audio/Narrative5Situation2.wav,audio/Narrative6Situation2.wav,3,3,3,3,,,,,,,,,,,,,,,,,,,,,,,,,,,,,,,,,,,,,
,,,,,,663e5e89d602aa442c7b2845,2024-05-13_10h45.24.619,group3.1-3.2-social-tom,2023.2.2,Win32,59.88023952,65c5074098b851296ff0b7ed,66423307085dc23876366c40,,,,,,,,,,,,,,,,,,,,,,,,,,,,,474.6907,1,audio/Narrative8Situation3.wav,478.6917,,478.6918,501.0584,"[[999,20],[999,83],[999,171],[999,250],[999,333],[999,417],[999,500],[999,584],[999,667],[999,751],[999,835],[999,918],[999,1003],[999,1085],[999,1169],[999,1252],[999,1336],[999,1419],[999,1503],[999,1591],[999,1670],[999,1753],[999,1837],[999,1920],[999,2003],[999,2087],[999,2171],[999,2254],[999,2338],[999,2421],[999,2510],[999,2593],[999,2672],[999,2755],[999,2839],[999,2922],[999,3006],[999,3090],[999,3173],[999,3257],[999,3340],[999,3423],[999,3507],[999,3591],[999,3674],[999,3758],[999,3841],[999,3925],[999,4009],[999,4092],[999,4175],[999,4259],[999,4342],[999,4426],[999,4509],[999,4597],[999,4676],[999,4760],[999,4843],[999,4927],[999,5014],[999,5094],[999,5177],[999,5261],[999,5344],[999,5432],[999,5511],[999,5595],[999,5678],[999,5762],[999,5850],[999,5929],[999,6013],[999,6096],[999,6180],[999,6263],[999,6347],[999,6430],[999,6518],[999,6597],[999,6685],[999,6764],[999,6848],[999,6931],[999,7015],[999,7098],[999,7182],[999,7266],[999,7349],[999,7433],[999,7520],[999,7600],[999,7683],[999,7766],[999,7850],[999,7933],[999,8017],[999,8100],[999,8184],[999,8268],[999,8355],[999,8435],[999,8518],[999,8602],[999,8686],[999,8769],[999,8852],[999,8936],[999,9024],[999,9103],[999,9186],[999,9270],[999,9353],[999,9437],[999,9521],[999,9608],[999,9688],[999,9771],[999,9855],[999,9938],[999,10021],[999,10105],[999,10188],[999,10272],[999,10355],[999,10444],[999,10523],[999,10611],[999,10689],[999,10773],[999,10857],[999,10940],[999,11024],[999,11107],[999,11191],[999,11279],[999,11358],[999,11441],[999,11525],[999,11608],[999,11696],[999,11775],[999,11859],[999,11943],[999,12026],[999,12109],[999,12193],[999,12276],[999,12360],[999,12444],[999,12531],[999,12610],[999,12694],[999,12781],[999,12861],[999,12949],[999,13029],[999,13112],[999,13199],[999,13279],[999,13366],[999,13450],[999,13529],[999,13613],[999,13697],[999,13784],[999,13868],[999,13947],[999,14035],[999,14118],[999,14202],[999,14285],[95.3,14369],[93.4,14449],[93.2,14531],[93.2,14615],[94.8,14703],[95.4,14787],[95.4,14870],[95.4,14949],[95.4,15037],[95.4,15117],[95.4,15204],[95.1,15283],[95.1,15367],[95.1,15451],[95.1,15534],[95.1,15618],[91.9,15705],[91.9,15784],[91.9,15868],[93.6,15954],[99.1,16040],[99.1,16124],[99.1,16202],[99,16290],[98.4,16369],[98.3,16458],[97.5,16541],[97.4,16619],[95,16709],[94.8,16787],[94.7,16870],[94.7,16958],[94.7,17037],[94.7,17121],[94.7,17204],[94.7,17288],[94.7,17371],[94.7,17455],[94.7,17539],[94.7,17622],[94.7,17705],[94.7,17792],[94.7,17872],[94.7,17956],[94.7,18039],[94.7,18123],[94.7,18209],[94.7,18290],[94.7,18378],[94.7,18457],[94.7,18541],[94.7,18624],[94.7,18707],[94.7,18791],[94.7,18875],[94.7,18958],[94.7,19042],[94.7,19125],[94.7,19213],[94.7,19292],[94.7,19376],[94.7,19459],[94.7,19543],[94.7,19626],[94.7,19710],[94.7,19793],[94.7,19877],[94.7,19960],[94.7,20044],[94.7,20127],[94.7,20211],[94.7,20298],[94.7,20378],[94.7,20466],[94.7,20549],[94.7,20629],[94.7,20712],[94.7,20795],[94.7,20879],[94.7,20963],[94.7,21046],[94.7,21130],[94.7,21213],[94.7,21297],[94.7,21380],[94.7,21464],[94.7,21547],[94.7,21635],[94.7,21715],[94.7,21798],[94.7,21881],[94.7,21965],[94.7,22049],[94.7,22132],[94.7,22215],[94.7,22299]]",1,0,501.0586,506.0233,92.81250238,3.2068,"[{""rating"":92.81250238418579,""responseTime"":3.206800000011924}]",space,4.4443,,506.0233,Definitely yes,100,506.0252,,,[],,0,3,3,3,1,audio/Narrative7Situation3.wav,audio/Narrative8Situation3.wav,audio/Narrative5Situation3.wav,audio/Narrative6Situation3.wav,8,4,3,5,,,,,,,,,,,,,,,,,,,,,,,,,,,,,,,,,,,,,
,,,,,,663e5e89d602aa442c7b2845,2024-05-13_10h45.24.619,group3.1-3.2-social-tom,2023.2.2,Win32,59.88023952,65c5074098b851296ff0b7ed,66423307085dc23876366c40,,,,,,,,,,,,,,,,,,,,,,,,,,,,,506.0252,1,audio/Narrative8Situation4.wav,509.0305,,509.0305,523.2121,"[[999,0],[999,83],[999,166],[999,246],[999,329],[999,412],[999,496],[999,580],[999,663],[999,747],[999,830],[999,918],[999,997],[999,1081],[999,1164],[999,1247],[999,1336],[999,1415],[999,1502],[999,1582],[999,1665],[999,1753],[999,1837],[999,1916],[999,2000],[999,2083],[999,2166],[999,2250],[999,2333],[999,2417],[999,2501],[999,2584],[999,2667],[999,2751],[999,2834],[999,2918],[999,3002],[999,3085],[999,3169],[999,3252],[999,3336],[999,3419],[999,3503],[999,3586],[999,3671],[999,3753],[999,3837],[999,3921],[999,4004],[999,4088],[999,4171],[999,4259],[999,4338],[999,4426],[999,4505],[999,4589],[999,4677],[999,4755],[999,4839],[999,4922],[999,5010],[999,5090],[999,5173],[999,5261],[999,5340],[999,5424],[999,5511],[999,5591],[999,5674],[999,5758],[999,5841],[999,5925],[999,6008],[999,6092],[999,6175],[999,6259],[999,6342],[999,6426],[999,6510],[999,6593],[999,6676],[999,6760],[999,6843],[999,6927],[999,7010],[999,7094],[999,7178],[999,7261],[999,7345],[999,7428],[999,7512],[999,7595],[999,7679],[999,7766],[999,7846],[999,7929],[999,8017],[999,8097],[999,8180],[999,8263],[999,8347],[999,8435],[999,8514],[999,8597],[999,8681],[999,8764],[999,8852],[999,8931],[999,9015],[999,9098],[999,9182],[999,9270],[999,9349],[999,9433],[999,9516],[999,9600],[999,9683],[999,9767],[999,9850],[999,9934],[999,10017],[999,10101],[999,10185],[999,10268],[999,10351],[999,10435],[999,10523],[999,10602],[999,10685],[999,10769],[999,10852],[999,10940],[999,11019],[999,11107],[999,11186],[999,11270],[999,11358],[999,11437],[999,11521],[999,11604],[999,11692],[999,11771],[999,11860],[999,11943],[39,12028],[45.5,12110],[91.8,12695],[92.4,12778],[92.7,12857],[96,12945],[97.7,13029],[97.7,13107],[97.7,13191],[97.7,13274],[97.7,13359],[97.7,13446],[97.7,13525],[97.7,13609],[97.7,13692],[97.7,13780],[97.7,13863],[97.7,13943],[97.7,14030],[97.7,14114]]",1,0,523.2122,525.7676,97.89062738,0.6834,"[{""rating"":97.89062738418579,""responseTime"":0.6833999999761318}]",space,2.0225,,525.7677,Not at all,0,525.7693,,,[],,0,4,4,4,1,audio/Narrative7Situation4.wav,audio/Narrative8Situation4.wav,audio/Narrative5Situation4.wav,audio/Narrative6Situation4.wav,3,3,1,2,,,,,,,,,,,,,,,,,,,,,,,,,,,,,,,,,,,,,
,,,,,,663e5e89d602aa442c7b2845,2024-05-13_10h45.24.619,group3.1-3.2-social-tom,2023.2.2,Win32,59.88023952,65c5074098b851296ff0b7ed,66423307085dc23876366c40,,,,,,,,,,,,,,,,,,,,,,,,,,,,,525.7694,1,audio/Narrative8Situation5.wav,527.7724,,527.7726,536.0075,"[[999,0],[999,78],[999,162],[999,250],[999,329],[999,413],[999,496],[999,579],[999,663],[999,746],[999,834],[999,913],[999,997],[999,1081],[999,1164],[999,1247],[999,1331],[999,1414],[999,1498],[999,1582],[999,1665],[999,1749],[999,1832],[999,1916],[999,2000],[999,2087],[999,2167],[999,2250],[999,2336],[999,2417],[999,2504],[999,2584],[999,2668],[999,2751],[999,2835],[999,2922],[999,3001],[999,3085],[999,3168],[999,3252],[999,3340],[999,3419],[999,3503],[999,3586],[999,3669],[999,3753],[999,3836],[999,3920],[999,4004],[999,4087],[999,4171],[999,4254],[999,4338],[999,4421],[999,4509],[999,4593],[999,4676],[999,4756],[999,4839],[999,4927],[999,5010],[999,5094],[999,5178],[999,5261],[86.3,5344],[88.6,5428],[90.2,5513],[94.1,5595],[94.3,5674],[94.3,5762],[96.4,5846],[97.7,5929],[98.4,6013],[98.8,6096],[99.5,6175],[99.5,6259],[99.5,6342],[99.5,6426],[99.5,6509],[99.5,6593],[99.5,6676],[99.5,6760],[99.5,6844],[99.5,6927],[99.5,7011],[99.5,7094],[99.5,7182],[99.5,7261],[99.3,7349],[99.1,7432],[99.1,7511],[99.1,7595],[98.7,7678],[97,7766],[97,7846],[96.7,7930],[96.3,8017],[96.3,8096],[96.3,8179]]",1,0,536.0077,537.7598,97.10937738,0.6774,"[{""rating"":97.10937738418579,""responseTime"":0.6774000000357319}]",space,1.2139,,537.7599,Not at all,0,537.7608,,,[],,0,5,5,5,1,audio/Narrative7Situation5.wav,audio/Narrative8Situation5.wav,audio/Narrative5Situation5.wav,audio/Narrative6Situation5.wav,5,2,5,2,,,,,,,,,,,,,,,,,,,,,,,,,,,,,,,,,,,,,
,,,,,,663e5e89d602aa442c7b2845,2024-05-13_10h45.24.619,group3.1-3.2-social-tom,2023.2.2,Win32,59.88023952,65c5074098b851296ff0b7ed,66423307085dc23876366c40,,,,,,,,,,,,,,,,,,,,,,,,,,,,,537.7609,1,audio/Narrative8Situation6.wav,539.7614,,539.7615,546.2258,"[[999,0],[999,83],[999,166],[999,250],[999,333],[999,417],[999,500],[999,584],[999,667],[999,751],[999,834],[999,918],[999,1002],[999,1085],[999,1169],[999,1252],[999,1336],[999,1419],[999,1502],[999,1586],[999,1669],[999,1753],[999,1837],[999,1920],[999,2004],[999,2087],[999,2171],[999,2254],[999,2338],[999,2421],[999,2505],[999,2588],[999,2672],[999,2755],[999,2839],[999,2922],[999,3006],[999,3090],[999,3173],[999,3256],[999,3340],[999,3424],[999,3507],[999,3591],[999,3674],[999,3758],[999,3841],[999,3924],[999,4008],[999,4096],[999,4175],[999,4259],[999,4342],[999,4426],[999,4514],[999,4593],[999,4676],[999,4760],[999,4843],[999,4927],[999,5011],[999,5094],[999,5177],[999,5261],[999,5344],[999,5428],[999,5511],[999,5595],[999,5678],[999,5762],[999,5845],[999,5929],[999,6013],[999,6096],[999,6184],[999,6263],[999,6351],[999,6430]]",1,0,546.226,548.9822,96.09375,1.9163,"[{""rating"":94.45313215255737,""responseTime"":1.3065999999641917},{""rating"":96.09375,""responseTime"":1.9163000000119155}]",space,2.2247,,548.9823,Not at all,0,548.9863,,,[],,0,6,6,6,1,audio/Narrative7Situation6.wav,audio/Narrative8Situation6.wav,audio/Narrative5Situation6.wav,audio/Narrative6Situation6.wav,3,2,3,2,,,,,,,,,,,,,,,,,,,,,,,,,,,,,,,,,,,,,
,,,,,,663e5e89d602aa442c7b2845,2024-05-13_10h45.24.619,group3.1-3.2-social-tom,2023.2.2,Win32,59.88023952,65c5074098b851296ff0b7ed,66423307085dc23876366c40,,,,,,,,,,,,,,,,,,,,,,,,,,,,,548.9868,1,audio/Narrative8Situation7.wav,551.9884,,551.9884,564.0692,"[[999,5],[999,83],[999,167],[999,254],[999,334],[999,417],[999,501],[999,584],[999,671],[999,751],[999,835],[999,922],[999,1002],[999,1085],[999,1173],[999,1252],[999,1336],[999,1420],[999,1503],[999,1586],[999,1670],[999,1753],[999,1837],[999,1921],[999,2004],[999,2088],[999,2171],[999,2255],[999,2338],[999,2422],[999,2505],[999,2593],[999,2672],[999,2756],[999,2844],[999,2923],[999,3006],[999,3095],[999,3173],[999,3257],[999,3340],[999,3424],[999,3508],[999,3591],[999,3679],[999,3758],[999,3841],[999,3925],[999,4008],[999,4092],[999,4176],[999,4259],[999,4343],[999,4426],[999,4514],[999,4593],[999,4677],[999,4760],[999,4844],[999,4928],[999,5011],[999,5095],[999,5178],[999,5261],[999,5349],[999,5428],[999,5512],[999,5595],[999,5679],[999,5763],[999,5846],[999,5930],[999,6013],[999,6096],[73,6180],[46.9,6268],[35.9,6352],[0.9,6853],[2.7,6938],[4.2,7020],[4.2,7103],[4.2,7187],[4.2,7266],[4.7,7354],[5.2,7437],[5.2,7517],[5.2,7600],[5.7,7688],[5.9,7771],[5.9,7850],[6.1,7934],[6.1,8020],[6.1,8101],[6.1,8185],[6.6,8268],[6.6,8355],[6.6,8436],[7.2,8523],[7.3,8606],[7.3,8685],[7.4,8769],[8,8853],[8.4,8936],[8.4,9020],[8.4,9107],[8.4,9187],[8.4,9270],[8.4,9354],[8.4,9441],[8.4,9521],[8,9609],[7.9,9688],[7.9,9771],[7.9,9855],[7.9,9942],[7.8,10022],[7.8,10105],[7.8,10189],[7.8,10277],[7.8,10356],[7.8,10439],[7.7,10527],[7.7,10606],[7.7,10690],[7.7,10774],[7.7,10857],[7.7,10941],[7.7,11024],[7.8,11112],[7.9,11191],[8,11279],[8.3,11363],[8.3,11442],[8.3,11525],[8.3,11609],[8.3,11692],[8.3,11776],[7.7,11859],[7.7,11943],[7.5,12031]]",1,0,564.0692,567.9406,28.67187858,2.2719,"[{""rating"":5.859375,""responseTime"":1.0058999999761227},{""rating"":28.671878576278687,""responseTime"":2.271899999976199}]",space,3.3344,,567.9406,Definitely yes,100,567.9421,,,[],,0,7,7,7,1,audio/Narrative7Situation7.wav,audio/Narrative8Situation7.wav,audio/Narrative5Situation7.wav,audio/Narrative6Situation7.wav,5,3,4,5,,,,,,,,,,,,,,,,,,,,,,,,,,,,,,,,,,,,,
,,,,,,663e5e89d602aa442c7b2845,2024-05-13_10h45.24.619,group3.1-3.2-social-tom,2023.2.2,Win32,59.88023952,65c5074098b851296ff0b7ed,66423307085dc23876366c40,,,,,,,,,,,,,,,,,,,,,,,,,,,,,567.9423,1,audio/Narrative8Situation8.wav,570.9477,,570.9478,583.7972,"[[53.6,4848],[82.9,5345],[82,5432],[82,5511],[85.6,5595],[86.1,5678],[86.8,5766],[88.1,5850],[88.2,5933],[91.2,6018],[92.4,6096],[92.7,6180],[92.7,6263],[92.7,6346],[92.7,6435],[92.7,6514],[92.7,6597],[92.7,6681],[92.7,6764],[92.3,6853],[84.9,6936],[79.8,7019],[69.5,7103],[64.8,7186],[58.3,7270],[54.1,7353],[45.3,7433],[44,7520],[43.3,7599],[40.9,7687],[40.1,7766],[38.1,7855],[32.1,7939],[32,8017],[26.8,8101],[19.5,8188],[15,8272],[13.9,8352],[9.8,8439],[7.9,8523],[7.7,8606],[7,8685],[5.8,8769],[5.8,8852],[5.8,8936],[6.8,9024],[10,9108],[16,9187],[22,9274],[28.9,9358],[34.5,9441],[36.6,9525],[40.6,9608],[40.6,9692],[42.2,9775],[42.8,9855],[43,9938],[43.3,10021],[43.4,10105],[43.4,10188],[43.4,10272],[43.4,10355],[43.4,10439],[43.4,10523],[43.4,10610],[43.4,10690],[43.4,10777],[43.4,10860],[43.4,10940],[43.4,11024],[43.4,11107],[43.4,11191],[43.4,11274],[43.4,11358],[43.4,11446],[43.4,11525],[43.4,11609],[43.4,11692],[43.4,11775],[43.4,11859],[43.4,11943],[43.4,12026],[43.4,12110],[43.3,12199],[42.6,12281],[29.6,12365],[29.1,12443],[28,12530],[23.1,12615],[19.5,12698],[15.9,12782]]",1,0,583.7973,586.5155,6.562501192,0.712,"[{""rating"":6.5625011920928955,""responseTime"":0.7120000000001028}]",space,2.1592,,586.5156,Definitely yes,100,597.528,99.92188215,6.5957,"[{""rating"":99.14063215255737,""responseTime"":5.206700000047704},{""rating"":99.92188215255737,""responseTime"":6.595700000047714}]",space,0,8,8,8,1,audio/Narrative7Situation8.wav,audio/Narrative8Situation8.wav,audio/Narrative5Situation8.wav,audio/Narrative6Situation8.wav,2,3,3,5,,,10.4894,,,,,,,,,,,,,,,,,,,,,,,,,,,,,,,,,,
,,,,,,663e5e89d602aa442c7b2845,2024-05-13_10h45.24.619,group3.1-3.2-social-tom,2023.2.2,Win32,59.88023952,65c5074098b851296ff0b7ed,66423307085dc23876366c40,,,,,,,,,,,,,,,,,,,,,,,,,,,,,597.5374,1,audio/Narrative8Situation9.wav,600.5469,,600.5469,611.8598,[],1,0,611.8598,618.2403,11.95312738,2.4863,"[{""rating"":5.3906261920928955,""responseTime"":1.923899999976129},{""rating"":11.953127384185791,""responseTime"":2.48629999995228}]",space,5.8473,,618.2403,Not at all,0,618.2471,,,[],,0,9,9,9,1,audio/Narrative7Situation9.wav,audio/Narrative8Situation9.wav,audio/Narrative5Situation9.wav,audio/Narrative6Situation9.wav,2,3,3,4,,,,,,,,,,,,,,,,,,,,,,,,,,,,,,,,,,,,,
,,,,,,663e5e89d602aa442c7b2845,2024-05-13_10h45.24.619,group3.1-3.2-social-tom,2023.2.2,Win32,59.88023952,65c5074098b851296ff0b7ed,66423307085dc23876366c40,,,,,,,,,,,,,,,,,,,,,,,,,,,,,618.2472,1,audio/Narrative7Situation1.wav,620.2578,,620.2579,676.1322,"[[20.3,5845],[20.3,5933],[20.3,6013],[20.3,6096],[20.3,6180],[20.3,6263],[20.3,6346],[20.3,6430],[20.3,6517],[20.3,6597],[20.3,6681],[20.3,6764],[20.3,6848],[20.3,6931],[20.3,7015],[20.3,7098],[20.3,7182],[20.3,7265],[20.3,7349],[20.3,7432],[20.3,7520],[20.3,7599],[20.3,7683],[20.3,7771],[20.3,7850],[20.3,7934],[20.3,8017],[20.3,8100],[20.3,8184],[20.3,8268],[20.3,8351],[20.3,8439],[20.3,8518],[20.3,8601],[20.3,8688],[20.3,8769],[20.3,8852],[20.3,8936],[20.3,9023],[20.3,9103],[20.3,9186],[20.3,9274],[20.3,9353],[20.3,9437],[20.3,9520],[20.3,9604],[20.3,9687],[20.3,9771],[20.3,9858],[20.3,9938],[20.3,10026],[20.3,10109],[20.3,10189],[20.3,10272],[20.3,10356],[20.3,10439],[20.3,10523],[20.3,10606],[20.3,10694],[20.3,10773],[20.3,10857],[20.3,10945],[20.3,11024],[20.3,11112],[20.3,11191],[20.3,11279],[20.3,11358],[20.3,11441],[20.3,11530],[20.3,11608],[20.3,11692],[20.3,11780],[20.3,11859],[20.3,11943],[20.3,12026],[20.3,12110],[20.3,12193],[20.3,12277],[20.3,12364],[20.3,12444],[20.3,12527],[20.3,12615],[20.3,12694],[20.3,12778],[20.3,12865],[20.3,12945],[20.3,13032],[20.3,13112],[20.3,13199],[20.3,13279],[20.3,13362],[20.3,13446],[20.3,13530],[20.3,13613],[20.3,13697],[20.3,13780],[20.3,13864],[20.3,13947],[20.3,14031],[20.3,14118],[20.3,14197],[20.3,14285],[20.3,14364],[20.3,14448],[20.3,14535],[20.3,14615],[20.3,14699],[20.3,14782],[20.3,14870],[20.3,14949],[20.3,15033],[20.3,15120],[20.3,15200],[20.3,15283],[20.3,15367],[20.3,15450],[20.3,15534],[20.3,15617],[20.3,15705],[20.3,15784],[20.3,15872],[20.3,15951],[20.3,16035],[20.3,16125],[20.3,16205],[20.3,16285],[20.3,16369],[20.3,16452],[20.3,16540],[20.3,16619],[20.3,16703],[20.3,16791],[20.3,16870],[20.3,16954],[20.3,17040],[20.3,17124],[20.3,17204],[20.3,17288],[20.3,17375],[20.3,17455],[20.3,17539],[20.3,17626],[20.3,17705],[20.3,17789],[20.3,17872],[20.3,17956],[20.3,18040],[20.3,18123],[20.3,18211],[20.3,18290],[20.3,18373],[20.3,18461],[20.3,18540],[20.3,18624],[20.3,18711],[20.3,18791],[20.3,18875],[20.3,18958],[20.3,19047],[20.3,19125],[20.3,19209],[20.3,19296],[20.3,19376],[20.3,19459],[20.3,19543],[20.3,19626],[20.3,19710],[20.3,19793],[20.3,19880],[20.3,19960],[20.3,20048],[20.3,20133],[20.3,20211],[20.3,20294],[20.3,20382],[20.3,20466],[20.3,20545],[20.3,20628],[20.3,20716],[20.3,20796],[20.3,20879],[20.3,20967],[20.3,21046],[20.3,21130],[20.3,21216],[20.3,21297],[20.3,21380],[20.3,21464],[20.3,21553],[20.3,21631],[20.3,21714],[20.3,21798],[20.3,21881],[20.3,21965],[20.3,22048],[20.3,22132],[20.3,22215],[20.3,22299],[20.3,22382],[20.3,22466],[20.3,22554],[20.3,22637],[20.3,22716],[20.3,22800],[20.3,22888],[20.3,22967],[20.3,23051],[20.3,23134],[20.3,23218],[20.3,23301],[20.3,23385],[20.3,23473],[20.3,23556],[20.3,23635],[20.3,23719],[20.3,23802],[20.3,23886],[20.3,23969],[20.3,24057],[20.3,24136],[20.3,24220],[20.3,24308],[20.3,24387],[20.3,24470],[20.3,24554],[20.3,24638],[20.3,24721],[20.3,24805],[20.3,24888],[20.3,24972],[20.3,25055],[20.3,25143],[20.3,25222],[20.3,25306],[20.3,25392],[20.3,25473],[20.3,25556],[20.3,25640],[20.3,25728],[20.3,25807],[20.3,25890],[20.3,25974],[20.3,26057],[20.3,26141],[20.3,26224],[20.3,26308],[20.3,26391],[20.3,26475],[20.3,26559],[20.3,26642],[20.3,26726],[20.3,26813],[20.3,26892],[20.3,26976],[20.3,27059],[20.3,27143],[20.3,27226],[20.3,27310],[20.3,27398],[20.3,27477],[20.3,27561],[20.3,27644],[20.3,27728],[20.3,27811],[20.3,27895],[20.3,27979],[20.3,28062],[20.3,28145],[20.3,28233],[20.3,28312],[20.3,28396],[20.3,28484],[20.3,28563],[20.3,28646],[20.3,28733],[20.3,28813],[20.3,28897],[20.3,28981],[20.3,29064],[20.3,29148],[20.3,29231],[20.3,29315],[20.3,29398],[20.3,29486],[20.3,29565],[20.3,29649],[20.3,29732],[20.3,29816],[20.3,29904],[20.3,29983],[20.3,30066],[20.3,30154],[20.3,30233],[20.3,30317],[20.3,30400],[20.3,30484],[20.3,30567],[20.3,30651],[20.3,30739],[20.3,30818],[20.3,30901],[20.3,30989],[20.3,31069],[20.3,31152],[20.3,31236],[20.3,31319],[20.3,31403],[20.3,31486],[20.3,31570],[20.3,31653],[20.3,31737],[20.3,31825],[20.3,31904],[20.3,31987],[20.3,32071],[20.3,32154],[20.3,32238],[20.3,32321],[20.3,32409],[20.3,32488],[20.3,32572],[20.3,32660],[20.3,32739],[20.3,32823],[20.3,32906],[20.3,32990],[20.3,33073],[20.3,33157],[20.3,33245],[20.3,33324],[20.3,33407],[20.3,33496],[20.3,33574],[20.3,33657],[20.3,33745],[20.3,33829],[20.3,33908],[20.3,33992],[20.3,34080],[20.3,34159],[20.3,34242],[20.3,34326],[20.3,34409],[20.3,34493],[20.3,34580],[20.3,34660],[20.3,34744],[20.3,34827],[20.3,34915],[20.3,34994],[20.3,35077],[20.3,35165],[20.3,35244],[20.3,35328],[20.3,35415],[20.3,35495],[20.3,35578],[20.3,35662],[20.3,35750],[20.3,35829],[20.3,35913],[20.3,36000],[20.3,36080],[20.3,36163],[20.3,36247],[20.3,36330],[20.3,36414],[20.3,36497],[20.3,36585],[20.3,36664],[20.3,36748],[20.3,36836],[20.3,36915],[20.3,36998],[20.3,37082],[20.3,37165],[20.3,37249],[20.3,37332],[20.3,37420],[20.3,37500],[20.3,37583],[20.3,37671],[20.3,37750],[20.3,37834],[20.3,37917],[20.3,38001],[20.3,38088],[20.3,38168],[20.3,38251],[20.3,38335],[20.3,38418],[20.3,38506],[20.3,38585],[20.3,38669],[20.3,38756],[20.3,38836],[20.3,38920],[20.3,39003],[20.3,39091],[20.3,39170],[20.3,39253],[20.3,39341],[20.3,39420],[20.3,39504],[20.3,39587],[20.3,39671],[20.3,39754],[20.3,39838],[20.3,39922],[20.3,40005],[20.3,40089],[20.3,40177],[20.3,40256],[20.3,40339],[20.3,40423],[20.3,40506],[20.3,40590],[20.3,40673],[20.3,40757],[20.3,40840],[20.3,40924],[20.3,41012],[20.3,41091],[20.3,41175],[20.3,41258],[20.3,41342],[20.3,41425],[20.3,41509],[20.3,41592],[20.3,41676],[20.3,41759],[20.3,41847],[20.3,41926],[20.3,42010],[20.3,42093],[20.3,42177],[20.3,42260],[20.3,42344],[20.3,42432],[20.3,42511],[20.3,42594],[20.3,42682],[20.3,42761],[20.3,42845],[20.3,42928],[20.3,43012],[20.3,43095],[20.3,43179],[20.3,43263],[20.3,43346],[20.3,43429],[20.3,43517],[20.3,43596],[20.3,43680],[20.3,43763],[20.3,43847],[20.3,43931],[20.3,44014],[20.3,44102],[20.3,44181],[20.3,44264],[20.3,44352],[20.3,44436],[20.3,44515],[20.3,44599],[20.3,44682],[20.3,44766],[20.3,44850],[20.3,44933],[20.3,45016],[20.3,45100],[20.3,45189],[20.3,45267],[20.3,45350],[20.3,45437],[20.3,45518],[20.3,45601],[20.3,45685],[20.3,45772],[20.3,45851],[20.3,45935],[20.3,46023],[20.3,46102],[20.3,46186],[20.3,46269],[20.3,46353],[20.3,46436],[20.3,46520],[20.3,46606],[20.3,46687],[20.3,46771],[20.3,46858],[20.3,46937],[20.3,47021],[20.3,47104],[20.3,47188],[20.3,47271],[20.3,47355],[20.3,47442],[20.3,47522],[20.3,47606],[20.3,47689],[20.3,47772],[20.3,47856],[20.3,47940],[20.3,48023],[20.3,48107],[20.3,48190],[20.3,48278],[20.3,48357],[20.3,48441],[20.3,48528],[20.3,48608],[20.3,48695],[20.3,48778],[20.3,48858],[20.3,48946],[20.3,49025],[20.3,49113],[20.3,49192],[20.3,49276],[20.3,49359],[20.3,49443],[20.3,49526],[20.3,49613],[20.3,49694],[20.3,49777],[20.3,49861],[20.3,49949],[20.3,50027],[20.3,50111],[20.3,50199],[20.3,50278],[20.3,50361],[20.3,50448],[20.3,50529],[20.3,50612],[20.3,50699],[20.3,50783],[20.3,50863],[20.3,50946],[20.3,51034],[20.3,51113],[20.3,51197],[20.3,51281],[20.3,51364],[20.3,51451],[20.3,51531],[20.3,51619],[20.3,51701],[20.3,51781],[20.3,51869],[20.3,51948],[20.3,52032],[20.3,52119],[20.3,52199],[20.3,52282],[20.3,52366],[20.3,52454],[20.3,52533],[20.3,52621],[20.3,52705],[20.3,52783],[20.3,52867],[20.3,52951],[20.3,53034],[20.3,53118],[20.3,53201],[20.3,53290],[20.3,53368],[20.3,53452],[20.3,53540],[20.3,53619],[20.3,53702],[20.3,53790],[20.3,53869],[20.3,53953],[20.3,54036],[20.3,54124],[20.3,54207],[20.3,54287],[20.3,54375],[20.3,54454],[20.3,54538],[20.3,54621],[20.3,54705],[20.3,54788],[20.3,54872],[20.3,54959],[20.3,55038],[20.3,55122],[20.3,55210],[20.3,55289],[20.3,55373],[20.3,55456],[20.3,55540],[20.3,55623],[20.3,55707],[20.3,55791],[20.3,55874]]",1,0,676.1323,681.7489,77.65625715,3.0867,"[{""rating"":77.65625715255737,""responseTime"":3.0866999999881273}]",space,5.078,,681.749,Not at all,0,681.75,,,[],,0,10,10,10,1,audio/Narrative8Situation1.wav,audio/Narrative7Situation1.wav,audio/Narrative6Situation1.wav,audio/Narrative5Situation1.wav,5,2,2,5,,,,,,,,,,,,,,,,,,,,,,,,,,,,,,,,,,,,,
,,,,,,663e5e89d602aa442c7b2845,2024-05-13_10h45.24.619,group3.1-3.2-social-tom,2023.2.2,Win32,59.88023952,65c5074098b851296ff0b7ed,66423307085dc23876366c40,,,,,,,,,,,,,,,,,,,,,,,,,,,,,681.7501,1,audio/Narrative7Situation2.wav,684.7515,,684.7515,692.2185,[],1,0,692.2186,697.497,66.25000238,3.9001,"[{""rating"":41.40625,""responseTime"":3.060300000011921},{""rating"":66.25000238418579,""responseTime"":3.9000999999642545}]",space,4.7513,,697.4972,Not at all,0,697.5007,,,[],,0,11,11,11,1,audio/Narrative8Situation2.wav,audio/Narrative7Situation2.wav,audio/Narrative6Situation2.wav,audio/Narrative5Situation2.wav,3,3,3,3,,,,,,,,,,,,,,,,,,,,,,,,,,,,,,,,,,,,,
,,,,,,663e5e89d602aa442c7b2845,2024-05-13_10h45.24.619,group3.1-3.2-social-tom,2023.2.2,Win32,59.88023952,65c5074098b851296ff0b7ed,66423307085dc23876366c40,,,,,,,,,,,,,,,,,,,,,,,,,,,,,697.5012,1,audio/Narrative7Situation3.wav,705.5181,,705.5181,714.7852,"[[999,5],[999,79],[999,167],[999,246],[999,334],[999,413],[999,497],[999,581],[999,664],[999,748],[999,835],[999,915],[999,1002],[999,1082],[999,1165],[999,1249],[999,1332],[999,1416],[999,1499],[999,1583],[999,1667],[999,1750],[999,1833],[999,1917],[999,2000],[999,2084],[999,2167],[999,2255],[999,2334],[999,2418],[999,2506],[999,2585],[999,2673],[999,2752],[999,2835],[999,2919],[999,3003],[999,3086],[999,3170],[999,3253],[999,3337],[999,3420],[999,3504],[999,3587],[999,3671],[999,3754],[999,3838],[999,3926],[999,4005],[999,4088],[999,4172],[999,4255],[999,4343],[999,4423],[999,4506],[999,4590],[999,4673],[999,4756],[999,4840],[999,4923],[999,5007],[999,5091],[999,5174],[999,5258],[999,5341],[999,5425],[999,5508],[999,5592],[999,5675],[999,5759],[999,5842],[999,5926],[999,6014],[999,6093],[999,6180],[999,6260],[999,6343],[999,6431],[999,6511],[999,6594],[999,6677],[999,6761],[999,6844],[999,6928],[999,7011],[999,7095],[999,7179],[999,7262],[999,7346],[999,7429],[999,7513],[999,7596],[999,7684],[999,7763],[999,7847],[999,7930],[999,8014],[999,8097],[999,8181],[999,8264],[999,8348],[999,8431],[999,8515],[999,8599],[999,8682],[999,8765],[999,8849],[999,8937],[999,9016],[999,9100],[999,9187],[999,9266]]",1,0,714.7853,721.6338,2.968752384,5.5607,"[{""rating"":2.968752384185791,""responseTime"":5.56069999998806}]",space,6.3201,,721.6338,Not at all,0,721.6348,,,[],,0,12,12,12,1,audio/Narrative8Situation3.wav,audio/Narrative7Situation3.wav,audio/Narrative6Situation3.wav,audio/Narrative5Situation3.wav,4,8,5,3,,,,,,,,,,,,,,,,,,,,,,,,,,,,,,,,,,,,,
,,,,,,663e5e89d602aa442c7b2845,2024-05-13_10h45.24.619,group3.1-3.2-social-tom,2023.2.2,Win32,59.88023952,65c5074098b851296ff0b7ed,66423307085dc23876366c40,,,,,,,,,,,,,,,,,,,,,,,,,,,,,721.6349,1,audio/Narrative7Situation4.wav,724.491,space,724.4912,736.2336,"[[999,0],[999,82],[999,165],[999,249],[999,333],[999,419],[999,500],[999,583],[999,667],[999,750],[999,838],[999,917],[999,1001],[999,1085],[999,1168],[999,1251],[999,1335],[999,1418],[999,1502],[999,1585],[999,1669],[999,1753],[999,1836],[999,1920],[999,2003],[999,2087],[999,2170],[999,2254],[999,2337],[999,2421],[999,2504],[999,2587],[999,2671],[999,2755],[999,2838],[999,2922],[999,3005],[999,3093],[999,3172],[999,3256],[999,3339],[999,3423],[999,3506],[999,3590],[999,3673],[999,3757],[999,3845],[999,3924],[999,4007],[999,4091],[999,4174],[999,4258],[999,4341],[999,4425],[999,4509],[999,4596],[999,4676],[999,4759],[999,4845],[999,4926],[999,5010],[999,5093],[999,5177],[999,5260],[999,5344],[999,5427],[999,5511],[999,5594],[999,5678],[999,5761],[999,5845],[999,5928],[999,6016],[999,6096],[999,6179],[999,6267],[999,6346],[999,6430],[999,6513],[999,6597],[999,6680],[999,6764],[999,6847],[999,6931],[999,7014],[999,7102],[999,7181],[999,7265],[999,7348],[999,7432],[999,7515],[999,7599],[999,7682],[999,7766],[999,7849],[999,7933],[999,8016],[999,8100],[999,8184],[999,8267],[999,8355],[999,8434],[999,8517],[999,8606],[999,8684],[999,8772],[999,8851],[999,8935],[999,9019],[999,9102],[999,9186],[999,9269],[999,9357],[999,9437],[999,9520],[999,9604],[999,9687],[999,9770],[999,9854],[999,9937],[999,10021],[999,10104],[999,10188],[999,10271],[999,10355],[999,10443],[999,10522],[999,10605],[999,10689],[999,10773],[999,10860],[999,10940],[999,11023],[999,11106],[999,11190],[999,11274],[999,11357],[999,11441],[999,11524],[999,11608],[999,11692]]",1,0,736.2338,739.5448,53.98437977,2.0683,"[{""rating"":53.98437976837158,""responseTime"":2.0683000000118454}]",space,2.79,,739.5448,Not at all,0,739.5456,,,[],,0,13,13,13,1,audio/Narrative8Situation4.wav,audio/Narrative7Situation4.wav,audio/Narrative6Situation4.wav,audio/Narrative5Situation4.wav,3,3,2,1,2.8363,,,,,,,,,,,,,,,,,,,,,,,,,,,,,,,,,,,,
,,,,,,663e5e89d602aa442c7b2845,2024-05-13_10h45.24.619,group3.1-3.2-social-tom,2023.2.2,Win32,59.88023952,65c5074098b851296ff0b7ed,66423307085dc23876366c40,,,,,,,,,,,,,,,,,,,,,,,,,,,,,739.5457,1,audio/Narrative7Situation5.wav,744.5521,,744.5522,753.0375,"[[999,23],[999,99],[999,182],[999,266],[999,350],[999,433],[999,517],[999,601],[999,684],[999,768],[999,851],[999,935],[999,1018],[999,1102],[999,1185],[999,1269],[999,1352],[999,1436],[999,1519],[999,1603],[999,1686],[999,1770],[999,1853],[999,1937],[999,2020],[999,2104],[999,2187],[999,2271],[999,2354],[999,2438],[999,2521],[999,2605],[999,2688],[999,2772],[999,2855],[999,2939],[999,3022],[999,3106],[999,3189],[999,3273],[999,3357],[999,3440],[999,3524],[999,3607],[999,3691],[999,3774],[999,3858],[999,3941],[999,4024],[999,4108],[999,4192],[999,4275],[999,4359],[999,4442],[999,4526],[999,4609],[999,4693],[999,4776],[999,4860],[999,4943],[999,5027],[999,5110],[999,5194],[999,5278],[999,5361],[999,5445],[999,5528],[999,5612],[999,5695],[999,5778],[999,5862],[999,5946],[999,6029],[999,6113],[999,6196],[999,6280],[999,6363],[999,6447],[999,6530],[999,6614],[999,6697],[999,6781],[999,6865],[999,6948],[999,7032],[999,7115],[999,7199],[999,7282],[999,7366],[999,7449],[999,7533],[999,7616],[999,7700],[999,7783],[999,7866],[999,7950],[999,8033],[999,8117],[999,8201],[999,8284],[999,8368],[999,8451]]",1,0,753.0377,756.9297,12.18749881,2.8187,"[{""rating"":34.062498807907104,""responseTime"":1.6626000000238719},{""rating"":26.79687738418579,""responseTime"":2.219400000035762},{""rating"":16.40625,""responseTime"":2.6314000000357964},{""rating"":12.187498807907104,""responseTime"":2.81870000004767}]",space,3.3614,,756.9298,Partially,50,756.9375,,,[],,0,14,14,14,1,audio/Narrative8Situation5.wav,audio/Narrative7Situation5.wav,audio/Narrative6Situation5.wav,audio/Narrative5Situation5.wav,2,5,2,5,,,,,,,,,,,,,,,,,,,,,,,,,,,,,,,,,,,,,
,,,,,,663e5e89d602aa442c7b2845,2024-05-13_10h45.24.619,group3.1-3.2-social-tom,2023.2.2,Win32,59.88023952,65c5074098b851296ff0b7ed,66423307085dc23876366c40,,,,,,,,,,,,,,,,,,,,,,,,,,,,,756.938,1,audio/Narrative7Situation6.wav,759.9529,,759.953,769.9255,"[[999,0],[999,83],[999,167],[999,250],[999,334],[999,417],[999,500],[999,584],[999,667],[999,751],[999,834],[999,918],[999,1002],[999,1085],[999,1169],[999,1252],[999,1336],[999,1419],[999,1503],[999,1586],[999,1670],[999,1753],[999,1837],[999,1920],[999,2004],[999,2087],[999,2171],[999,2254],[999,2338],[999,2421],[999,2505],[999,2589],[999,2672],[999,2756],[999,2839],[999,2923],[999,3006],[999,3090],[999,3173],[999,3257],[999,3340],[999,3424],[999,3507],[999,3591],[999,3674],[999,3758],[999,3842],[999,3925],[999,4008],[999,4092],[999,4175],[999,4259],[999,4342],[999,4426],[999,4510],[999,4593],[999,4677],[999,4760],[999,4844],[999,4927],[999,5011],[999,5094],[999,5178],[999,5261],[999,5345],[999,5428],[999,5512],[999,5595],[999,5679],[999,5762],[999,5845],[999,5929],[999,6013],[999,6096],[999,6180],[999,6263],[999,6347],[999,6431],[999,6514],[999,6598],[999,6681],[999,6765],[999,6848],[999,6931],[999,7015],[999,7099],[999,7182],[999,7266],[999,7349],[999,7433],[999,7516],[999,7600],[999,7683],[999,7767],[999,7850],[999,7934],[999,8017],[999,8101],[999,8185],[999,8268],[999,8352],[999,8435],[999,8519],[999,8602],[999,8686],[999,8769],[999,8853],[999,8936],[999,9020],[999,9103],[999,9187],[999,9270],[999,9354],[999,9437],[999,9521],[999,9604],[999,9688],[999,9771],[999,9855],[999,9938]]",1,0,769.9257,772.9987,91.796875,1.446,"[{""rating"":91.796875,""responseTime"":1.4460000000000264}]",space,2.5423,,772.9988,Definitely yes,100,773.0043,,,[],,0,15,15,15,1,audio/Narrative8Situation6.wav,audio/Narrative7Situation6.wav,audio/Narrative6Situation6.wav,audio/Narrative5Situation6.wav,2,3,2,3,,,,,,,,,,,,,,,,,,,,,,,,,,,,,,,,,,,,,
,,,,,,663e5e89d602aa442c7b2845,2024-05-13_10h45.24.619,group3.1-3.2-social-tom,2023.2.2,Win32,59.88023952,65c5074098b851296ff0b7ed,66423307085dc23876366c40,,,,,,,,,,,,,,,,,,,,,,,,,,,,,773.0046,1,audio/Narrative7Situation7.wav,778.0096,,778.0096,795.1819,[],1,0,795.182,803.7342,62.73437738,7.4354,"[{""rating"":62.73437738418579,""responseTime"":7.435399999976198}]",space,8.0204,,803.7343,Definitely yes,100,803.7379,,,[],,0,16,16,16,1,audio/Narrative8Situation7.wav,audio/Narrative7Situation7.wav,audio/Narrative6Situation7.wav,audio/Narrative5Situation7.wav,3,5,5,4,,,,,,,,,,,,,,,,,,,,,,,,,,,,,,,,,,,,,
,,,,,,663e5e89d602aa442c7b2845,2024-05-13_10h45.24.619,group3.1-3.2-social-tom,2023.2.2,Win32,59.88023952,65c5074098b851296ff0b7ed,66423307085dc23876366c40,,,,,,,,,,,,,,,,,,,,,,,,,,,,,803.7385,1,audio/Narrative7Situation8.wav,805.7387,,805.7388,815.761,"[[999,0],[999,83],[999,166],[999,250],[999,333],[999,417],[999,500],[999,584],[999,667],[999,751],[999,834],[999,918],[999,1001],[999,1085],[999,1168],[999,1252],[999,1336],[999,1419],[999,1503],[999,1586],[999,1669],[999,1753],[999,1837],[999,1920],[999,2004],[999,2087],[999,2171],[999,2254],[999,2338],[999,2421],[999,2505],[999,2588],[999,2672],[999,2756],[999,2839],[999,2923],[999,3006],[999,3089],[999,3173],[999,3257],[999,3340],[999,3424],[999,3507],[999,3590],[999,3674],[999,3758],[999,3841],[999,3924],[999,4008],[999,4092],[999,4175],[999,4259],[999,4342],[999,4426],[999,4509],[999,4593],[999,4676],[999,4760],[999,4843],[999,4927],[999,5010],[999,5094],[999,5177],[999,5261],[999,5344],[999,5428],[999,5512],[999,5595],[999,5679],[999,5762],[999,5846],[999,5929],[999,6013],[999,6096],[999,6180],[999,6263],[999,6347],[999,6430],[999,6514],[999,6597],[999,6681],[999,6764],[999,6848],[999,6931],[999,7015],[999,7098],[999,7182],[999,7266],[999,7349],[999,7432],[999,7516],[999,7600],[999,7683],[999,7767],[999,7850],[999,7934],[999,8017],[999,8101],[999,8184],[999,8267],[999,8351],[999,8435],[999,8518],[999,8602],[999,8685],[999,8769],[999,8852],[999,8936],[999,9019],[999,9103],[999,9186],[999,9270],[999,9354],[999,9437],[999,9521],[999,9604],[999,9688],[999,9771],[999,9855],[999,9938],[999,10022]]",1,0,815.7613,821.1899,90.93750715,4.5343,"[{""rating"":83.04687738418579,""responseTime"":3.6791999999881},{""rating"":87.96875476837158,""responseTime"":4.17450000000008},{""rating"":90.93750715255737,""responseTime"":4.534299999952395}]",space,4.8992,,821.19,Not at all,0,821.1973,,,[],,0,17,17,17,1,audio/Narrative8Situation8.wav,audio/Narrative7Situation8.wav,audio/Narrative6Situation8.wav,audio/Narrative5Situation8.wav,3,2,5,3,,,,,,,,,,,,,,,,,,,,,,,,,,,,,,,,,,,,,
,,,,,,663e5e89d602aa442c7b2845,2024-05-13_10h45.24.619,group3.1-3.2-social-tom,2023.2.2,Win32,59.88023952,65c5074098b851296ff0b7ed,66423307085dc23876366c40,,,,,,,,,,,,,,,,,,,,,,,,,,,,,821.1979,1,audio/Narrative7Situation9.wav,823.2108,,823.2108,831.8304,"[[999,0],[999,83],[999,166],[999,250],[999,338],[999,417],[999,505],[999,587],[999,667],[999,755],[999,834],[999,922],[999,1001],[999,1085],[999,1168],[999,1252],[999,1335],[999,1419],[999,1503],[999,1586],[999,1670],[999,1759],[999,1837],[999,1920],[999,2004],[999,2087],[999,2171],[999,2254],[999,2338],[999,2421],[999,2505],[999,2593],[999,2672],[999,2760],[999,2843],[999,2923],[999,3010],[999,3090],[999,3173],[999,3256],[999,3340],[999,3428],[999,3507],[999,3590],[999,3674],[999,3758],[999,3845],[999,3925],[999,4008],[999,4092],[999,4175],[999,4259],[999,4346],[999,4426],[999,4509],[999,4593],[999,4676],[999,4764],[999,4843],[999,4927],[999,5010],[999,5098],[999,5181],[999,5261],[999,5349],[999,5428],[999,5516],[999,5599],[999,5679],[999,5762],[999,5846],[999,5929],[999,6013],[999,6096],[999,6180],[999,6263],[999,6351],[999,6434],[999,6514],[999,6597],[999,6681],[999,6769],[999,6852],[999,6931],[999,7015],[999,7098],[999,7186],[999,7266],[999,7349],[999,7437],[999,7516],[999,7599],[999,7683],[999,7766],[999,7850],[999,7934],[999,8021],[999,8101],[999,8184],[999,8268],[999,8351],[999,8438],[999,8518],[999,8602]]",1,0,831.8305,836.524,98.35938215,3.7466,"[{""rating"":96.32812738418579,""responseTime"":3.334500000000048},{""rating"":98.35938215255737,""responseTime"":3.7465999999642463}]",space,4.1622,,836.5241,Definitely yes,100,836.5318,,,[],,0,18,18,18,1,audio/Narrative8Situation9.wav,audio/Narrative7Situation9.wav,audio/Narrative6Situation9.wav,audio/Narrative5Situation9.wav,3,2,4,3,,,,,,,,,,,,,,,,,,,,,,,,,,,,,,,,,,,,,
,,,,,,663e5e89d602aa442c7b2845,2024-05-13_10h45.24.619,group3.1-3.2-social-tom,2023.2.2,Win32,59.88023952,65c5074098b851296ff0b7ed,66423307085dc23876366c40,,,,,,,,,,,,,,,,,,,,,,,,,,,881.0771,883.6498,883.6561,2,audio/Narrative13Situation2.wav,883.6562,,883.6562,913.4166,"[[999,0],[999,77],[999,156],[999,239],[999,327],[999,411],[999,490],[999,573],[999,657],[999,741],[999,824],[999,912],[999,991],[999,1075],[999,1162],[999,1242],[999,1325],[999,1409],[999,1492],[999,1580],[999,1659],[999,1743],[999,1826],[999,1910],[999,1993],[999,2077],[999,2160],[999,2244],[999,2327],[999,2411],[999,2494],[999,2578],[999,2661],[999,2745],[999,2828],[999,2912],[999,3000],[999,3079],[999,3163],[999,3246],[999,3330],[999,3413],[999,3497],[999,3581],[999,3664],[999,3747],[999,3831],[999,3914],[999,3998],[999,4081],[999,4165],[999,4248],[999,4332],[999,4415],[999,4499],[999,4583],[999,4666],[999,4750],[999,4833],[999,4917],[999,5000],[999,5088],[999,5167],[999,5250],[999,5334],[999,5418],[999,5501],[999,5585],[999,5668],[999,5752],[999,5835],[999,5919],[999,6002],[999,6086],[999,6169],[999,6253],[999,6336],[999,6420],[999,6504],[999,6587],[999,6670],[999,6754],[999,6837],[999,6921],[999,7008],[999,7088],[999,7172],[999,7255],[999,7339],[999,7422],[999,7505],[74.8,8679],[74.7,8763],[80.5,8847],[85.3,8932],[92.8,9097],[96.2,9176],[99.2,9264],[99.2,9343],[99.2,9427],[99.2,9514],[99.2,9597],[99.2,9681],[99.2,9761],[93.4,9849],[90.2,9932],[88.1,10016],[88.1,10095],[84.4,10596],[83.9,10684],[83.9,10767],[83.9,10846],[84.2,10934],[84.5,11018],[85.9,11103],[85.9,11185],[86.3,11264],[89.4,11352],[94.7,11436],[95,11515],[95,11602],[95.1,11686],[95.2,11765],[95.3,11849],[95.7,11932],[96,12016],[96.3,12103],[96.4,12183],[96.4,12271],[96.4,12350],[96.4,12438],[96.4,12517],[96,12605],[96,12688],[96,12767],[95.4,12855],[95.4,12934],[95.4,13018],[95.4,13101],[95.2,13185],[95.1,13273],[95.1,13356],[95.1,13435],[95.1,13523],[95.1,13602],[95.1,13686],[95.1,13769],[95.1,13853],[95.1,13937],[95.1,14020],[95.1,14108],[95.1,14190],[95.1,14271],[95.1,14354],[95.1,14438],[95.1,14521],[95.7,14609],[98,14693],[98,14772],[98,14859],[96.6,14943],[96.6,15022],[95.7,15110],[95.3,15189],[95.3,15273],[95.3,15356],[95.3,15440],[96.4,15528],[97.5,15611],[97.5,15690],[97.5,15774],[97.5,15858],[97.5,15941],[97.5,16025],[97.4,16108],[96.6,16196],[96.6,16275],[96.6,16359],[96.6,16442],[96.6,16530],[96.6,16614],[96.6,16693],[96.5,16776],[96.5,16864],[96.5,16943],[96.5,17027],[96.5,17115],[96.8,17200],[97.2,17282],[97.2,17361],[97.2,17449],[97.1,17528],[97,17611],[97,17695],[97,17778],[97.7,17867],[98.1,20456],[98.1,20535],[98.1,20618],[98.1,20702],[97.9,20785],[97.8,20869],[97.8,20952],[97.8,21036],[97.8,21119],[97.8,21207],[97.8,21290],[97.8,21370],[97.8,21454],[97.8,21537],[97.6,21625],[97.3,21704],[97.2,21788],[97.1,21871],[97.1,21954],[97.1,22038],[97.1,22125],[97.1,22205],[97.1,22289],[97.1,22372],[97.1,22460],[97.1,22539],[97.1,22623],[97.1,22710],[97.1,22790],[96.6,22874],[95.9,22961],[95.8,23040],[95.8,23124],[95.8,23208],[95.8,23291],[95.8,23374],[95.8,23462],[95.8,23541],[96,23629],[96.5,23709],[96.5,23792],[96.7,23880],[96.8,23964],[97,24047],[97.2,24130],[97.2,24210],[97.2,24293],[97.2,24377],[97.2,24460],[97.2,24543],[97.2,24627],[97.2,24711],[97.2,24795],[97.7,24882],[98.2,24966],[100,25049],[100,25133],[100,25217],[100,25300],[100,25383],[100,25467],[100,25550],[100,25634],[100,25718],[100,25801],[100,25880],[100,25963],[100,26047],[100,26130],[100,26214],[96.1,26887],[95.4,26966],[94.1,27049],[94.1,27133],[94.1,27216],[94.1,27300],[94.1,27384],[94.1,27471],[94.4,27555],[94.5,27638],[94.5,27722],[94.5,27801],[94.5,27885],[94.5,27968],[94.5,28052],[94.5,28135],[94.5,28219],[94.5,28306],[94.5,28385],[94.5,28469],[94.5,28557],[94.5,28636],[94.5,28720],[94.5,28807],[94.5,28887],[94.8,28971],[96.1,29058],[96.1,29142],[96.1,29221],[96.6,29309],[96.6,29392],[97,29476],[98.4,29560],[99.5,29643],[99.8,29722]]",1,0,913.4169,913.4199,,,[],,,,913.4199,Not at all,0,913.4229,,,[],,0,0,0,0,1,audio/Narrative13Situation2.wav,audio/Narrative13Situation2.wav,audio/Narrative13Situation2.wav,audio/Narrative13Situation2.wav,2,2,2,2,,,,,836.5339,881.0587,space,44.0059,,,,,,,,,,,,,,,,,,,,,,,,,,,,,
,,,,,,663e5e89d602aa442c7b2845,2024-05-13_10h45.24.619,group3.1-3.2-social-tom,2023.2.2,Win32,59.88023952,65c5074098b851296ff0b7ed,66423307085dc23876366c40,,,,,,,,,,,,,,,,,,,,,,,,,,,,,913.4234,2,audio/Narrative6Situation1.wav,915.4377,,915.4377,942.0096,"[[999,0],[999,83],[999,162],[94.2,250],[93.2,334],[92.7,417],[92.7,496],[92.7,580],[92.7,668],[93.7,751],[96.2,830],[96.2,918],[97.1,1004],[97.9,1085],[98.2,1169],[99,1252],[99.1,1331],[99.1,1419],[99.1,1502],[99.1,1582],[99.1,1669],[99.1,1753],[99.1,1832],[99.1,1916],[99.1,2003],[99.1,2083],[99.1,2171],[99.1,2250],[99.1,2334],[99.1,2417],[99.1,2501],[99.1,2588],[99.1,2668],[99.1,2751],[99.1,2835],[99.1,2923],[99.1,3004],[99.1,3085],[99.1,3173],[86.3,7767],[90.3,7863],[92.5,7947],[93.2,8030],[93.8,8113],[94.1,8197],[95.5,8280],[96.7,8364],[97.6,8448],[97.6,8531],[97.6,8614],[97.6,8698],[97.6,8781],[97.6,8865],[97.6,8948],[97.6,9032],[97.6,9115],[97.6,9199],[97.6,9283],[97.6,9366],[97.6,9450],[97.6,9533],[97.6,9617],[97.6,9700],[97.6,9784],[97.6,9867],[97.6,9951],[97.6,10034],[97.6,10118],[97.6,10201],[97.6,10285],[97.6,10368],[97.6,10452],[97.6,10535],[97.6,10619],[97.6,10702],[97.6,10786],[97.6,10870],[97.6,10953],[97.6,11037],[97.6,11120],[97.6,11204],[97.6,11287],[97.6,11370],[97.6,11454],[97.6,11538],[97.6,11621],[97.6,11705],[97.6,11788],[97.6,11872],[97.6,11955],[97.6,12038],[97.6,12122],[97.6,12206],[97.6,12289],[97.6,12373],[97.6,12456],[97.6,12540],[97.6,12624],[97.6,12707],[97.6,12790],[97.6,12874],[97.6,12957],[97.6,13041],[97.6,13125],[97.6,13208],[97.6,13292],[97.6,13375],[97.6,13458],[97.6,13542],[97.6,13625],[97.6,13709],[97.6,13793],[97.6,13876],[97.6,13959],[97.6,14043],[97.6,14127],[97.6,14210],[97.6,14294],[97.6,14377],[97.6,14461],[97.6,14544],[97.6,14628],[97.6,14711],[97.6,14795],[97.6,14879],[97.6,14962],[97.6,15045],[97.6,15129],[97.6,15212],[97.6,15296],[97.6,15379],[97.6,15463],[97.5,15547],[97.5,15631],[97.5,15714],[97.5,15797],[97.5,15881],[97.5,15964],[97.5,16048],[97.5,16131],[97.5,16214],[97.5,16298],[97.5,16381],[97.5,16465],[97.5,16549],[97.5,16632],[97.5,16716],[97.5,16799],[97.5,16883],[97.5,16966],[97.5,17050],[97.5,17133],[97.5,17217],[97.5,17300],[97.5,17384],[97.5,17467],[97.5,17551],[97.5,17634],[97.5,17718],[97.5,17802],[97.5,17885],[97.5,17968],[97.5,18052],[97.5,18135],[97.5,18219],[97.5,18303],[97.5,18386],[97.5,18470],[97.5,18554],[97.5,18637],[97.5,18720],[97.5,18804],[97.5,18887],[97.5,18971],[97.5,19054],[97.5,19138],[97.5,19221],[97.5,19305],[97.5,19388],[97.5,19472],[97.5,19555],[97.5,19639],[97.5,19722],[97.5,19806],[97.5,19889],[97.5,19973],[97.5,20057],[97.5,20140],[97.5,20223],[97.5,20307],[97.5,20391],[97.5,20474],[97.5,20558],[97.5,20641],[97.5,20725],[97.5,20808],[97.5,20891],[97.5,20975],[97.5,21059],[97.5,21142],[97.5,21226],[97.5,21309],[97.5,21393],[97.5,21476],[97.5,21560],[97.5,21644],[97.5,21727],[97.5,21811],[97.5,21894],[97.5,21977],[97.5,22061],[97.5,22144],[97.5,22228],[97.5,22312],[97.5,22395],[97.5,22479],[97.5,22562],[97.5,22645],[97.5,22729],[97.5,22813],[97.5,22896],[97.5,22980],[97.5,23063],[97.5,23147],[97.5,23230],[97.5,23313],[97.5,23397],[97.5,23481],[97.5,23564],[97.5,23648],[97.5,23731],[97.5,23815],[97.5,23898],[97.5,23982],[97.5,24066],[97.5,24149],[97.5,24233],[97.5,24316],[97.5,24400],[97.5,24483],[97.5,24567],[97.5,24650],[97.5,24734],[97.5,24817],[97.5,24900],[97.5,24984],[97.5,25068],[97.5,25151],[97.5,25235],[97.5,25318],[97.5,25402],[97.5,25485],[97.5,25569],[97.5,25653],[97.5,25736],[97.5,25819],[97.5,25903],[97.5,25987],[97.5,26070],[97.5,26153],[97.5,26237],[97.5,26320],[97.5,26404],[97.5,26488],[97.5,26571]]",1,0,942.01,946.67,97.50000238,2.6023,"[{""rating"":97.50000238418579,""responseTime"":2.6022999999522654}]",space,4.1305,,946.6701,Definitely yes,100,946.6771,,,[],,0,1,1,1,1,audio/Narrative7Situation1.wav,audio/Narrative8Situation1.wav,audio/Narrative5Situation1.wav,audio/Narrative6Situation1.wav,2,5,5,2,,,,,,,,,,,,,,,,,,,,,,,,,,,,,,,,,,,,,
,,,,,,663e5e89d602aa442c7b2845,2024-05-13_10h45.24.619,group3.1-3.2-social-tom,2023.2.2,Win32,59.88023952,65c5074098b851296ff0b7ed,66423307085dc23876366c40,,,,,,,,,,,,,,,,,,,,,,,,,,,,,946.6775,2,audio/Narrative6Situation2.wav,949.6929,,949.6929,978.1903,"[[999,0],[999,83],[999,167],[999,250],[999,334],[999,417],[999,501],[999,584],[999,668],[999,751],[999,835],[999,918],[999,1002],[999,1085],[999,1169],[999,1252],[999,1336],[999,1419],[999,1503],[999,1587],[999,1670],[999,1753],[999,1837],[999,1921],[999,2004],[999,2087],[999,2171],[999,2255],[999,2338],[999,2422],[999,2505],[999,2589],[999,2673],[999,2756],[999,2839],[999,2923],[999,3006],[999,3090],[999,3173],[999,3257],[999,3340],[999,3424],[999,3507],[999,3591],[999,3675],[999,3758],[999,3842],[999,3925],[999,4009],[999,4092],[999,4176],[999,4259],[999,4342],[999,4426],[999,4510],[999,4593],[999,4677],[999,4760],[999,4844],[999,4927],[999,5011],[999,5095],[999,5178],[999,5261],[999,5345],[999,5428],[999,5512],[999,5596],[999,5679],[999,5762],[999,5846],[999,5929],[999,6013],[999,6097],[999,6180],[999,6264],[999,6347],[999,6431],[999,6514],[999,6598],[999,6681],[999,6765],[999,6848],[999,6932],[999,7015],[999,7099],[999,7182],[999,7266],[999,7350],[999,7433],[999,7516],[999,7600],[999,7683],[999,7767],[999,7851],[999,7934],[999,8018],[999,8101],[999,8185],[999,8268],[999,8351],[999,8435],[999,8519],[999,8602],[999,8686],[999,8769],[999,8853],[999,8936],[999,9020],[999,9103],[999,9187],[999,9270],[999,9354],[999,9437],[999,9521],[999,9604],[999,9688],[999,9771],[999,9855],[999,9939],[999,10022],[999,10106],[999,10189],[999,10273],[999,10356],[999,10440],[999,10523],[999,10607],[999,10690],[999,10774],[999,10857],[999,10941],[999,11024],[999,11108],[999,11192],[999,11275],[999,11358],[999,11442],[999,11525],[999,11609],[999,11692],[999,11776],[999,11859],[999,11943],[999,12027],[999,12110],[999,12194],[999,12277],[999,12361],[999,12444],[999,12528],[999,12611],[999,12695],[999,12778],[999,12862],[999,12945],[999,13029],[999,13112],[999,13196],[999,13279],[999,13363],[999,13447],[999,13530],[999,13613],[999,13697],[999,13780],[999,13864],[999,13948],[999,14031],[999,14115],[999,14198],[999,14282],[999,14365],[999,14449],[999,14532],[999,14616],[999,14699],[999,14783],[999,14866],[999,14950],[999,15033],[999,15117],[999,15200],[999,15284],[999,15367],[999,15451],[999,15535],[999,15618],[999,15701],[999,15785],[999,15868],[999,15952],[999,16035],[999,16119],[999,16203],[999,16286],[999,16370],[999,16453],[999,16537],[999,16620],[999,16704],[999,16787],[999,16871],[999,16954],[999,17038],[999,17121],[999,17205],[999,17288],[999,17372],[999,17455],[999,17539],[999,17622],[999,17706],[999,17789],[999,17873],[999,17957],[999,18040],[999,18124],[999,18207],[999,18291],[999,18374],[999,18458],[999,18541],[999,18625],[999,18708],[999,18792],[999,18875],[999,18959],[999,19042],[999,19126],[999,19209],[999,19293],[999,19376],[999,19460],[999,19544],[999,19627],[999,19710],[999,19794],[999,19877],[999,19961],[999,20044],[999,20128],[999,20211],[999,20295],[999,20379],[999,20462],[999,20546],[999,20629],[999,20713],[999,20796],[999,20880],[999,20963],[999,21046],[999,21130],[999,21214],[999,21297],[999,21381],[999,21464],[999,21548],[999,21631],[999,21715],[999,21798],[999,21882],[999,21965],[999,22049],[999,22132],[999,22216],[999,22300],[999,22383],[999,22467],[999,22550],[999,22633],[999,22717],[999,22800],[999,22884],[999,22968],[999,23051],[999,23135],[999,23218],[999,23302],[999,23385],[999,23468],[999,23552],[999,23636],[999,23719],[999,23803],[999,23886],[999,23970],[999,24053],[999,24137],[999,24221],[999,24304],[999,24388],[999,24471],[999,24555],[999,24638],[999,24721],[999,24805],[999,24889],[999,24972],[999,25055],[999,25139],[999,25223],[999,25306],[999,25390],[999,25473],[999,25557],[999,25640],[999,25724],[999,25807],[999,25891],[999,25975],[999,26058],[999,26142],[999,26225],[999,26308],[999,26392],[999,26476],[999,26559],[999,26642],[999,26726],[999,26810],[999,26893],[999,26977],[999,27060],[999,27144],[999,27227],[999,27311],[999,27394],[999,27478],[999,27561],[999,27645],[999,27728],[999,27812],[999,27895],[999,27979],[999,28062],[999,28146],[999,28229],[999,28313],[999,28397],[999,28480]]",1,0,978.1905,983.6689,95.93750238,5.4543,"[{""rating"":95.93750238418579,""responseTime"":5.454300000011926}]",space,4.7454,,983.6689,Partially,50,983.6705,,,[],,0,2,2,2,1,audio/Narrative7Situation2.wav,audio/Narrative8Situation2.wav,audio/Narrative5Situation2.wav,audio/Narrative6Situation2.wav,3,3,3,3,,,,,,,,,,,,,,,,,,,,,,,,,,,,,,,,,,,,,
,,,,,,663e5e89d602aa442c7b2845,2024-05-13_10h45.24.619,group3.1-3.2-social-tom,2023.2.2,Win32,59.88023952,65c5074098b851296ff0b7ed,66423307085dc23876366c40,,,,,,,,,,,,,,,,,,,,,,,,,,,,,983.6707,2,audio/Narrative6Situation3.wav,988.68,,988.6801,1001.279,"[[999,5],[999,83],[999,166],[999,250],[999,338],[999,417],[999,500],[999,584],[999,668],[999,751],[999,835],[999,918],[999,1002],[999,1085],[999,1169],[999,1252],[999,1340],[999,1419],[999,1503],[999,1590],[999,1670],[999,1754],[999,1837],[999,1920],[999,2008],[999,2087],[999,2171],[999,2254],[999,2338],[999,2422],[999,2505],[999,2589],[999,2672],[999,2755],[999,2839],[999,2922],[999,3006],[999,3090],[999,3173],[999,3257],[999,3341],[999,3424],[999,3507],[999,3591],[999,3674],[999,3758],[999,3842],[999,3925],[999,4008],[999,4096],[999,4176],[999,4259],[999,4342],[999,4426],[999,4514],[999,4593],[999,4676],[999,4760],[999,4844],[999,4927],[999,5011],[999,5094],[999,5178],[999,5261],[999,5345],[999,5428],[999,5512],[999,5595],[999,5679],[999,5766],[999,5846],[999,5929],[999,6013],[999,6096],[999,6180],[999,6264],[999,6347],[999,6431],[999,6514],[999,6598],[999,6681],[999,6764],[999,6848],[999,6931],[999,7020],[999,7099],[999,7182],[999,7266],[999,7349],[999,7437],[999,7516],[999,7600],[999,7683],[999,7767],[999,7850],[999,7934],[999,8018],[999,8101],[999,8185],[999,8268],[999,8351],[999,8440],[999,8519],[999,8602],[999,8690],[999,8769],[999,8852],[999,8936],[999,9020],[999,9103],[999,9187],[999,9270],[999,9354],[999,9437],[999,9521],[999,9604],[999,9688],[999,9771],[999,9855],[999,9942],[999,10022],[999,10105],[999,10189],[999,10273],[999,10356],[999,10439],[999,10523],[999,10606],[999,10690],[999,10774],[999,10857],[999,10941],[999,11024],[999,11108],[999,11191],[999,11275],[999,11358],[999,11443],[999,11525],[999,11613],[999,11692],[999,11776],[999,11859],[999,11943],[999,12026],[999,12110],[999,12193],[999,12277],[999,12360],[999,12444],[999,12532]]",1,0,1001.2791,1003.6472,75.390625,1.3476,"[{""rating"":75.390625,""responseTime"":1.347600000023931}]",space,1.8303,,1003.6473,Partially,50,1003.6507,,,[],,0,3,3,3,1,audio/Narrative7Situation3.wav,audio/Narrative8Situation3.wav,audio/Narrative5Situation3.wav,audio/Narrative6Situation3.wav,8,4,3,5,,,,,,,,,,,,,,,,,,,,,,,,,,,,,,,,,,,,,
,,,,,,663e5e89d602aa442c7b2845,2024-05-13_10h45.24.619,group3.1-3.2-social-tom,2023.2.2,Win32,59.88023952,65c5074098b851296ff0b7ed,66423307085dc23876366c40,,,,,,,,,,,,,,,,,,,,,,,,,,,,,1003.6513,2,audio/Narrative6Situation4.wav,1005.6516,,1005.6516,1018.2465,"[[999,0],[999,82],[999,166],[999,250],[999,337],[999,417],[999,500],[999,584],[999,667],[999,755],[999,834],[999,918],[999,1001],[999,1085],[999,1169],[999,1252],[999,1335],[999,1419],[999,1502],[999,1590],[999,1669],[999,1757],[999,1837],[999,1924],[999,2008],[999,2087],[999,2171],[999,2254],[999,2338],[999,2421],[999,2505],[999,2588],[999,2672],[999,2755],[999,2839],[999,2923],[999,3006],[999,3090],[999,3173],[999,3256],[999,3340],[999,3423],[999,3507],[999,3591],[999,3674],[999,3757],[999,3841],[999,3924],[999,4008],[999,4091],[999,4175],[999,4259],[999,4342],[999,4426],[999,4513],[999,4593],[999,4676],[999,4760],[999,4843],[999,4927],[999,5010],[999,5098],[999,5177],[999,5261],[999,5345],[999,5428],[999,5516],[999,5595],[999,5679],[999,5762],[999,5846],[999,5929],[999,6012],[999,6096],[999,6180],[999,6263],[999,6346],[999,6430],[999,6514],[999,6597],[999,6681],[999,6764],[999,6848],[999,6932],[999,7015],[999,7098],[999,7182],[999,7266],[999,7349],[999,7432],[999,7516],[999,7600],[999,7683],[999,7766],[999,7850],[999,7933],[999,8021],[999,8100],[999,8184],[999,8268],[999,8351],[999,8435],[999,8518],[999,8602],[999,8685],[999,8769],[999,8852],[999,8936],[999,9019],[999,9107],[999,9187],[999,9270],[999,9354],[999,9437],[999,9520],[999,9604],[999,9687],[999,9771],[999,9854],[999,9938],[999,10022],[999,10105],[999,10189],[999,10272],[999,10360],[999,10440],[999,10527],[999,10606],[999,10689],[999,10773],[999,10857],[999,10940],[999,11024],[999,11108],[999,11195],[999,11274],[999,11358],[999,11441],[999,11525],[999,11612],[999,11692],[999,11775],[999,11859],[999,11942],[999,12026],[999,12109],[999,12193],[999,12276],[999,12360],[999,12444],[999,12527]]",1,0,1018.2468,1023.5789,19.84375119,4.287,"[{""rating"":19.843751192092896,""responseTime"":4.286999999999921}]",space,4.7774,,1023.5789,Partially,50,1023.5797,,,[],,0,4,4,4,1,audio/Narrative7Situation4.wav,audio/Narrative8Situation4.wav,audio/Narrative5Situation4.wav,audio/Narrative6Situation4.wav,3,3,1,2,,,,,,,,,,,,,,,,,,,,,,,,,,,,,,,,,,,,,
,,,,,,663e5e89d602aa442c7b2845,2024-05-13_10h45.24.619,group3.1-3.2-social-tom,2023.2.2,Win32,59.88023952,65c5074098b851296ff0b7ed,66423307085dc23876366c40,,,,,,,,,,,,,,,,,,,,,,,,,,,,,1023.5799,2,audio/Narrative6Situation5.wav,1025.5961,,1025.5962,1033.5635,[],1,0,1033.5636,1042.7339,2.734375,7.6555,"[{""rating"":2.734375,""responseTime"":7.655499999999847}]",space,8.6391,,1042.734,Definitely yes,100,1042.7355,,,[],,0,5,5,5,1,audio/Narrative7Situation5.wav,audio/Narrative8Situation5.wav,audio/Narrative5Situation5.wav,audio/Narrative6Situation5.wav,5,2,5,2,,,,,,,,,,,,,,,,,,,,,,,,,,,,,,,,,,,,,
,,,,,,663e5e89d602aa442c7b2845,2024-05-13_10h45.24.619,group3.1-3.2-social-tom,2023.2.2,Win32,59.88023952,65c5074098b851296ff0b7ed,66423307085dc23876366c40,,,,,,,,,,,,,,,,,,,,,,,,,,,,,1042.7356,2,audio/Narrative6Situation6.wav,1044.7388,,1044.7388,1055.8345,[],1,0,1055.8345,1064.002,3.750002384,7.3527,"[{""rating"":3.750002384185791,""responseTime"":7.35269999998809}]",space,7.6257,,1064.002,Definitely yes,100,1064.0037,,,[],,0,6,6,6,1,audio/Narrative7Situation6.wav,audio/Narrative8Situation6.wav,audio/Narrative5Situation6.wav,audio/Narrative6Situation6.wav,3,2,3,2,,,,,,,,,,,,,,,,,,,,,,,,,,,,,,,,,,,,,
,,,,,,663e5e89d602aa442c7b2845,2024-05-13_10h45.24.619,group3.1-3.2-social-tom,2023.2.2,Win32,59.88023952,65c5074098b851296ff0b7ed,66423307085dc23876366c40,,,,,,,,,,,,,,,,,,,,,,,,,,,,,1064.0039,2,audio/Narrative6Situation7.wav,1069.0097,,1069.0098,1093.8526,"[[20.3,5766],[1.9,5850],[1.7,5929],[1.7,6017],[1.7,6096],[1.7,6180],[1.7,6266],[5.6,6352],[5.6,6430],[5.6,6514],[5.6,6597],[5.6,6681],[42.5,8439],[45.5,8523],[53.5,8605],[55.7,8690],[58.5,8775],[60.2,8852],[64.5,8936],[69.7,9024],[73.8,9108],[83.2,9191],[85.8,9276],[87,9358],[88,9441],[88.2,9524],[88.2,9604],[89.7,9692],[90.3,9771],[90.8,9855],[90.9,9938],[90.9,10021],[90.9,10105],[90.9,10193],[90.9,10272],[90.9,10359],[90.9,10442],[90.9,10527],[90.9,10606],[90.9,10690],[90.9,10778],[91.2,10861],[91.3,10940],[91.3,11028],[91.3,11107],[91.3,11191],[91.3,11278],[91.3,11358],[91.3,11441],[91.3,11525],[91.3,11613],[91.3,11692],[91.3,11780],[91.3,11863],[91.3,11942],[91.3,12026],[91.3,12113],[91.3,12193],[91.3,12276],[91.3,12360],[91.3,12448],[91.3,12527],[91.3,12611],[91.3,12698],[91.3,12778],[91.3,12861],[91.3,12948],[91.3,13028],[91.3,13112],[91.3,13195],[91.3,13283],[91.3,13362],[91.3,13446],[91.3,13532],[91.3,13613],[91.3,13700],[91.3,13780],[91.3,13864],[91.3,13947],[91.3,14031],[93.5,14118],[93.6,14198],[93.6,14281],[93.6,14369],[93.6,14448],[93.5,14531],[93.1,14615],[92.7,14699],[92.4,14786],[92.4,14865],[92.4,14954],[92.4,15032],[92.4,15121],[92.4,15204],[92.4,15283],[92.4,15367],[92.6,15454],[92.7,15534],[92.7,15617],[92.7,15701],[92.7,15789],[92.7,15872],[92.8,15951],[92.9,16039],[92.9,16118],[93,16202],[93,16289],[93,16369],[93,16453],[93,16536],[93,16624],[93,16703],[93,16787],[93.1,16870],[93.1,16954],[93.3,17042],[93.3,17124],[93.3,17204],[93.3,17288],[93.3,17371],[93.3,17459],[93.3,17538],[93.3,17622],[93.3,17710],[93.3,17793],[93.3,17872],[93.3,17960],[93.3,18039],[93.3,18123],[93.3,18206],[93.3,18294],[93.3,18373],[93.3,18457],[93.3,18540],[93.3,18624],[93.3,18712],[93.3,18791],[93.3,18875],[93.3,18958],[93.3,19042],[93.3,19129],[93.3,19209],[93.3,19296],[93.3,19380],[93.3,19459],[93.3,19542],[93.3,19630],[93.3,19710],[93.3,19793],[93.3,19877],[93.3,19960],[93.3,20044],[93.3,20127],[93.3,20215],[93.3,20294],[93.3,20378],[93.3,20465],[93.3,20545],[93.3,20628],[93.3,20712],[93.3,20800],[93.3,20879],[93.3,20966],[93.3,21050],[93.3,21129],[93.3,21213],[93.3,21297],[93.3,21380],[93.3,21464],[93.3,21547],[93.3,21631]]",1,0,1093.8528,1097.824,93.12499762,2.7211,"[{""rating"":91.17187261581421,""responseTime"":1.46990000003575},{""rating"":93.12499761581421,""responseTime"":2.7211000000238528}]",space,3.425,,1097.8241,Definitely yes,100,1097.8275,,,[],,0,7,7,7,1,audio/Narrative7Situation7.wav,audio/Narrative8Situation7.wav,audio/Narrative5Situation7.wav,audio/Narrative6Situation7.wav,5,3,4,5,,,,,,,,,,,,,,,,,,,,,,,,,,,,,,,,,,,,,
,,,,,,663e5e89d602aa442c7b2845,2024-05-13_10h45.24.619,group3.1-3.2-social-tom,2023.2.2,Win32,59.88023952,65c5074098b851296ff0b7ed,66423307085dc23876366c40,,,,,,,,,,,,,,,,,,,,,,,,,,,,,1097.828,2,audio/Narrative6Situation8.wav,1102.835,,1102.8351,1109.6834,[],1,0,1109.6835,1119.0423,28.82812619,7.666,"[{""rating"":28.828126192092896,""responseTime"":7.666000000000167}]",space,8.8378,,1119.0424,Not at all,0,1119.0444,,,[],,0,8,8,8,1,audio/Narrative7Situation8.wav,audio/Narrative8Situation8.wav,audio/Narrative5Situation8.wav,audio/Narrative6Situation8.wav,2,3,3,5,,,,,,,,,,,,,,,,,,,,,,,,,,,,,,,,,,,,,
,,,,,,663e5e89d602aa442c7b2845,2024-05-13_10h45.24.619,group3.1-3.2-social-tom,2023.2.2,Win32,59.88023952,65c5074098b851296ff0b7ed,66423307085dc23876366c40,,,,,,,,,,,,,,,,,,,,,,,,,,,,,1119.0446,2,audio/Narrative6Situation9.wav,1123.0468,,1123.0468,1132.9897,"[[999,8],[999,89],[999,167],[999,250],[999,338],[999,417],[999,500],[999,589],[999,667],[999,755],[999,834],[999,918],[999,1002],[999,1085],[999,1168],[999,1252],[999,1336],[999,1419],[999,1503],[999,1590],[999,1670],[999,1753],[999,1837],[999,1920],[999,2008],[999,2087],[999,2171],[999,2254],[999,2338],[999,2425],[999,2505],[999,2588],[999,2672],[999,2755],[999,2843],[999,2922],[999,3006],[999,3090],[999,3173],[999,3261],[999,3340],[999,3424],[999,3507],[999,3591],[999,3674],[999,3758],[999,3841],[999,3925],[999,4008],[999,4096],[999,4175],[999,4259],[999,4343],[999,4426],[999,4513],[999,4593],[999,4677],[999,4760],[999,4843],[999,4927],[999,5011],[999,5094],[999,5178],[999,5261],[999,5345],[999,5428],[999,5515],[999,5595],[999,5678],[999,5766],[999,5846],[999,5929],[999,6013],[999,6096],[999,6184],[999,6263],[999,6347],[999,6430],[999,6514],[999,6597],[999,6681],[999,6765],[999,6848],[999,6931],[999,7019],[999,7098],[999,7182],[999,7266],[999,7349],[999,7437],[999,7516],[999,7600],[999,7683],[999,7767],[999,7854],[999,7934],[999,8017],[999,8101],[999,8188],[999,8268],[999,8351],[999,8435],[999,8518],[999,8602],[999,8690],[999,8769],[999,8852],[999,8936],[999,9024],[999,9103],[999,9186],[999,9274],[999,9354],[999,9442],[999,9521],[999,9604],[999,9688],[999,9771],[999,9855],[999,9942]]",1,0,1132.9898,1136.059,1.093751192,2.0649,"[{""rating"":1.0937511920928955,""responseTime"":2.0649000000357773}]",space,2.5233,,1136.059,Partially,50,1136.0606,,,[],,0,9,9,9,1,audio/Narrative7Situation9.wav,audio/Narrative8Situation9.wav,audio/Narrative5Situation9.wav,audio/Narrative6Situation9.wav,2,3,3,4,,,,,,,,,,,,,,,,,,,,,,,,,,,,,,,,,,,,,
,,,,,,663e5e89d602aa442c7b2845,2024-05-13_10h45.24.619,group3.1-3.2-social-tom,2023.2.2,Win32,59.88023952,65c5074098b851296ff0b7ed,66423307085dc23876366c40,,,,,,,,,,,,,,,,,,,,,,,,,,,,,1136.0606,2,audio/Narrative5Situation1.wav,1141.0702,,1141.0702,1154.35,"[[7.8,501],[8,584],[7.4,671],[7.4,751],[7.4,835],[7.4,918],[7.4,1002],[7.3,1086],[7.4,1173],[7.5,1252],[8,1340],[7.7,1424],[7.5,1503],[7.4,1586]]",1,0,1154.35,1158.5926,3.359377384,3.0558,"[{""rating"":3.359377384185791,""responseTime"":3.0558000000119137}]",space,3.7055,,1158.5927,Not at all,0,1158.5942,,,[],,0,10,10,10,1,audio/Narrative8Situation1.wav,audio/Narrative7Situation1.wav,audio/Narrative6Situation1.wav,audio/Narrative5Situation1.wav,5,2,2,5,,,,,,,,,,,,,,,,,,,,,,,,,,,,,,,,,,,,,
,,,,,,663e5e89d602aa442c7b2845,2024-05-13_10h45.24.619,group3.1-3.2-social-tom,2023.2.2,Win32,59.88023952,65c5074098b851296ff0b7ed,66423307085dc23876366c40,,,,,,,,,,,,,,,,,,,,,,,,,,,,,1158.5943,2,audio/Narrative5Situation2.wav,1161.5993,,1161.5993,1191.0531,"[[6.2,28735],[3.1,29403]]",1,0,1191.0532,1195.2579,22.34374881,2.2117,"[{""rating"":22.343748807907104,""responseTime"":2.2116999999880136}]",space,3.6409,,1195.2579,Partially,50,1195.2596,,,[],,0,11,11,11,1,audio/Narrative8Situation2.wav,audio/Narrative7Situation2.wav,audio/Narrative6Situation2.wav,audio/Narrative5Situation2.wav,3,3,3,3,,,,,,,,,,,,,,,,,,,,,,,,,,,,,,,,,,,,,
,,,,,,663e5e89d602aa442c7b2845,2024-05-13_10h45.24.619,group3.1-3.2-social-tom,2023.2.2,Win32,59.88023952,65c5074098b851296ff0b7ed,66423307085dc23876366c40,,,,,,,,,,,,,,,,,,,,,,,,,,,,,1195.2598,2,audio/Narrative5Situation3.wav,1198.2648,,1198.2648,1212.179,"[[83.6,9792],[84.8,9876],[86.9,9959],[87.9,10043],[88.6,10126],[89.1,10209],[89.2,10293],[89.4,10377],[89.5,10456],[89.5,10543],[89.7,10623],[89.7,10706],[89.7,10790],[89.5,10878],[84.8,10957],[81.4,11045],[80.2,11124],[79,11212],[78.8,11291],[78.8,11375],[78.8,11458],[78.8,11542],[78.8,11625],[78.8,11713],[78.8,11796],[78.8,11879],[78.8,11964],[78.8,12043],[78.8,12131],[78.8,12210],[78.8,12294],[78.8,12377],[78.8,12460],[78.8,12548],[78.8,12627],[78.8,12715],[78.8,12799],[78.8,12878],[78.8,12961],[78.8,13045],[78.8,13129],[78.8,13212],[78.8,13296],[78.8,13384],[78.8,13463],[78.8,13546],[78.8,13634],[78.8,13713],[78.8,13801],[78.8,13880]]",1,0,1212.179,1214.6177,78.82813215,0.5103,"[{""rating"":78.82813215255737,""responseTime"":0.5103000000119664}]",space,1.9036,,1214.6177,Definitely yes,100,1214.6192,,,[],,0,12,12,12,1,audio/Narrative8Situation3.wav,audio/Narrative7Situation3.wav,audio/Narrative6Situation3.wav,audio/Narrative5Situation3.wav,4,8,5,3,,,,,,,,,,,,,,,,,,,,,,,,,,,,,,,,,,,,,
,,,,,,663e5e89d602aa442c7b2845,2024-05-13_10h45.24.619,group3.1-3.2-social-tom,2023.2.2,Win32,59.88023952,65c5074098b851296ff0b7ed,66423307085dc23876366c40,,,,,,,,,,,,,,,,,,,,,,,,,,,,,1214.6193,2,audio/Narrative5Situation4.wav,1215.6199,,1215.6199,1235.9988,[],1,0,1235.9988,1238.7722,69.45313215,1.5783,"[{""rating"":69.45313215255737,""responseTime"":1.57830000001195}]",space,2.2513,,1238.7724,Definitely yes,100,1238.7759,,,[],,0,13,13,13,1,audio/Narrative8Situation4.wav,audio/Narrative7Situation4.wav,audio/Narrative6Situation4.wav,audio/Narrative5Situation4.wav,3,3,2,1,,,,,,,,,,,,,,,,,,,,,,,,,,,,,,,,,,,,,
,,,,,,663e5e89d602aa442c7b2845,2024-05-13_10h45.24.619,group3.1-3.2-social-tom,2023.2.2,Win32,59.88023952,65c5074098b851296ff0b7ed,66423307085dc23876366c40,,,,,,,,,,,,,,,,,,,,,,,,,,,,,1238.7764,2,audio/Narrative5Situation5.wav,1243.783,,1243.783,1259.2006,[],1,0,1259.2007,1263.2096,83.43750238,2.3431,"[{""rating"":83.43750238418579,""responseTime"":2.3430999999641244}]",space,3.4738,,1263.2096,Partially,50,1263.2112,,,[],,0,14,14,14,1,audio/Narrative8Situation5.wav,audio/Narrative7Situation5.wav,audio/Narrative6Situation5.wav,audio/Narrative5Situation5.wav,2,5,2,5,,,,,,,,,,,,,,,,,,,,,,,,,,,,,,,,,,,,,
,,,,,,663e5e89d602aa442c7b2845,2024-05-13_10h45.24.619,group3.1-3.2-social-tom,2023.2.2,Win32,59.88023952,65c5074098b851296ff0b7ed,66423307085dc23876366c40,,,,,,,,,,,,,,,,,,,,,,,,,,,,,1263.2114,2,audio/Narrative5Situation6.wav,1266.2162,,1266.2162,1271.8788,[],1,0,1271.879,1276.6899,5.859375,3.5406,"[{""rating"":5.859375,""responseTime"":3.5406000000239146}]",space,4.26,,1276.6899,Definitely yes,100,1276.6937,,,[],,0,15,15,15,1,audio/Narrative8Situation6.wav,audio/Narrative7Situation6.wav,audio/Narrative6Situation6.wav,audio/Narrative5Situation6.wav,2,3,2,3,,,,,,,,,,,,,,,,,,,,,,,,,,,,,,,,,,,,,
,,,,,,663e5e89d602aa442c7b2845,2024-05-13_10h45.24.619,group3.1-3.2-social-tom,2023.2.2,Win32,59.88023952,65c5074098b851296ff0b7ed,66423307085dc23876366c40,,,,,,,,,,,,,,,,,,,,,,,,,,,,,1276.694,2,audio/Narrative5Situation7.wav,1280.6986,,1280.6986,1301.7358,"[[5.3,15711],[5.3,15788],[5.3,15868],[5.3,15952],[5.4,16036],[8.4,16123],[10.4,16207],[11.6,16286],[11.7,16374],[16.3,16457],[25.9,16537],[29.4,16624],[29.7,16709],[30.7,16791],[33,16871],[33.2,16959],[33.4,17038],[33.4,17121],[33.4,17209],[33.4,17289],[33.4,17376],[33.4,17455],[33.8,17544],[34.3,17627],[34.4,17710],[34.4,17789],[34.4,17873],[34.4,17956],[34.4,18044],[34.4,18124],[34.4,18207],[34.4,18291],[34.4,18374],[34.4,18458],[34.4,18541],[34.4,18629],[34.4,18708],[34.4,18791],[34.4,18879],[34.4,18958],[34.4,19042],[34.4,19129],[34.4,19209],[52,19381],[53.8,19464],[53.8,19543],[53.7,19627],[53.7,19710],[52.8,19798],[51.3,19883],[51.4,19966],[51.5,20044],[51.6,20128],[51.6,20211],[51.6,20299],[51.6,20378],[51.6,20462],[51.6,20550],[51.6,20629],[51.2,20718],[50.6,20800],[41.6,20880],[41,20963]]",1,0,1301.7361,1303.7004,40.85937738,0.2203,"[{""rating"":40.85937738418579,""responseTime"":0.2202999999522035}]",space,1.4325,,1303.7005,Partially,50,1303.7079,,,[],,0,16,16,16,1,audio/Narrative8Situation7.wav,audio/Narrative7Situation7.wav,audio/Narrative6Situation7.wav,audio/Narrative5Situation7.wav,3,5,5,4,,,,,,,,,,,,,,,,,,,,,,,,,,,,,,,,,,,,,
,,,,,,663e5e89d602aa442c7b2845,2024-05-13_10h45.24.619,group3.1-3.2-social-tom,2023.2.2,Win32,59.88023952,65c5074098b851296ff0b7ed,66423307085dc23876366c40,,,,,,,,,,,,,,,,,,,,,,,,,,,,,1303.7084,2,audio/Narrative5Situation8.wav,1306.7237,,1306.7237,1315.5475,"[[999,20],[999,83],[999,166],[999,254],[999,334],[999,417],[999,500],[999,584],[999,671],[999,751],[999,834],[999,918],[999,1002],[999,1085],[999,1169],[999,1252],[999,1336],[999,1419],[999,1507],[999,1586],[999,1670],[999,1753],[999,1841],[999,1924],[999,2004],[999,2087],[999,2171],[999,2254],[999,2341],[999,2421],[999,2505],[999,2588],[999,2672],[999,2756],[999,2839],[999,2923],[999,3010],[999,3089],[999,3177],[999,3261],[999,3340],[999,3424],[999,3507],[999,3595],[999,3674],[999,3762],[999,3841],[999,3925],[999,4013],[999,4092],[999,4175],[999,4259],[999,4342],[999,4426],[999,4509],[999,4593],[999,4677],[999,4760],[999,4844],[999,4927],[999,5011],[999,5094],[999,5178],[999,5265],[999,5345],[999,5428],[999,5512],[999,5595],[999,5679],[999,5762],[999,5846],[999,5929],[999,6013],[999,6100],[999,6180],[999,6263],[999,6347],[999,6430],[999,6514],[999,6598],[999,6681],[999,6765],[999,6848],[999,6932],[999,7015],[999,7098],[999,7186],[999,7266],[999,7353],[999,7432],[999,7516],[999,7600],[999,7683],[999,7767],[999,7850],[999,7934],[999,8017],[999,8101],[999,8188],[999,8268],[999,8351],[999,8434],[999,8518],[999,8602],[999,8685],[999,8769]]",1,0,1315.5475,1318.1828,2.734375,1.5309,"[{""rating"":2.734375,""responseTime"":1.5308999999761}]",space,2.0896,,1318.1828,Partially,50,1318.1862,,,[],,0,17,17,17,1,audio/Narrative8Situation8.wav,audio/Narrative7Situation8.wav,audio/Narrative6Situation8.wav,audio/Narrative5Situation8.wav,3,2,5,3,,,,,,,,,,,,,,,,,,,,,,,,,,,,,,,,,,,,,
,,,,,,663e5e89d602aa442c7b2845,2024-05-13_10h45.24.619,group3.1-3.2-social-tom,2023.2.2,Win32,59.88023952,65c5074098b851296ff0b7ed,66423307085dc23876366c40,,,,,,,,,,,,,,,,,,,,,,,,,,,,,1318.1866,2,audio/Narrative5Situation9.wav,1321.1894,,1321.1894,1360.7273,[],1,0,1360.7274,1365.1538,54.84374762,2.3813,"[{""rating"":54.84374761581421,""responseTime"":2.381300000012061}]",space,3.8922,,1365.1539,Not at all,0,1370.7998,1.093751192,4.254,"[{""rating"":1.0937511920928955,""responseTime"":4.253999999999905}]",space,0,18,18,18,1,audio/Narrative8Situation9.wav,audio/Narrative7Situation9.wav,audio/Narrative6Situation9.wav,audio/Narrative5Situation9.wav,3,2,4,3,,,5.1184,,,,,,,,,,,,,,,,,,,,,,,,,,,,,,,,,,
,,,,,,663e5e89d602aa442c7b2845,2024-05-13_10h45.24.619,group3.1-3.2-social-tom,2023.2.2,Win32,59.88023952,65c5074098b851296ff0b7ed,66423307085dc23876366c40,,,,,,,,,,,,,,,,,,,,,,,,,,,,,,,,,,,,,,,,,,,,,,,,,,,,,,,,,,,,,,,,,,,,,,,,1370.8,1414.9488,space,43.6408,,1414.9513,1424.5725,space,9.2928,,,,,,,,,,,,,,,,,,,,,,,,
,,,,,,663e5e89d602aa442c7b2845,2024-05-13_10h45.24.619,group3.1-3.2-social-tom,2023.2.2,Win32,59.88023952,65c5074098b851296ff0b7ed,66423307085dc23876366c40,,,,,,,,,,,,,,,,,,,,,,,,,,,,,1427.172,1,audio/Narrative7Situation9.wav,1429.1805,,,,,,,1461.0911,1465.6286,5.625003576,2.6193,"[{""rating"":1.015627384185791,""responseTime"":1.6703000000118209},{""rating"":5.6250035762786865,""responseTime"":2.61930000001189}]",space,3.9983,,1461.087,Not at all,0,1461.091,,,[],,,,,,,,,,,2,2,2,2,,,,,,,,,,,,,,,1424.5931,1427.1593,1429.1811,3,1461.0867,"[[999,2],[999,82],[999,166],[999,249],[999,333],[999,416],[999,500],[999,583],[999,672],[999,750],[999,834],[999,917],[999,1001],[999,1088],[999,1171],[999,1252],[999,1335],[999,1419],[999,1502],[999,1588],[999,1669],[999,1753],[999,1836],[999,1923],[999,2003],[999,2087],[999,2170],[999,2254],[999,2339],[999,2421],[999,2504],[999,2588],[999,2672],[999,2759],[999,2838],[999,2922],[999,3009],[999,3089],[999,3176],[999,3256],[999,3339],[999,3423],[999,3506],[999,3590],[999,3678],[999,3757],[999,3841],[999,3924],[999,4008],[999,4091],[999,4174],[999,4258],[999,4342],[999,4429],[999,4513],[999,4596],[999,4676],[999,4759],[999,4843],[999,4927],[999,5010],[999,5094],[999,5177],[999,5260],[999,5348],[999,5427],[999,5511],[999,5594],[999,5678],[999,5761],[999,5845],[999,5929],[999,6012],[999,6096],[999,6179],[999,6269],[999,6346],[999,6430],[999,6513],[999,6597],[999,6683],[999,6767],[999,6847],[999,6931],[999,7014],[999,7098],[999,7185],[999,7265],[999,7348],[999,7432],[999,7516],[999,7599],[999,7682],[999,7766],[999,7849],[999,7933],[999,8016],[999,8100],[999,8183],[999,8267],[999,8350],[999,8438],[999,8518],[999,8601],[999,8685],[999,8768],[999,8856],[999,8935],[999,9019],[999,9102],[999,9186],[999,9273],[999,9353],[999,9436],[999,9520],[999,9604],[999,9691],[999,9770],[999,9854],[999,9938],[999,10021],[999,10104],[999,10188],[999,10272],[999,10355],[999,10439],[999,10522],[999,10609],[999,10689],[999,10773],[999,10856],[999,10940],[999,11023],[999,11107],[999,11190],[999,11274],[999,11357],[999,11445],[999,11524],[999,11612],[999,11692],[999,11775],[999,11862],[999,11942],[999,12029],[999,12109],[999,12192],[999,12280],[999,12360],[999,12443],[999,12527],[999,12610],[999,12694],[999,12777],[999,12861],[999,12944],[999,13028],[999,13115],[999,13195],[999,13282],[999,13362],[999,13449],[999,13533],[999,13613],[999,13701],[999,13783],[5.2,13872],[5,13946],[5.1,14030],[5.1,14117],[5.1,14197],[5.1,14284],[5.1,14364],[8.7,14452],[9,14531],[9.2,14615],[9.3,14703],[9.3,14782],[9.3,14870],[9.3,14949],[9.3,15032],[8.8,15120],[8.8,15199],[8.8,15283],[8.7,15370],[8.7,15450],[8.7,15538],[8.7,15617],[8.7,15704],[8.7,15784],[8.7,15872],[8.5,15957],[8.5,16034],[8.4,16122],[8.4,16201],[8.3,16285],[8,16373],[8,16455],[8,16536],[7.9,16623],[7.7,16703],[7.5,16787],[7.3,16874],[7.1,16953],[7,17037],[6.9,17120],[6.6,17208],[6.6,17292],[6.4,17371],[6.4,17454],[6.4,17542],[6.4,17622],[6.4,17705],[6.3,17788],[6.3,17872],[6.3,17959],[6.3,18043],[6.3,18127],[6.3,18206],[6.3,18289],[6.3,18373],[6.3,18457],[6.3,18540],[6.3,18624],[6.3,18707],[6.3,18791],[6.3,18874],[6.3,18962],[6.3,19041],[6.3,19125],[6.3,19212],[6.3,19292],[6.3,19375],[6.3,19459],[6.3,19542],[6.3,19626],[6.3,19713],[6.3,19797],[6.3,19876],[6.3,19960],[6.3,20047],[6.3,20127],[6.3,20211],[6.3,20298],[6.3,20377],[6.3,20461],[5.9,20548],[5.9,20628],[5.9,20711],[5.9,20795],[5.9,20878],[5.9,20962],[5.9,21049],[5.9,21129],[5.9,21213],[5.9,21296],[5.9,21380],[5.9,21463],[5.9,21547],[5.9,21634],[5.9,21714],[5.9,21797],[5.9,21881],[5.9,21968],[5.9,22048],[5.9,22131],[5.9,22215],[5.9,22299],[5.9,22382],[5.9,22465],[5.9,22549],[5.9,22633],[5.9,22716],[5.9,22804],[5.9,22883],[5.9,22967],[5.9,23050],[5.9,23138],[5.9,23217],[5.9,23301],[5.9,23384],[5.9,23467],[5.9,23551],[5.9,23639],[5.9,23718],[5.9,23802],[5.9,23885],[5.9,23969],[5.9,24052],[5.9,24140],[5.9,24219],[5.9,24303],[5.9,24391],[5.7,24474],[5.5,24553],[5.5,24637],[5.5,24721],[5.5,24804],[5.5,24887],[5.5,24975],[5.5,25054],[5.5,25138],[5.5,25226],[5.5,25305],[5.5,25388],[5.5,25472],[5.5,25556],[5.5,25639],[5.5,25723],[5.5,25809],[5.5,25890],[5.5,25973],[5.5,26061],[6.2,26140],[5.9,26224],[5.6,26307],[5.6,26391],[5.6,26474],[5.6,26558],[5.6,26646],[5.6,26725],[5.6,26808],[5.6,26892],[5.6,26976],[5.6,27059],[5.6,27147],[5.6,27226],[5.6,27310],[5.6,27397],[5.6,27476],[5.6,27560],[5.6,27644],[5.6,27727],[5.6,27811],[5.6,27894],[5.6,27982],[5.6,28061],[5.6,28145],[5.6,28228],[5.6,28312],[5.6,28395],[5.6,28479],[5.6,28563],[5.6,28646],[5.6,28730],[5.6,28817],[5.6,28896],[5.6,28980],[5.6,29064],[5.6,29147],[5.6,29234],[5.6,29314],[5.6,29398],[5.6,29481],[5.6,29564],[5.6,29648],[5.6,29732],[5.6,29815],[5.6,29899],[5.6,29986],[5.6,30066],[5.6,30153],[5.6,30233],[5.6,30316],[5.6,30400],[5.6,30483],[5.6,30567],[5.6,30654],[5.6,30734],[4.8,30839],[3,30918],[3,31001],[2.9,31085],[2.9,31168],[2.9,31252],[2.9,31335],[2.9,31419],[2.9,31502],[2.9,31586],[2.9,31669],[2.9,31753],[2.9,31836]]",0,0,0,0,1,"Larry had recently lost his family, job and home, and was now living on his own in the park. He had most of his belongings, including some clothes, a blanket, and his mother’s special necklace. His family had been very important to him and he felt as though he did not have much going for him. One of his first days in the park he came across a family that did not have much food and looked very cold. He decided to give them some of his food and his blanket.","Larry had recently lost his family, job and home, and was now living on his own in the park. He had most of his belongings, including some clothes, a blanket, and his mother’s special necklace. His family had been very important to him and he felt as though he did not have much going for him. One of his first days in the park he came across a family that did not have much food and looked very cold. He decided to give them some of his food and his blanket.","Larry had recently lost his family, job and home, and was now living on his own in the park. He had most of his belongings, including some clothes, a blanket, and his mother’s special necklace. His family had been very important to him and he felt as though he did not have much going for him. One of his first days in the park he came across a family that did not have much food and looked very cold. He decided to give them some of his food and his blanket.","Larry had recently lost his family, job and home, and was now living on his own in the park. He had most of his belongings, including some clothes, a blanket, and his mother’s special necklace. His family had been very important to him and he felt as though he did not have much going for him. One of his first days in the park he came across a family that did not have much food and looked very cold. He decided to give them some of his food and his blanket.",,,,,,,,
,,,,,,663e5e89d602aa442c7b2845,2024-05-13_10h45.24.619,group3.1-3.2-social-tom,2023.2.2,Win32,59.88023952,65c5074098b851296ff0b7ed,66423307085dc23876366c40,,,,,,,,,,,,,,,,,,,,,,,,,,,,,1465.6309,1,audio/Narrative7Situation9.wav,1573.3353,space,,,,,,1597.2541,1601.7698,1.171875,3.4466,"[{""rating"":1.171875,""responseTime"":3.4466000000238637}]",space,3.9753,,1597.2226,Definitely yes,100,1597.2539,,,[],,,,,,,,,,,6,2,3,9,107.6762,,,,,,,,,,,,,,,,1573.3353,3,1597.2224,"[[999,6],[999,83],[999,167],[999,250],[999,334],[999,417],[999,501],[999,585],[999,668],[999,751],[999,835],[999,919],[999,1002],[999,1085],[999,1169],[999,1252],[999,1336],[999,1419],[999,1503],[999,1587],[999,1670],[999,1754],[999,1837],[999,1920],[999,2004],[999,2088],[999,2171],[999,2255],[999,2338],[999,2422],[999,2505],[999,2589],[999,2672],[999,2756],[999,2839],[999,2923],[999,3007],[999,3090],[999,3173],[999,3257],[999,3341],[999,3424],[999,3508],[999,3591],[999,3675],[999,3758],[999,3842],[999,3925],[999,4009],[999,4092],[999,4176],[999,4259],[999,4343],[999,4426],[999,4510],[999,4593],[999,4677],[999,4760],[999,4844],[999,4927],[999,5011],[999,5094],[999,5178],[999,5261],[999,5345],[999,5428],[999,5512],[999,5596],[999,5679],[999,5763],[999,5846],[999,5930],[999,6013],[999,6097],[999,6180],[999,6264],[999,6347],[999,6431],[999,6514],[999,6598],[999,6681],[999,6765],[999,6848],[999,6932],[999,7015],[999,7099],[999,7182],[999,7266],[999,7349],[999,7433],[999,7516],[999,7600],[999,7683],[999,7767],[999,7851],[999,7934],[999,8017],[999,8101],[999,8185],[999,8268],[999,8352],[999,8435],[999,8519],[999,8602],[999,8686],[999,8769],[999,8853],[999,8936],[999,9020],[999,9103],[999,9187],[999,9270],[999,9354],[999,9438],[999,9521],[999,9604],[999,9688],[999,9772],[999,9855],[999,9939],[999,10022],[999,10105],[999,10189],[999,10272],[999,10356],[999,10439],[999,10523],[999,10607],[999,10690],[999,10774],[999,10857],[999,10941],[999,11024],[999,11108],[999,11191],[999,11275],[999,11359],[999,11442],[999,11525],[999,11609],[999,11692],[999,11776],[999,11860],[999,11943],[999,12026],[999,12110],[999,12194],[999,12277],[999,12360],[999,12444],[999,12528],[999,12611],[999,12695],[999,12778],[999,12862],[999,12945],[999,13029],[999,13112],[999,13196],[999,13279],[999,13363],[999,13446],[999,13530],[999,13613],[999,13697],[999,13780],[999,13864],[999,13948],[999,14031],[999,14114],[999,14198],[999,14282],[999,14365],[999,14448],[999,14532],[999,14615],[999,14699],[999,14783],[999,14866],[999,14950],[999,15033],[999,15117],[999,15200],[999,15284],[999,15367],[999,15451],[999,15534],[999,15618],[999,15701],[999,15785],[999,15868],[999,15952],[999,16036],[999,16119],[999,16202],[999,16286],[999,16370],[999,16453],[999,16537],[999,16620],[999,16703],[999,16787],[999,16871],[999,16954],[999,17037],[999,17121],[999,17205],[999,17288],[999,17372],[999,17455],[999,17539],[999,17622],[999,17706],[999,17789],[999,17873],[999,17957],[999,18040],[999,18123],[999,18207],[999,18290],[999,18374],[999,18458],[999,18541],[999,18625],[999,18708],[999,18792],[999,18875],[999,18959],[999,19042],[999,19126],[999,19209],[999,19293],[999,19376],[999,19460],[999,19543],[999,19627],[999,19710],[999,19794],[999,19878],[999,19961],[999,20044],[999,20128],[999,20211],[999,20295],[999,20378],[999,20462],[999,20546],[999,20629],[999,20713],[999,20796],[999,20880],[999,20963],[999,21047],[999,21130],[999,21214],[999,21297],[999,21381],[999,21464],[999,21548],[999,21631],[999,21715],[999,21798],[999,21882],[999,21966],[999,22049],[999,22133],[999,22216],[999,22300],[999,22383],[999,22466],[999,22550],[999,22634],[999,22717],[999,22800],[999,22884],[999,22968],[999,23051],[999,23135],[999,23218],[999,23302],[999,23385],[999,23469],[999,23552],[999,23636],[999,23719],[999,23803],[999,23886]]",0,1,1,1,1,"It was just another Sunday afternoon for Lucy, she was on her way to the farmer's market to pick up some produce. When she arrived at the old train depot that housed the market, she noticed two men fighting on the steps. Before she could call for help, one of the men crumpled to his knees. The other man dropped an object that appeared to be a knife and ran off. When Lucy approached the crime scene she realized that the man who had been murdered was the Mayor and that he had a gunshot wound.","One day at work, Margaret walked up to her partner, Al, to ask him to talk to the chief of staff at the local hospital where she worked as a nurse.","Luke always thought of himself as an honest man. That's why during his evening jog around the swamp, he pondered his recent affair with the receptionist at work. Luke looked up at the sky and asked God why he was so weak and unfaithful. He thought of the impact this would have on his family and told God of his conflicted feelings toward telling his wife Marta.","Linda and Amy had been best friends since kindergarten, they even found homes on the same street in the forest on the edge of town. Their biggest fight had been over who gets the bigger slice of cake, until Amy married Dan. Linda loathed Dan, she thought he was manipulative and had a violent temper. She only put up with him because Amy loved him. ",,,,,,,,
,,,,,,663e5e89d602aa442c7b2845,2024-05-13_10h45.24.619,group3.1-3.2-social-tom,2023.2.2,Win32,59.88023952,65c5074098b851296ff0b7ed,66423307085dc23876366c40,,,,,,,,,,,,,,,,,,,,,,,,,,,,,1601.77,1,audio/Narrative7Situation9.wav,1606.777,,,,,,,1633.0213,1636.7982,96.40625715,2.826,"[{""rating"":96.40625715255737,""responseTime"":2.826000000000022}]",space,3.2404,,1633.0024,Definitely yes,100,1633.0213,,,[],,,,,,,,,,,4,5,2,2,,,,,,,,,,,,,,,,,1606.7771,3,1633.0023,[],0,2,2,2,1,On the ground beside him was a pen that she had mistaken for a knife. Lucy looked for the gunman and saw a suspicious man in black with distinct pointy features darting into an alley across the street. Cops who were nearby chased the man who had fled and arrested him.,"While waiting outside the chief of staff's office, Al heard nondescript shouting and yelling, there was a loud clatter in the room and then an eerie silence. An unfamiliar employee ran hastily out of the office with a terrified look on their face.","Suddenly, Luke heard a woman call out his name and when he turned around he saw Carly, his receptionist, across the road with a gun in her hand. Carly ran to him and explained how she had followed him here to confess her love. She exclaimed if Luke didn't love her back that she would kill him and his family. Carly explained that the only way they could be together is to kill Marta.","This feeling of hate between Amy and Dan was mutual, Dan didn't like how much time his wife spent with her and thought Amy was creating distance between their marriage. That's why Dan decided to try and tarnish Linda's reputation with his wife, in hopes it would get rid of her. He came home one afternoon and exclaimed that Linda had tried to kiss him. Amy was taken aback and immediately called Linda to confront her about these accusations. When Linda arrived she denied having made a move on Dan, but discovered Dan had enlisted the help of his friend Will who said he witnessed it all happen.",,,,,,,,
,,,,,,663e5e89d602aa442c7b2845,2024-05-13_10h45.24.619,group3.1-3.2-social-tom,2023.2.2,Win32,59.88023952,65c5074098b851296ff0b7ed,66423307085dc23876366c40,,,,,,,,,,,,,,,,,,,,,,,,,,,,,1636.7984,1,audio/Narrative7Situation9.wav,1638.7986,,,,,,,1661.3582,1665.6751,3.593748808,3.4544,"[{""rating"":3.5937488079071045,""responseTime"":3.4544000000357755}]",space,3.7802,,1661.3515,Partially,50,1661.3582,,,[],,,,,,,,,,,2,2,1,4,,,,,,,,,,,,,,,,,1638.7986,3,1661.3514,[],0,3,3,3,1,"But Lucy knew the charged man was innocent, which meant the killer was free. Lucy vowed to find out who the real murderer was and to stop him at all costs.","Al explained to the chief of staff that Margaret wanted to be excused from her absences last week. The chief of staff, Susan, revealed that she wanted to fire Margaret and never see her again. Susan and Al had been having an affair and she wanted Margaret ""out of the picture"". Al was conflicted, but agreed it would be for the best.","Luke thought of his child and felt like this was his only option. He agreed to the plan and called his wife to meet him at the swamp to watch the sunset with him. When she arrived, Marta called out for her husband, but found Carly waiting for her. She immediately drew her gun and shot her in the chest, knocking her unconscious.","Since it was their word against her own, she decided to go home and admit defeat. She knew how much it would hurt Amy to know the truth.",,,,,,,,
,,,,,,663e5e89d602aa442c7b2845,2024-05-13_10h45.24.619,group3.1-3.2-social-tom,2023.2.2,Win32,59.88023952,65c5074098b851296ff0b7ed,66423307085dc23876366c40,,,,,,,,,,,,,,,,,,,,,,,,,,,,,1665.6756,1,audio/Narrative7Situation9.wav,1666.6813,,,,,,,1689.2503,1692.0046,2.500003576,1.4721,"[{""rating"":2.5000035762786865,""responseTime"":1.4720999999642572}]",space,2.2054,,1689.2441,Partially,50,1689.2503,,,[],,,,,,,,,,,1,1,3,3,,,,,,,,,,,,,,,,,1666.6813,3,1689.2441,[],0,4,4,4,1,"The next day the mayors successor, Mr. Smith, a man who was very unpopular due to his strong ties to the oil companies, took office. After a long day of brainstorming about the mysterious killer, Lucy decided to attend his welcome ceremony in the city. During the mayor's speech, she noticed one of the security guards looked strangely familiar. It dawned on her that this new mayor had motive to kill and that the man in black could've been the guard working for him.","Weeks passed and nobody had seen Margaret. Coworkers and friends searched the nearby city looking for her. One day on patrol in a nearby town, a police officer heard someone crying for help in the basement of a house and went in to investigate. Margaret yelled that she was being held captive and needed help.","Luke ran to Marta, and filled with regret over his decision to go along with Carly's plan, picked her up and rushed her to the hospital. The doctors tried to help Marta by taking her into emergency surgery but failed to save her life. Once the doctor called the time of death, Luke fell to his knees and sobbed over his rash decision.","Months later Dan had taken up a mistress, he was growing bored with his marriage ever since he got rid of Linda and was only still with Amy for her family's money. In a hotel room in a nearby town, Dan and his mistress, Nicole, conspired to secretly kill Amy while still obtaining her fortune.",,,,,,,,
