exp_question,consent.started,consent.stopped,consentResponse.keys,consentResponse.rt,consentResponse.duration,participantID,date,expName,psychopyVersion,OS,frameRate,STUDY_ID,SESSION_ID,opening1.started,opening1.stopped,keyEndingOpening1.keys,keyEndingOpening1.rt,keyEndingOpening1.duration,volumeAdjust.started,volumeAdjust.stopped,endingAdjust.keys,endingAdjust.rt,endingAdjust.duration,opening2.started,opening2.stopped,keyEndingOpening.keys,keyEndingOpening.rt,keyEndingOpening.duration,mouse.x,mouse.y,mouse.leftButton,mouse.midButton,mouse.rightButton,mouse.time,instructionLoop.thisRepN,instructionLoop.thisTrialN,instructionLoop.thisN,instructionLoop.thisIndex,instructionLoop.ran,readyForAudio.started,readyForAudio.stopped,fixation.started,run,audio_played,fixation.stopped,endPractice.keys,audioPre.started,audioPre.stopped,continuousResponses_audio,continuousSlider.response,continuousSlider.rt,intRating.started,intRating.stopped,intQuestionSlider.response,intQuestionSlider.rt,intQuestionSlider.history,confirmResponse.keys,confirmResponse.rt,confirmResponse.duration,catchQuestion.started,catch_label,catch_value,catchQuestion.stopped,catchQuestionSlider.response,catchQuestionSlider.rt,catchQuestionSlider.history,confirmResponse_2.keys,audioRunLoop.thisRepN,audioRunLoop.thisTrialN,audioRunLoop.thisN,audioRunLoop.thisIndex,audioRunLoop.ran,conditions1_1,conditions2_1,conditions1_2,conditions2_2,dur1_1,dur2_1,dur1_2,dur2_2,endPractice.rt,endPractice.duration,confirmResponse_2.rt,confirmResponse_2.duration,runIntervalBreak.started,runIntervalBreak.stopped,endingBreakKey.keys,endingBreakKey.rt,endingBreakKey.duration,connection.started,connection.stopped,connectionEnding.keys,connectionEnding.rt,connectionEnding.duration,readyForText.started,readyForText.stopped,textPre.started,run_dup,textPre.stopped,continuousResponses_text,textRunLoop.thisRepN,textRunLoop.thisTrialN,textRunLoop.thisN,textRunLoop.thisIndex,textRunLoop.ran,text1_1,text1_2,text2_1,text2_2,runBreakText.started,runBreakText.stopped,endingBreakKey_2.keys,ending.started,ending.stopped,endingEnding.keys,endingEnding.rt,endingEnding.duration
social,0.0004,8.6383,y,8.3057,,664156baa6d54764ead4be7c,2024-05-13_11h45.08.476,group3.1-3.2-social-tom,2023.2.2,MacIntel,59.97361161,65c5074098b851296ff0b7ed,6642354db975e8c5f7c2a7c2,,,,,,,,,,,,,,,,,,,,,,,,,,,,,,,,,,,,,,,,,,,,,,,,,,,,,,,,,,,,,,,,,,,,,,,,,,,,,,,,,,,,,,,,,,,,,,,,,,,,,,,,
,,,,,,664156baa6d54764ead4be7c,2024-05-13_11h45.08.476,group3.1-3.2-social-tom,2023.2.2,MacIntel,59.97361161,65c5074098b851296ff0b7ed,6642354db975e8c5f7c2a7c2,8.6386,12.3568,space,3.6867,,,,,,,,,,,,,,,,,,,,,,,,,,,,,,,,,,,,,,,,,,,,,,,,,,,,,,,,,,,,,,,,,,,,,,,,,,,,,,,,,,,,,,,,,,,,,,,,,,,,
,,,,,,664156baa6d54764ead4be7c,2024-05-13_11h45.08.476,group3.1-3.2-social-tom,2023.2.2,MacIntel,59.97361161,65c5074098b851296ff0b7ed,6642354db975e8c5f7c2a7c2,,,,,,12.357,27.7484,space,15.0641,,,,,,,,,,,,,,,,,,,,,,,,,,,,,,,,,,,,,,,,,,,,,,,,,,,,,,,,,,,,,,,,,,,,,,,,,,,,,,,,,,,,,,,,,,,,,,,
,,,,,,664156baa6d54764ead4be7c,2024-05-13_11h45.08.476,group3.1-3.2-social-tom,2023.2.2,MacIntel,59.97361161,65c5074098b851296ff0b7ed,6642354db975e8c5f7c2a7c2,,,,,,,,,,,27.7544,37.5195,space,9.7345,,[],[],[],[],[],[],0,0,0,0,1,,,,,,,,,,,,,,,,,,,,,,,,,,,,,,,,,,,,,,,,,,,,,,,,,,,,,,,,,,,,,,,,,,,,,,,,,,,,,,
,,,,,,664156baa6d54764ead4be7c,2024-05-13_11h45.08.476,group3.1-3.2-social-tom,2023.2.2,MacIntel,59.97361161,65c5074098b851296ff0b7ed,6642354db975e8c5f7c2a7c2,,,,,,,,,,,37.5207,47.5396,space,9.8853,,[],[],[],[],[],[],1,0,1,0,1,,,,,,,,,,,,,,,,,,,,,,,,,,,,,,,,,,,,,,,,,,,,,,,,,,,,,,,,,,,,,,,,,,,,,,,,,,,,,,
,,,,,,664156baa6d54764ead4be7c,2024-05-13_11h45.08.476,group3.1-3.2-social-tom,2023.2.2,MacIntel,59.97361161,65c5074098b851296ff0b7ed,6642354db975e8c5f7c2a7c2,,,,,,,,,,,47.5506,63.7317,space,16.1243,,[],[],[],[],[],[],2,0,2,0,1,,,,,,,,,,,,,,,,,,,,,,,,,,,,,,,,,,,,,,,,,,,,,,,,,,,,,,,,,,,,,,,,,,,,,,,,,,,,,,
,,,,,,664156baa6d54764ead4be7c,2024-05-13_11h45.08.476,group3.1-3.2-social-tom,2023.2.2,MacIntel,59.97361161,65c5074098b851296ff0b7ed,6642354db975e8c5f7c2a7c2,,,,,,,,,,,63.756,111.4869,space,47.6984,,[],[],[],[],[],[],3,0,3,0,1,,,,,,,,,,,,,,,,,,,,,,,,,,,,,,,,,,,,,,,,,,,,,,,,,,,,,,,,,,,,,,,,,,,,,,,,,,,,,,
,,,,,,664156baa6d54764ead4be7c,2024-05-13_11h45.08.476,group3.1-3.2-social-tom,2023.2.2,MacIntel,59.97361161,65c5074098b851296ff0b7ed,6642354db975e8c5f7c2a7c2,,,,,,,,,,,111.4981,116.0058,space,4.4861,,[],[],[],[],[],[],4,0,4,0,1,,,,,,,,,,,,,,,,,,,,,,,,,,,,,,,,,,,,,,,,,,,,,,,,,,,,,,,,,,,,,,,,,,,,,,,,,,,,,,
,,,,,,664156baa6d54764ead4be7c,2024-05-13_11h45.08.476,group3.1-3.2-social-tom,2023.2.2,MacIntel,59.97361161,65c5074098b851296ff0b7ed,6642354db975e8c5f7c2a7c2,,,,,,,,,,,,,,,,,,,,,,,,,,,116.0249,118.6078,118.6364,1,audio/Narrative13Situation2.wav,120.6408,,120.641,150.4068,"[[67.3,7607],[50,8103],[50,8185],[50,8269],[44.8,8353],[41.5,8437],[39.3,8519],[38.1,8603],[38,8686],[38,8769],[37.9,8853],[36.8,8937],[36.3,9020],[36.2,9103],[36.2,9187],[36.2,9270],[36.2,9354],[37.6,9440],[48.7,9521],[58.4,9604],[62.2,9690],[68.3,9772],[75.6,9855],[82.3,9938],[84.8,10020],[89.3,10105],[94.6,10188],[96.3,10270],[97.1,10355],[98.4,10438],[98.7,10522],[98.7,10605],[98.7,10688],[98.7,10771],[98.7,10854],[98.7,10937],[98.7,11021],[98.7,11106],[98.7,11187],[98.7,11272],[98.7,11355],[98.7,11438],[98.7,11522],[98.7,11604],[98.7,11689],[98.7,11771],[98.7,11854],[98.7,11938],[98.7,12023],[98.7,12105],[98.7,12189],[98.7,12272],[98.7,12356],[98.7,12439],[98.7,12522],[98.7,12606],[98.7,12689],[98.7,12773],[98.7,12855],[98.7,12938],[98.7,13023],[98.7,13105],[98.7,13189],[98.7,13273],[98.7,13356],[98.7,13439],[98.7,13523],[98.7,13606],[98.7,13690],[98.7,13773],[98.7,13855],[98.7,13940],[98.7,14023],[98.7,14105],[98.7,14190],[98.7,14273],[98.7,14356],[98.7,14440],[98.7,14524],[98.7,14606],[98.7,14690],[98.7,14772],[98.7,14856],[98.7,14939],[98.7,15024],[98.7,15106],[98.7,15189],[98.7,15273],[98.7,15357],[98.7,15439],[98.7,15523],[98.7,15608],[98.7,15691],[98.7,15773],[98.7,15858],[98.7,15942],[98.7,16023],[98.7,16107],[98.7,16191],[98.7,16273],[98.7,16356],[98.7,16441],[98.7,16523],[98.7,16607],[98.7,16690],[98.7,16773],[98.7,16857],[98.7,16941],[98.7,17024],[98.7,17108],[98.7,17190],[98.7,17274],[98.7,17358],[98.7,17441],[97.6,17524],[90.2,17609],[7.7,18358],[6.5,18441],[6.1,18525],[5,18608],[4.1,18691],[3.8,18775],[2.9,18859],[2.9,18941],[2.9,19025],[2.9,19108],[2.9,19192],[2.9,19275],[2.9,19358],[2.9,19442],[2.9,19525],[2.9,19608],[2.9,19693],[2.9,19776],[2.9,19859],[2.9,19943],[2.9,20026],[2.9,20108],[2.9,20193],[2.9,20275],[2.9,20359],[2.9,20442],[2.9,20525],[2.9,20609],[2.9,20693],[2.9,20775],[2.9,20859],[2.9,20942],[2.9,21025],[2.9,21110],[2.9,21193],[2.9,21276],[2.9,21359],[2.9,21442],[2.9,21526],[2.9,21610],[2.9,21692],[2.9,21777],[2.9,21859],[2.9,21942],[2.9,22026],[2.9,22109],[2.9,22193],[2.9,22277],[2.9,22359],[2.9,22444],[2.9,22527],[2.9,22609],[2.9,22693],[2.9,22777],[2.9,22859],[2.9,22943],[2.9,23028],[2.9,23110],[2.9,23193],[2.9,23276],[2.9,23360],[2.9,23443],[2.9,23527],[2.9,23609],[2.9,23694],[2.9,23777],[2.9,23860],[2.9,23943],[2.9,24027],[2.9,24110],[2.9,24194],[2.9,24277],[2.9,24360],[2.9,24444],[2.9,24526],[2.9,24610],[2.9,24694],[2.9,24777],[2.9,24861],[2.9,24944],[2.9,25027],[2.9,25110],[2.9,25195],[2.9,25277],[2.9,25362],[2.9,25445],[2.9,25527],[2.9,25612],[2.9,25694],[2.9,25778],[2.9,25862],[2.9,25944],[2.9,26028],[2.9,26112],[2.9,26196],[2.9,26277],[2.9,26361],[2.9,26460],[2.9,26528],[2.9,26612],[2.9,26695],[2.9,26780],[2.9,26869],[2.9,26946],[2.9,27029],[2.9,27112],[2.9,27195],[2.9,27278],[2.9,27363],[2.9,27446],[2.9,27530],[2.9,27612],[2.9,27696],[2.9,27779],[2.9,27862],[2.9,27945],[2.9,28029],[2.9,28113],[2.9,28197],[2.9,28279],[2.9,28362],[2.9,28445],[2.9,28529],[2.9,28614],[2.9,28696],[2.9,28780],[2.9,28863],[2.9,28946],[2.9,29030],[2.9,29113],[2.9,29196],[2.9,29280],[2.9,29364],[2.9,29447],[2.9,29531],[2.9,29614],[2.9,29698]]",1,0,150.4078,157.6761,44.30114746,4.7793,"[{""rating"":44.3011474609375,""responseTime"":4.779299999952315}]",space,6.7191,,157.6763,Definitely yes,100,157.6836,,,[],,0,0,0,0,1,audio/Narrative13Situation2.wav,audio/Narrative13Situation2.wav,audio/Narrative13Situation2.wav,audio/Narrative13Situation2.wav,2,2,2,2,,,,,,,,,,,,,,,,,,,,,,,,,,,,,,,,,,,,,
,,,,,,664156baa6d54764ead4be7c,2024-05-13_11h45.08.476,group3.1-3.2-social-tom,2023.2.2,MacIntel,59.97361161,65c5074098b851296ff0b7ed,6642354db975e8c5f7c2a7c2,,,,,,,,,,,,,,,,,,,,,,,,,,,,,157.6841,1,audio/Narrative8Situation1.wav,160.1765,space,160.1765,176.1173,"[[999,1],[999,83],[999,166],[999,249],[999,332],[999,417],[999,500],[999,583],[999,666],[999,751],[999,833],[999,917],[999,999],[999,1084],[999,1166],[999,1249],[999,1334],[999,1416],[999,1502],[999,1584],[999,1666],[999,1750],[999,1833],[999,1916],[999,2000],[999,2084],[999,2168],[999,2266],[999,2350],[999,2433],[999,2518],[999,2600],[999,2683],[999,2766],[999,2850],[999,2934],[999,3016],[999,3100],[999,3184],[15.8,3267],[15.8,3351],[14.2,3433],[9.5,3517],[8.1,3602],[7.9,3683],[7.9,3769],[8.3,3851],[8.3,3934],[7.6,4018],[6.9,4101],[6.9,4184],[6.8,4269],[6.8,4351],[6.6,4436],[6.5,4518],[6.5,4601],[6.6,4686],[6.8,4769],[6.8,4851],[6.8,4934],[6.8,5019],[8.7,5101],[17.6,5185],[28.8,5268],[31.3,5352],[31.3,5435],[31.8,5518],[34.2,5602],[35,5685],[35,5769],[35,5851],[35,5935],[35,6018],[35,6101],[35,6185],[35,6268],[35,6352],[35,6435],[35,6518],[35,6602],[35,6686],[35,6769],[35,6853],[35,6935],[35,7018],[35,7102],[35,7186],[35,7269],[35,7352],[35,7435],[35,7519],[35,7603],[35,7685],[35,7770],[35,7853],[35,7936],[35,8019],[35,8104],[35,8186],[35,8269],[35,8353],[35,8436],[35,8519],[35,8604],[35,8686],[35,8769],[35,8854],[35,8937],[35,9020],[35,9103],[35,9186],[35,9271],[35,9353],[44.7,9437],[76.8,9520],[100,9938],[100,10022],[100,10104],[100,10188],[100,10272],[100,10355],[100,10439],[100,10521],[100,10605],[100,10688],[100,10771],[100,10855],[100,10938],[100,11022],[100,11104],[100,11189],[100,11272],[100,11354],[100,11439],[100,11522],[100,11606],[100,11688],[100,11796],[100,11880],[100,11955],[100,12038],[100,12121],[100,12206],[100,12289],[100,12372],[100,12456],[100,12539],[100,12621],[100,12706],[100,12790],[100,12873],[100,12957],[100,13039],[100,13122],[100,13205],[100,13289],[100,13373],[100,13456],[100,13540],[100,13622],[100,13706],[100,13789],[100,13873],[100,13955],[100,14039],[100,14123],[100,14206],[100,14289],[100,14373],[100,14456],[100,14540],[100,14622],[100,14707],[100,14790],[100,14874],[100,14956],[100,15041],[100,15122],[100,15206],[100,15289],[100,15373],[100,15456],[100,15540],[100,15623],[100,15707],[100,15790],[100,15873]]",1,0,176.1175,206.5654,69.03137207,5.4326,"[{""rating"":69.0313720703125,""responseTime"":5.432600000023854}]",space,29.9135,,206.5654,Definitely yes,100,214.6514,100,6.6821,"[{""rating"":98.9813232421875,""responseTime"":4.932299999952335},{""rating"":100,""responseTime"":6.682100000023837}]",space,0,1,1,1,1,audio/Narrative7Situation1.wav,audio/Narrative8Situation1.wav,audio/Narrative5Situation1.wav,audio/Narrative6Situation1.wav,2,5,5,2,2.4642,,7.5506,,,,,,,,,,,,,,,,,,,,,,,,,,,,,,,,,,
,,,,,,664156baa6d54764ead4be7c,2024-05-13_11h45.08.476,group3.1-3.2-social-tom,2023.2.2,MacIntel,59.97361161,65c5074098b851296ff0b7ed,6642354db975e8c5f7c2a7c2,,,,,,,,,,,,,,,,,,,,,,,,,,,,,214.6519,1,audio/Narrative8Situation2.wav,217.6531,,217.6532,227.7759,"[[999,1],[999,83],[999,166],[999,250],[999,332],[999,417],[999,500],[999,583],[999,666],[999,749],[999,833],[999,916],[999,1000],[999,1083],[999,1167],[999,1251],[999,1333],[999,1416],[999,1500],[999,1583],[999,1667],[999,1751],[999,1833],[999,1916],[999,2000],[999,2085],[24.4,2167],[24.4,2250],[23.5,2334],[22,2418],[21.2,2502],[18.4,2584],[10.5,2668],[5.8,2752],[5.7,2835],[5.7,2918],[5.7,3001],[5.7,3084],[5.2,3168],[3.7,3253],[3,3336],[2.7,3419],[2.6,3501],[2.6,3586],[2.5,3669],[2.3,3753],[2.3,3836],[2.3,3919],[2.3,4001],[2.3,4085],[2.3,4169],[2.3,4253],[2.3,4334],[2.3,4418],[2.3,4502],[2.3,4586],[2.3,4669],[2.3,4752],[2.3,4835],[2.3,4918],[2.3,5003],[2.3,5087],[2.3,5169],[2.3,5252],[2.3,5336],[2.3,5419],[2.3,5502],[2.3,5586],[2.3,5670],[2.3,5753],[2.3,5836],[2.3,5920],[2.3,6003],[2.3,6086],[2.3,6170],[2.3,6253],[2.3,6336],[2.3,6420],[2.3,6503],[2.3,6587],[2.3,6669],[2.3,6753],[2.3,6837],[2.3,6920],[2.3,7003],[2.3,7087],[2.3,7169],[2.3,7253],[2.3,7337],[2.3,7423],[2.3,7504],[2.3,7587],[2.3,7671],[2.3,7753],[2.3,7837],[2.3,7920],[2.3,8003],[2.3,8087],[2.3,8170],[2.3,8254],[2.3,8337],[2.3,8421],[2.3,8504],[2.3,8587],[2.3,8671],[2.3,8754],[2.3,8838],[2.3,8921],[2.3,9003],[2.3,9088],[2.3,9170],[2.3,9255],[2.3,9337],[2.3,9420],[2.3,9505],[2.3,9589],[2.3,9671],[2.3,9755],[2.3,9837],[2.3,9921],[2.3,10005],[2.3,10087]]",1,0,227.7763,234.8782,6.098632812,5.5017,"[{""rating"":11.839599609375002,""responseTime"":4.749200000047665},{""rating"":6.098632812499999,""responseTime"":5.501700000047663}]",space,6.5542,,234.8783,Definitely yes,100,234.8812,,,[],,0,2,2,2,1,audio/Narrative7Situation2.wav,audio/Narrative8Situation2.wav,audio/Narrative5Situation2.wav,audio/Narrative6Situation2.wav,3,3,3,3,,,,,,,,,,,,,,,,,,,,,,,,,,,,,,,,,,,,,
,,,,,,664156baa6d54764ead4be7c,2024-05-13_11h45.08.476,group3.1-3.2-social-tom,2023.2.2,MacIntel,59.97361161,65c5074098b851296ff0b7ed,6642354db975e8c5f7c2a7c2,,,,,,,,,,,,,,,,,,,,,,,,,,,,,234.8815,1,audio/Narrative8Situation3.wav,238.8962,,238.8963,261.275,"[[999,12],[999,84],[999,166],[999,250],[999,333],[999,416],[999,499],[999,583],[999,667],[999,751],[999,833],[999,918],[999,1001],[999,1084],[999,1168],[999,1251],[999,1335],[999,1418],[999,1501],[999,1585],[999,1667],[999,1752],[999,1835],[999,1917],[999,2001],[999,2085],[999,2168],[999,2251],[999,2335],[999,2419],[7.7,2503],[6.9,2586],[5.6,2668],[2.8,2751],[2.3,2836],[2.9,2919],[49,3085],[49.3,3168],[49.3,3251],[49.3,3334],[49.3,3420],[49.9,3502],[52.2,3586],[56.9,4086],[57.9,4168],[59,4252],[59,4336],[59.1,4421],[60.6,4503],[60.6,4586],[60.5,4669],[59.9,4754],[59.9,4837],[59.9,4920],[59.9,5003],[59.9,5087],[59.9,5169],[59.9,5252],[59.9,5335],[59.9,5419],[59.9,5503],[59.9,5585],[59.9,5670],[59.9,5753],[59.9,5837],[59.9,5920],[59.9,6004],[59.9,6086],[59.9,6170],[59.9,6253],[59.9,6336],[59.9,6420],[59.9,6503],[59.9,6587],[59.9,6670],[59.9,6753],[59.9,6838],[59.9,6921],[59.9,7004],[59.9,7086],[59.9,7169],[59.9,7254],[59.9,7338],[59.9,7420],[59.9,7503],[59.9,7587],[59.9,7670],[59.9,7754],[59.9,7837],[59.9,7921],[59.9,8005],[59.9,8088],[59.9,8171],[59.9,8254],[59.9,8338],[59.9,8421],[59.9,8505],[59.9,8587],[61.9,8675],[69.3,8754],[78.1,8837],[82.6,8921],[89.9,9005],[98,9088],[100,9171],[100,9255],[100,9337],[100,9421],[100,9505],[100,9588],[100,9671],[100,9755],[100,9838],[100,9922],[100,10005],[100,10090],[100,10171],[100,10255],[100,10339],[100,10422],[100,10506],[100,10589],[100,10671],[100,10756],[100,10838],[100,10922],[100,11005],[100,11088],[100,11172],[100,11256],[100,11338],[100,11421],[100,11505],[100,11589],[100,11672],[100,11755],[100,11839],[100,11923],[100,12005],[100,12089],[100,12172],[100,12256],[100,12339],[100,12423],[100,12505],[100,12589],[100,12673],[100,12757],[100,12840],[100,12923],[100,13006],[100,13090],[100,13172],[100,13256],[100,13340],[100,13423],[100,13507],[100,13589],[100,13673],[100,13756],[100,13839],[100,13923],[100,14007],[100,14090],[100,14173],[100,14256],[100,14340],[100,14423],[100,14507],[100,14590],[100,14675],[100,14757],[100,14840],[100,14924],[100,15008],[100,15090],[100,15174],[100,15273],[100,15356],[100,15441],[100,15525],[100,15608],[100,15690],[100,15773],[100,15858],[100,15941],[100,16024],[100,16107],[100,16191],[100,16274],[100,16357],[100,16441],[100,16524],[100,16607],[100,16691],[100,16774],[100,16857],[100,16941],[100,17025],[100,17107],[100,17192],[100,17276],[100,17359],[100,17441],[100,17525],[100,17609],[100,17692],[58.3,18359],[58.3,18441],[58.3,18526],[58,18609],[55.7,18692],[55.1,18776],[55.1,18859],[54.9,18942],[54.7,19026],[54.3,19109],[53.7,19192],[53.2,19275],[52.6,19359],[52.3,19442],[52.3,19525],[52.3,19609],[52.3,19692],[52.3,19775],[52.3,19859],[52.3,19942],[52.3,20027],[52.3,20109],[52.3,20193],[52.3,20276],[52.3,20359],[52.3,20443],[52.3,20525],[52.3,20609],[52.3,20693],[52.3,20776],[52.2,20859],[50.6,20943],[50.1,21025],[49.9,21110],[49.6,21194],[49.4,21277],[49.4,21361],[49.4,21444],[49.4,21527],[49.4,21610],[49.4,21693],[49.4,21777],[49.4,21861],[49.4,21944],[49.4,22028],[49.4,22111],[49.4,22194],[49.4,22279],[49.4,22361]]",1,0,261.2753,266.2442,52.17529297,3.5725,"[{""rating"":52.17529296875,""responseTime"":3.572499999999991}]",space,4.4196,,266.2443,Definitely yes,100,266.2486,,,[],,0,3,3,3,1,audio/Narrative7Situation3.wav,audio/Narrative8Situation3.wav,audio/Narrative5Situation3.wav,audio/Narrative6Situation3.wav,8,4,3,5,,,,,,,,,,,,,,,,,,,,,,,,,,,,,,,,,,,,,
,,,,,,664156baa6d54764ead4be7c,2024-05-13_11h45.08.476,group3.1-3.2-social-tom,2023.2.2,MacIntel,59.97361161,65c5074098b851296ff0b7ed,6642354db975e8c5f7c2a7c2,,,,,,,,,,,,,,,,,,,,,,,,,,,,,266.2489,1,audio/Narrative8Situation4.wav,269.2619,,269.262,283.4357,"[[999,12],[999,83],[999,166],[999,250],[999,331],[999,415],[999,500],[999,583],[999,666],[999,749],[999,833],[999,915],[999,999],[999,1083],[999,1165],[999,1249],[999,1333],[999,1417],[999,1500],[999,1584],[999,1666],[999,1750],[999,1832],[999,1917],[999,2000],[999,2083],[999,2168],[999,2250],[16.1,2334],[14.9,2416],[14.6,2500],[14.2,2584],[13,2668],[10.9,2751],[10.7,2833],[10.7,2917],[12.2,2999],[23.2,3085],[35,3167],[41.4,3250],[45.5,3335],[46.2,3416],[46.2,3501],[46.2,3584],[52.6,3667],[58.4,3751],[60.9,3834],[62.7,3918],[62.7,4001],[62.7,4085],[62.7,4167],[66.2,4252],[69.8,4335],[73.5,4418],[75.6,4501],[77.7,4584],[77.9,4668],[77.9,4750],[77.9,4834],[77.9,4917],[77.9,5001],[77.9,5083],[77.9,5169],[77.4,5251],[77,5335],[76.9,5418],[76,5501],[75.2,5585],[75.2,5668],[75.2,5752],[75.2,5834],[75.2,5917],[75.2,6001],[74.6,6084],[74.4,6169],[74.4,6251],[74.4,6334],[74.4,6418],[74.4,6502],[77.1,6585],[85.1,6668],[89.7,6752],[94,6835],[96,6918],[99.3,7003],[100,7085],[100,7168],[100,7252],[100,7335],[100,7419],[100,7502],[100,7585],[100,7668],[100,7752],[100,7835],[100,7920],[100,8002],[100,8085],[100,8169],[100,8252],[100,8335],[100,8419],[100,8502],[100,8586],[100,8669],[100,8752],[100,8836],[100,8919],[100,9003],[100,9085],[100,9169],[100,9252],[100,9336],[100,9419],[100,9502],[100,9586],[100,9669],[100,9753],[100,9836],[100,9921],[100,10003],[100,10086],[100,10171],[100,10254],[100,10336],[100,10420],[100,10503],[100,10586],[100,10670],[100,10753],[100,10836],[100,10921],[100,11004],[100,11088],[100,11171],[100,11254],[100,11337],[100,11422],[100,11505],[100,11588],[100,11672],[100,11756],[100,11838],[100,11921],[100,12005],[100,12088],[100,12172],[100,12255],[100,12337],[100,12422],[100,12504],[100,12588],[100,12671],[100,12756],[100,12838],[100,12921],[100,13004],[100,13088],[100,13172],[100,13255],[100,13339],[100,13421],[100,13505],[100,13590],[100,13672],[100,13756],[100,13838],[100,13923],[100,14005],[100,14089],[100,14173]]",1,0,283.436,286.7532,95.32897949,2.2837,"[{""rating"":95.3289794921875,""responseTime"":2.283700000047702}]",space,2.7715,,286.7533,Partially,50,286.7613,,,[],,0,4,4,4,1,audio/Narrative7Situation4.wav,audio/Narrative8Situation4.wav,audio/Narrative5Situation4.wav,audio/Narrative6Situation4.wav,3,3,1,2,,,,,,,,,,,,,,,,,,,,,,,,,,,,,,,,,,,,,
,,,,,,664156baa6d54764ead4be7c,2024-05-13_11h45.08.476,group3.1-3.2-social-tom,2023.2.2,MacIntel,59.97361161,65c5074098b851296ff0b7ed,6642354db975e8c5f7c2a7c2,,,,,,,,,,,,,,,,,,,,,,,,,,,,,286.7616,1,audio/Narrative8Situation5.wav,288.7711,,288.7712,297.0254,"[[999,0],[999,83],[999,165],[999,248],[999,332],[999,416],[999,498],[999,582],[999,665],[999,750],[999,834],[999,915],[999,999],[999,1083],[999,1166],[999,1250],[999,1333],[999,1417],[74.4,1501],[77.6,1584],[77.6,1668],[80.8,1750],[87.5,1833],[99.9,1918],[100,2001],[100,2084],[100,2167],[100,2251],[100,2333],[100,2418],[100,2501],[100,2583],[100,2668],[100,2751],[100,2834],[100,2918],[100,3001],[100,3084],[100,3167],[100,3251],[100,3334],[100,3418],[100,3500],[100,3585],[100,3668],[100,3756],[100,3835],[100,3918],[100,4002],[100,4085],[100,4168],[100,4251],[100,4334],[100,4418],[100,4501],[100,4585],[100,4669],[100,4751],[100,4835],[100,4918],[100,5001],[100,5086],[100,5169],[100,5251],[100,5335],[100,5418],[100,5502],[100,5585],[100,5669],[100,5752],[100,5837],[100,5920],[100,6002],[100,6086],[100,6169],[100,6251],[100,6336],[100,6419],[100,6502],[100,6586],[100,6669],[100,6753],[100,6836],[100,6920],[100,7003],[100,7086],[100,7169],[100,7252],[100,7338],[100,7420],[100,7502],[100,7586],[100,7670],[100,7753],[100,7836],[100,7920],[100,8002],[100,8087],[100,8170],[100,8253]]",1,0,297.0256,301.1277,100,3.1855,"[{""rating"":98.863525390625,""responseTime"":2.035799999952303},{""rating"":100,""responseTime"":3.1854999999999905}]",space,3.5523,,301.1278,Definitely yes,100,301.1314,,,[],,0,5,5,5,1,audio/Narrative7Situation5.wav,audio/Narrative8Situation5.wav,audio/Narrative5Situation5.wav,audio/Narrative6Situation5.wav,5,2,5,2,,,,,,,,,,,,,,,,,,,,,,,,,,,,,,,,,,,,,
,,,,,,664156baa6d54764ead4be7c,2024-05-13_11h45.08.476,group3.1-3.2-social-tom,2023.2.2,MacIntel,59.97361161,65c5074098b851296ff0b7ed,6642354db975e8c5f7c2a7c2,,,,,,,,,,,,,,,,,,,,,,,,,,,,,301.1321,1,audio/Narrative8Situation6.wav,303.1455,,303.1456,309.6305,"[[999,2],[999,82],[999,164],[999,248],[999,331],[999,416],[999,500],[999,581],[999,669],[999,749],[999,833],[999,916],[999,998],[999,1082],[999,1166],[999,1248],[999,1331],[999,1416],[999,1499],[999,1581],[999,1666],[999,1749],[999,1832],[999,1915],[58.5,2000],[59.5,2084],[72.4,2166],[87.8,2249],[93.4,2334],[95.6,2416],[99.7,2499],[100,2583],[100,2665],[100,2749],[100,2832],[100,2917],[100,2999],[100,3083],[100,3166],[100,3250],[100,3334],[100,3415],[100,3499],[100,3584],[100,3666],[100,3749],[100,3834],[100,3917],[100,4000],[100,4083],[100,4166],[100,4250],[100,4333],[100,4417],[100,4501],[100,4584],[100,4667],[100,4750],[100,4834],[100,4917],[100,5000],[100,5084],[100,5167],[100,5250],[100,5334],[100,5418],[100,5500],[100,5583],[100,5666],[100,5751],[100,5834],[100,5917],[100,6000],[100,6084],[100,6167],[100,6251],[100,6334],[100,6417]]",1,0,309.6306,314.0164,100,3.7046,"[{""rating"":99.5989990234375,""responseTime"":2.819999999999993},{""rating"":100,""responseTime"":3.704600000023845}]",space,3.8557,,314.0164,Not at all,0,314.0199,,,[],,0,6,6,6,1,audio/Narrative7Situation6.wav,audio/Narrative8Situation6.wav,audio/Narrative5Situation6.wav,audio/Narrative6Situation6.wav,3,2,3,2,,,,,,,,,,,,,,,,,,,,,,,,,,,,,,,,,,,,,
,,,,,,664156baa6d54764ead4be7c,2024-05-13_11h45.08.476,group3.1-3.2-social-tom,2023.2.2,MacIntel,59.97361161,65c5074098b851296ff0b7ed,6642354db975e8c5f7c2a7c2,,,,,,,,,,,,,,,,,,,,,,,,,,,,,314.0202,1,audio/Narrative8Situation7.wav,317.0345,,317.0346,329.1062,"[[999,12],[999,83],[999,166],[999,250],[999,332],[999,417],[999,499],[999,583],[999,666],[999,751],[999,833],[999,916],[999,999],[999,1084],[999,1165],[999,1250],[999,1333],[999,1416],[999,1501],[999,1583],[40.9,1667],[40.9,1750],[38.5,1833],[9.1,2334],[8.7,2418],[8.7,2501],[8.7,2584],[8.7,2667],[12.5,2750],[18.7,2833],[23.8,2918],[26.8,3001],[28,3084],[28,3167],[28,3251],[35.4,3336],[52.4,3918],[51.4,4001],[50.6,4084],[50.5,4167],[49.6,4251],[48.4,4335],[47.6,4419],[46.6,4502],[46.2,4585],[46.2,4668],[46.2,4751],[44.5,4835],[40.2,4917],[38.4,5001],[37.2,5084],[36.6,5169],[36.3,5251],[36.1,5335],[35.4,5420],[33.9,5502],[33.4,5584],[33.4,5669],[33.4,5751],[33.4,5836],[33.4,5918],[33.4,6001],[33.4,6086],[33.4,6169],[33.4,6251],[33.4,6336],[33.4,6418],[35.8,6503],[37.9,6587],[38.3,6668],[38.3,6753],[38.4,6836],[40,6920],[41.1,7002],[41.7,7086],[41.9,7170],[41.7,7254],[41.7,7335],[41.6,7420],[41.5,7502],[41.5,7586],[41.3,7669],[40.6,7753],[40.3,7836],[40.3,7919],[40.3,8002],[40.3,8086],[40.3,8169],[40.3,8253],[40.3,8336],[40.3,8419],[40.3,8502],[40.3,8585],[40.3,8670],[40.3,8752],[41.8,8837],[47.2,8920],[56.4,9003],[56.8,9087],[56.8,9169],[56.8,9253],[58.6,9338],[64,9420],[66.9,9505],[69.5,9588],[71.3,9671],[71.7,9753],[71.7,9837],[71.7,9921],[71.7,10004],[71.7,10086],[71.7,10170],[71.7,10253],[71.7,10338],[71.7,10420],[71.7,10504],[71.7,10588],[71.7,10670],[71.7,10754],[71.7,10838],[71.7,10920],[71.7,11003],[71.7,11087],[71.7,11170],[71.7,11253],[71.7,11337],[71.7,11422],[71.7,11504],[71.7,11587],[71.7,11671],[71.7,11755],[71.7,11838],[71.7,11921],[71.7,12005]]",1,0,329.1064,333.8756,17.22473145,3.8147,"[{""rating"":26.165771484375,""responseTime"":2.6501000000238264},{""rating"":17.224731445312504,""responseTime"":3.814700000047651}]",space,4.237,,333.8757,Partially,50,333.882,,,[],,0,7,7,7,1,audio/Narrative7Situation7.wav,audio/Narrative8Situation7.wav,audio/Narrative5Situation7.wav,audio/Narrative6Situation7.wav,5,3,4,5,,,,,,,,,,,,,,,,,,,,,,,,,,,,,,,,,,,,,
,,,,,,664156baa6d54764ead4be7c,2024-05-13_11h45.08.476,group3.1-3.2-social-tom,2023.2.2,MacIntel,59.97361161,65c5074098b851296ff0b7ed,6642354db975e8c5f7c2a7c2,,,,,,,,,,,,,,,,,,,,,,,,,,,,,333.8823,1,audio/Narrative8Situation8.wav,336.8939,,336.8939,349.7668,"[[42.1,4258],[0.8,4834],[2.6,4918],[3,5001],[2.9,5085],[2.5,5169],[2.4,5252],[2.2,5336],[1.3,5419],[0.9,5502],[0.9,5585],[0.9,5668],[0.9,5751],[0.9,5836],[0.9,5918],[0.9,6002],[0.9,6087],[0.9,6170],[0.9,6252],[0.9,6335],[8.7,6420],[60.6,7005],[59.4,7087],[58.8,7169],[58.4,7254],[58.3,7336],[58.3,7419],[58.3,7502],[58.3,7586],[58.3,7670],[58.3,7753],[58.3,7837],[58.3,7919],[58.3,8003],[58.3,8087],[58.3,8169],[58.3,8252],[58.3,8337],[58.3,8419],[58.3,8504],[58.3,8586],[58.3,8670],[58.3,8754],[58.3,8836],[58.3,8919],[58.3,9003],[58.3,9088],[58.3,9171],[58.3,9253],[58.3,9337],[58.3,9421],[58.3,9503],[58.3,9587],[58.3,9670],[58.3,9753],[58.3,9837],[58.3,9921],[58.3,10003],[58.3,10088],[58.3,10170],[58.3,10254],[58.3,10337],[58.3,10422],[58.3,10504],[58.3,10587],[58.3,10671],[58.3,10753],[58.3,10838],[58.3,10922],[58.3,11004],[58.3,11088],[58.3,11171],[58.3,11254],[58.3,11336],[58.3,11421],[58.3,11504],[58.3,11589],[58.3,11671],[58.3,11754],[58.3,11838],[58.3,11920],[58.3,12005],[58.3,12089],[58.3,12172],[58.3,12256],[58.3,12338],[58.3,12421],[58.3,12505],[58.3,12588],[58.3,12672],[58.3,12756],[58.3,12837]]",1,0,349.7669,353.1355,0.409545898,2.0529,"[{""rating"":0.4095458984375022,""responseTime"":2.052900000095349}]",space,2.8374,,353.1356,Partially,50,353.1402,,,[],,0,8,8,8,1,audio/Narrative7Situation8.wav,audio/Narrative8Situation8.wav,audio/Narrative5Situation8.wav,audio/Narrative6Situation8.wav,2,3,3,5,,,,,,,,,,,,,,,,,,,,,,,,,,,,,,,,,,,,,
,,,,,,664156baa6d54764ead4be7c,2024-05-13_11h45.08.476,group3.1-3.2-social-tom,2023.2.2,MacIntel,59.97361161,65c5074098b851296ff0b7ed,6642354db975e8c5f7c2a7c2,,,,,,,,,,,,,,,,,,,,,,,,,,,,,353.1404,1,audio/Narrative8Situation9.wav,356.152,,356.152,367.4577,"[[23.6,1501],[18.8,1584],[11.4,1669],[6.9,1750],[5.4,1834],[4.7,1918],[3.6,2001],[3.5,2085],[3.5,2168],[3.5,2252],[3.5,2335],[3.5,2418],[3.5,2502],[3.5,2584],[3.5,2670],[3.5,2751],[3.5,2835],[3.5,2918],[3.5,3003],[3.5,3085],[3.5,3169],[3.5,3252],[3.5,3335],[3.5,3419],[3.5,3501],[3.5,3586],[3.5,3669],[3.5,3751],[3.5,3836],[3.5,3920],[3.5,4001],[3.5,4085],[3.5,4168],[3.5,4253],[3.5,4336],[3.5,4419],[3.5,4503],[3.5,4585],[3.5,4671],[3.5,4753],[3.5,4835],[3.5,4919],[3.5,5002],[3.5,5085],[3.5,5170],[3.5,5253],[3.5,5335],[3.5,5419],[3.5,5502],[3.5,5587],[3.5,5669],[3.5,5752],[3.5,5836],[3.5,5921],[3.5,6004],[3.5,6087],[3.5,6171],[3.5,6254],[3.5,6337],[3.5,6420],[3.5,6503],[3.5,6587],[3.5,6671],[3.5,6754],[3.5,6837],[3.5,6920],[3.5,7004],[3.5,7086],[3.5,7171],[3.5,7253],[3.5,7338],[3.5,7419],[3.5,7503],[3.5,7587],[3.5,7670],[3.5,7755],[3.5,7838],[3.5,7921],[3.5,8004],[3.5,8088],[3.5,8170],[3.5,8254],[3.5,8338],[3.5,8420],[3.5,8504],[3.5,8588],[3.5,8670],[3.5,8753],[3.5,8838],[3.5,8920],[3.5,9005],[3.5,9088],[3.5,9172],[3.5,9254],[3.5,9339],[3.5,9422],[3.5,9505],[3.5,9588],[3.5,9673],[3.5,9754],[3.5,9838],[3.5,9921],[3.5,10005],[3.5,10087],[3.5,10172],[3.5,10256],[3.5,10338],[3.5,10422],[3.5,10504],[3.5,10588],[3.5,10673],[3.5,10755],[3.5,10840],[3.5,10922],[3.5,11005],[3.5,11089],[3.5,11173],[3.5,11256]]",1,0,367.4582,369.5093,1.243286133,1.0677,"[{""rating"":1.243286132812499,""responseTime"":1.0677000000476369}]",space,1.5176,,369.5093,Partially,50,369.5113,,,[],,0,9,9,9,1,audio/Narrative7Situation9.wav,audio/Narrative8Situation9.wav,audio/Narrative5Situation9.wav,audio/Narrative6Situation9.wav,2,3,3,4,,,,,,,,,,,,,,,,,,,,,,,,,,,,,,,,,,,,,
,,,,,,664156baa6d54764ead4be7c,2024-05-13_11h45.08.476,group3.1-3.2-social-tom,2023.2.2,MacIntel,59.97361161,65c5074098b851296ff0b7ed,6642354db975e8c5f7c2a7c2,,,,,,,,,,,,,,,,,,,,,,,,,,,,,369.5116,1,audio/Narrative7Situation1.wav,371.5264,,371.5267,427.4039,"[[1.9,3334],[2.9,3418],[2.4,3502],[1.4,3585],[1.4,3668],[1.4,3753],[1.4,3835],[1.4,3918],[1.4,4000],[1.4,4084],[1.4,4167],[1.4,4252],[1.4,4334],[1.4,4417],[1.4,4501],[1.4,4585],[1.4,4668],[1.4,4751],[1.4,4834],[1.4,4919],[1.4,5001],[1.4,5085],[1.4,5168],[1.4,5252],[1.4,5336],[1.4,5418],[1.4,5501],[1.4,5586],[1.4,5670],[1.4,5751],[1.4,5836],[1.4,5919],[1.4,6003],[1.4,6086],[1.4,6170],[1.4,6252],[1.4,6336],[1.4,6419],[1.4,6502],[1.4,6585],[1.4,6669],[1.4,6753],[1.4,6835],[1.4,6920],[1.4,7003],[1.4,7086],[1.4,7169],[1.4,7253],[1.4,7336],[1.4,7419],[1.4,7502],[1.4,7586],[1.4,7670],[1.4,7754],[1.4,7836],[1.4,7920],[1.4,8004],[1.4,8086],[1.4,8170],[1.4,8254],[2.9,8341],[33.2,8420],[49.7,8836],[50.6,8921],[50.6,9004],[50.7,9088],[50.8,9171],[50.7,9253],[50.6,9337],[50.4,9421],[50.1,9503],[50,9586],[50,9670],[50,9754],[50,9838],[50,9922],[50,10004],[50,10087],[50,10171],[50,10254],[50,10336],[50,10420],[50,10503],[50,10588],[50,10670],[50,10754],[50,10838],[50,10921],[50,11005],[50,11088],[50,11172],[50,11254],[50,11337],[50,11421],[50,11504],[50,11587],[50,11672],[50,11754],[50,11839],[50,11922],[50,12006],[50,12088],[50,12172],[50,12255],[50,12338],[50,12422],[50,12507],[50,12588],[50,12671],[50,12756],[50,12839],[50,12922],[50,13005],[50,13088],[50,13172],[50,13255],[50,13338],[50,13423],[47.6,13507],[6.3,14340],[6.1,14424],[6,14507],[6,14589],[6.1,14672],[6.1,14756],[6.1,14840],[6.1,14922],[6.1,15006],[6.1,15089],[6.1,15174],[6.1,15256],[6.1,15339],[6.1,15423],[6.1,15507],[6.1,15590],[6.1,15673],[6.1,15757],[6.1,15840],[6.1,15923],[13.5,16007],[75.9,16506],[73,16591],[71.1,16674],[70.3,16757],[70.3,16840],[70.3,16924],[70.3,17007],[70.3,17090],[70.3,17174],[70.3,17257],[70.3,17342],[70.3,17423],[70.2,17507],[69.9,17590],[69.9,17674],[69.9,17757],[69.9,17841],[69.9,17924],[69.9,18007],[69.9,18092],[69.9,18174],[69.9,18257],[69.9,18341],[69.9,18425],[69.9,18509],[69.9,18591],[69.9,18674],[69.9,18758],[69.9,18842],[69.9,18925],[69.9,19009],[69.9,19092],[69.9,19176],[69.9,19259],[69.9,19342],[69.9,19426],[69.9,19509],[69.9,19593],[69.9,19675],[69.9,19759],[69.7,19843],[68.5,19925],[66.9,20009],[66,20095],[66,20176],[66,20259],[66,20343],[65.6,20426],[63.4,20510],[61.3,20593],[60.8,20677],[60.5,20760],[60,20844],[59.7,20925],[59.6,21009],[59.6,21093],[59.6,21176],[59.6,21259],[59.6,21343],[59.6,21427],[59.6,21510],[59.6,21594],[59.6,21677],[59.6,21761],[59.6,21844],[59.6,21928],[59.6,22010],[59.6,22093],[59.6,22177],[59.6,22259],[59.6,22344],[59.6,22427],[59.6,22509],[59.6,22594],[59.6,22676],[59.6,22761],[59.6,22845],[59.6,22928],[59.6,23010],[59.6,23094],[59.6,23178],[59.6,23261],[59.6,23344],[59.6,23428],[59.6,23511],[59.6,23595],[59.6,23676],[59.6,23762],[59.6,23843],[59.6,23927],[59.6,24012],[59.6,24095],[59.6,24177],[59.6,24262],[59.6,24344],[59.6,24428],[59.6,24511],[59.6,24595],[59.6,24678],[59.6,24762],[59.6,24845],[59.6,24927],[59.6,25011],[59.6,25095],[59.6,25177],[59.6,25262],[59.6,25344],[59.6,25428],[59.6,25511],[59.6,25595],[59.6,25679],[59.6,25762],[59.6,25846],[59.6,25928],[59.6,26012],[59.6,26094],[59.6,26179],[59.6,26263],[59.6,26345],[59.6,26429],[59.6,26511],[59.6,26595],[59.6,26678],[59.6,26762],[54.4,26847],[9.7,27680],[7.5,27764],[7.3,27846],[6.3,27930],[5.4,28013],[3.7,28096],[2.9,28180],[2,28262],[1.2,28347],[0.8,28429],[0.8,28514],[0.8,28596],[0.8,28679],[0.8,28763],[0.8,28846],[0.8,28930],[0.8,29014],[0.8,29097],[0.8,29180],[0.8,29264],[0.8,29346],[0.8,29431],[0.8,29514],[0.8,29597],[0.8,29685],[0.8,29764],[0.8,29846],[0.8,29930],[0.8,30013],[0.8,30096],[0.8,30181],[0.8,30263],[0.8,30346],[0.8,30431],[0.8,30514],[0.8,30598],[0.8,30682],[0.8,30764],[0.8,30848],[0.8,30930],[0.8,31015],[0.8,31097],[0.8,31181],[0.8,31264],[0.8,31347],[0.8,31430],[0.8,31514],[0.8,31598],[0.8,31681],[0.8,31764],[0.8,31847],[0.8,31932],[0.8,32014],[0.8,32098],[0.8,32182],[0.8,32265],[0.8,32348],[0.8,32431],[0.8,32514],[0.8,32599],[0.8,32682],[0.8,32764],[0.8,32849],[0.8,32932],[0.8,33016],[0.8,33098],[0.8,33181],[0.8,33265],[0.8,33349],[0.8,33432],[0.8,33514],[0.8,33600],[0.8,33683],[0.8,33765],[0.8,33848],[0.8,33932],[0.8,34015],[0.8,34098],[0.8,34182],[0.8,34265],[0.8,34348],[0.8,34431],[0.8,34515],[0.8,34600],[0.8,34682],[0.8,34781],[0.8,34865],[0.8,34948],[0.8,35033],[0.8,35115],[0.8,35200],[0.8,35282],[0.8,35366],[21.7,35449],[44.3,35532],[46.7,35616],[46.7,35699],[46.7,35782],[49.7,35867],[50.6,35949],[51,36033],[51.1,36115],[51.2,36199],[52.3,36283],[53.6,36366],[54.3,36449],[54.8,36533],[56.3,36617],[56.4,36699],[56.4,36783],[56.4,36866],[56.4,36950],[56.4,37033],[56.4,37116],[56.4,37199],[56.4,37284],[56.4,37366],[56.4,37450],[56.4,37533],[56.4,37618],[56.4,37701],[56.4,37783],[56.4,37867],[56.4,37949],[56.4,38033],[56.4,38117],[56.4,38200],[56.4,38283],[56.4,38367],[56.4,38451],[56.4,38533],[56.4,38617],[56.4,38701],[56.4,38785],[56.4,38869],[56.4,38951],[56.4,39035],[56.4,39119],[56.4,39200],[56.4,39284],[56.4,39367],[56.4,39451],[56.4,39535],[56.4,39618],[56.4,39701],[56.4,39785],[56.4,39869],[56.4,39952],[56.4,40035],[56.4,40118],[56.4,40201],[56.4,40284],[56.4,40369],[56.4,40452],[56.4,40535],[56.4,40618],[56.4,40701],[56.4,40786],[56.4,40869],[56.4,40953],[56.4,41036],[56.4,41119],[56.4,41202],[56.4,41285],[56.4,41370],[56.4,41452],[56.4,41536],[56.4,41620],[56.4,41703],[48.2,41786],[31.1,41869],[26.8,41952],[26.8,42036],[26.8,42118],[37.7,42203],[49.9,42286],[51.8,42370],[51.8,42453],[51.8,42536],[52,42619],[53,42704],[53.6,42787],[55.1,42870],[55.7,42953],[55.8,43037],[55.9,43120],[55.9,43203],[55.9,43286],[55.9,43369],[55.9,43454],[55.9,43537],[55.9,43619],[55.9,43703],[55.9,43787],[55.9,43870],[55.9,43953],[55.9,44036],[55.9,44120],[55.9,44203],[55.9,44286],[55.9,44370],[55.9,44454],[55.9,44538],[55.9,44621],[55.9,44705],[55.9,44786],[55.9,44871],[55.9,44953],[55.9,45037],[55.9,45121],[55.9,45203],[55.9,45288],[55.9,45370],[55.9,45455],[55.9,45538],[55.9,45620],[55.9,45705],[55.9,45787],[55.9,45871],[55.9,45954],[55.9,46037],[55.9,46121],[55.9,46205],[55.9,46288],[55.9,46372],[55.9,46455],[55.9,46538],[55.9,46622],[55.9,46704],[55.9,46788],[55.9,46872],[55.9,46955],[44.4,47039],[14.6,47789],[15.6,47872],[14,47956],[12.4,48038],[11.6,48122],[10.8,48206],[10.4,48288],[10.4,48372],[10.4,48455],[10.4,48538],[10.4,48621],[9.2,48706],[8.2,48790],[8.2,48873],[8.2,48955],[8.2,49038],[8.2,49122],[8.2,49205],[8.2,49289],[8.2,49373],[8.2,49455],[8.2,49539],[8.2,49623],[8.2,49706],[8.2,49790],[8.2,49873],[8.2,49957],[8.2,50040],[8.2,50123],[8.2,50206],[8.2,50289],[8.2,50372],[8.2,50456],[8.2,50539],[8.2,50623],[8.2,50707],[8.2,50790],[8.2,50873],[8.2,50957],[8.2,51040],[8.2,51123],[8.2,51207],[8.2,51290],[8.2,51373],[8.2,51457],[8.2,51540],[8.2,51624],[8.2,51706],[8.2,51791],[8.2,51874],[8.3,51957],[9.7,52041],[10.8,52124],[12.2,52208],[16.6,52291],[19.9,52375],[25.3,52458],[36.6,52541],[54.2,52625],[56.8,52707],[56.8,52791],[56.8,52874],[56.5,52959],[56,53041],[56,53124],[56,53208],[56,53290],[56.1,53375],[56.9,53459],[57.1,53541],[57.1,53624],[57.1,53708],[57.1,53791],[57.1,53875],[57.1,53957],[57.1,54041],[57.1,54124],[57.1,54208],[57.1,54291],[57.1,54374],[57.1,54458],[57.1,54541],[57.1,54624],[57.1,54708],[57.1,54791],[57.1,54874],[57.1,54958],[57.1,55041],[57.1,55125],[57.1,55209],[57.1,55291],[57.1,55375],[57.1,55458],[57.1,55542],[57.1,55625],[57.1,55709],[57.1,55793],[57.4,55877]]",1,0,427.4042,429.5871,34.69482422,1.3614,"[{""rating"":34.69482421875,""responseTime"":1.361399999976129}]",space,1.6401,,429.5872,Not at all,0,429.5928,,,[],,0,10,10,10,1,audio/Narrative8Situation1.wav,audio/Narrative7Situation1.wav,audio/Narrative6Situation1.wav,audio/Narrative5Situation1.wav,5,2,2,5,,,,,,,,,,,,,,,,,,,,,,,,,,,,,,,,,,,,,
,,,,,,664156baa6d54764ead4be7c,2024-05-13_11h45.08.476,group3.1-3.2-social-tom,2023.2.2,MacIntel,59.97361161,65c5074098b851296ff0b7ed,6642354db975e8c5f7c2a7c2,,,,,,,,,,,,,,,,,,,,,,,,,,,,,429.593,1,audio/Narrative7Situation2.wav,432.6061,,432.6061,440.1085,"[[999,0],[999,82],[999,165],[999,248],[999,333],[999,417],[999,499],[999,583],[999,666],[999,749],[999,833],[999,917],[999,1000],[999,1083],[999,1165],[999,1250],[999,1333],[999,1416],[999,1501],[999,1584],[999,1667],[999,1750],[999,1832],[999,1917],[999,2000],[999,2084],[999,2167],[999,2251],[999,2333],[999,2418],[999,2501],[999,2584],[999,2667],[999,2751],[999,2833],[999,2917],[999,3000],[999,3084],[999,3167],[999,3251],[999,3333],[999,3418],[999,3500],[999,3585],[999,3667],[999,3750],[999,3834],[999,3918],[999,4000],[999,4085],[999,4168],[999,4250],[999,4333],[999,4418],[999,4500],[999,4585],[999,4667],[999,4752],[999,4835],[999,4919],[999,5001],[999,5085],[999,5169],[999,5251],[999,5334],[999,5418],[999,5501],[999,5586],[999,5668],[999,5751],[999,5834],[999,5918],[60.2,6002],[90.4,6086],[91,6168],[91,6252],[91.5,6335],[97.3,6418],[99.5,6502],[99.6,6586],[99.6,6669],[99.7,6752],[99.7,6835],[99.7,6918],[99.7,7002],[99.7,7086],[99.7,7168],[99.7,7252],[99.7,7336],[99.7,7418],[99.7,7502]]",1,0,440.1086,442.0105,99.39453125,1.2122,"[{""rating"":99.39453125,""responseTime"":1.2122000000476874}]",space,1.3726,,442.0106,Not at all,0,442.0157,,,[],,0,11,11,11,1,audio/Narrative8Situation2.wav,audio/Narrative7Situation2.wav,audio/Narrative6Situation2.wav,audio/Narrative5Situation2.wav,3,3,3,3,,,,,,,,,,,,,,,,,,,,,,,,,,,,,,,,,,,,,
,,,,,,664156baa6d54764ead4be7c,2024-05-13_11h45.08.476,group3.1-3.2-social-tom,2023.2.2,MacIntel,59.97361161,65c5074098b851296ff0b7ed,6642354db975e8c5f7c2a7c2,,,,,,,,,,,,,,,,,,,,,,,,,,,,,442.016,1,audio/Narrative7Situation3.wav,450.0301,,450.0301,459.2846,"[[26.9,2835],[21.8,2920],[20.7,3001],[20.7,3086],[20.7,3169],[19.6,3252],[18.9,3335],[18.8,3419],[18.8,3502],[18.8,3585],[18.8,3668],[18.8,3751],[18.8,3835],[18.8,3919],[18.8,4001],[18.8,4085],[18.8,4168],[18.8,4252],[18.8,4336],[18.8,4419],[18.8,4501],[18.8,4585],[18.8,4668],[18.8,4753],[18.8,4835],[18.8,4919],[18.8,5003],[18.8,5086],[18.8,5169],[18.8,5252],[18.8,5337],[18.8,5419],[18.8,5502],[18.8,5586],[18.8,5669],[18.8,5752],[18.8,5836],[18.8,5919],[18.8,6002],[18.8,6086],[18.8,6170],[18.8,6253],[18.8,6336],[18.8,6420],[18.8,6503],[18.8,6586],[18.8,6669],[18.8,6754],[18.8,6837],[18.8,6919],[18.8,7004],[18.8,7086],[18.8,7170],[18.8,7252],[18.8,7337],[18.8,7420],[18.8,7503],[18.8,7586],[18.8,7670],[18.8,7754],[18.8,7836],[18.8,7920],[18.8,8004],[18.8,8087],[18.8,8170],[18.8,8253],[18.8,8337],[18.8,8420],[18.8,8504],[18.8,8587],[18.8,8670],[18.8,8755],[18.8,8838],[18.8,8920],[18.8,9005],[18.8,9088],[18.8,9171],[18.8,9254]]",1,0,459.2848,463.0361,1.226806641,3.7343,"[{""rating"":1.226806640625,""responseTime"":3.734299999952327}]",space,1.4064,,463.0361,Partially,50,463.0418,,,[],,0,12,12,12,1,audio/Narrative8Situation3.wav,audio/Narrative7Situation3.wav,audio/Narrative6Situation3.wav,audio/Narrative5Situation3.wav,4,8,5,3,,,,,,,,,,,,,,,,,,,,,,,,,,,,,,,,,,,,,
,,,,,,664156baa6d54764ead4be7c,2024-05-13_11h45.08.476,group3.1-3.2-social-tom,2023.2.2,MacIntel,59.97361161,65c5074098b851296ff0b7ed,6642354db975e8c5f7c2a7c2,,,,,,,,,,,,,,,,,,,,,,,,,,,,,463.0421,1,audio/Narrative7Situation4.wav,466.0542,,466.0542,477.7945,"[[1.6,1584],[1.9,1667],[2.4,1750],[2.4,1833],[2.4,1916],[2.4,2001],[2.4,2083],[2.4,2167],[2.4,2250],[2.4,2335],[2.4,2418],[2.4,2500],[2.4,2584],[2.4,2667],[2.4,2750],[2.4,2833],[2.4,2917],[2.4,3001],[2.4,3084],[2.4,3168],[2.4,3251],[2.4,3334],[2.4,3418],[2.4,3501],[2.4,3584],[2.4,3668],[2.4,3751],[2.4,3834],[2.4,3918],[2.4,4003],[2.4,4085],[2.4,4167],[2.4,4252],[2.4,4336],[2.3,4420],[2.3,4503],[1.9,4586],[1.3,4669],[0.9,4752],[0.7,4836],[0.5,4921],[0.3,5003],[0.2,5086],[0.2,5169],[0.2,5252],[0.2,5336],[0.2,5419],[0.2,5503],[0.2,5586],[0.2,5669],[0.2,5752],[0.2,5837],[0.2,5919],[6.3,6003],[70,6170],[70,6253],[70,6336],[72.8,6420],[90.8,6503],[98.4,6587],[100,6669],[100,6753],[100,6836],[100,6920],[100,7004],[100,7087],[100,7171],[100,7253],[100,7336],[99.3,7420],[93.5,7504],[86.1,7587],[79.9,7674],[74,7754],[73.6,7836],[73.6,7921],[66.1,8004],[56,8087],[55,8171],[54.3,8254],[53.3,8337],[52.6,8421],[52,8506],[50.5,8589],[49.1,8672],[48.5,8755],[48.4,8838],[48.4,8920],[48.4,9004],[48.4,9088],[48.4,9170],[48.4,9254],[48.4,9337],[48.4,9421],[47.6,9504],[37.1,9588],[28.6,9671],[28.3,9754],[28.3,9837],[28.3,9921],[24.6,10005],[21.5,10089],[18,10172],[15,10256],[15,10339],[15,10422],[14.6,10504],[8.1,10589],[6.6,10673],[6.5,10755],[6.4,10838],[6.4,10921],[6.4,11006],[6.4,11088],[6.4,11172],[6.4,11255],[6.4,11339],[6.4,11421],[6.4,11505],[6.4,11590],[5.4,11673]]",1,0,477.7947,479.3781,1.525878906,0.8617,"[{""rating"":1.52587890625,""responseTime"":0.8617000000476764}]",space,1.0341,,479.3781,Definitely yes,100,479.3842,,,[],,0,13,13,13,1,audio/Narrative8Situation4.wav,audio/Narrative7Situation4.wav,audio/Narrative6Situation4.wav,audio/Narrative5Situation4.wav,3,3,2,1,,,,,,,,,,,,,,,,,,,,,,,,,,,,,,,,,,,,,
,,,,,,664156baa6d54764ead4be7c,2024-05-13_11h45.08.476,group3.1-3.2-social-tom,2023.2.2,MacIntel,59.97361161,65c5074098b851296ff0b7ed,6642354db975e8c5f7c2a7c2,,,,,,,,,,,,,,,,,,,,,,,,,,,,,479.3846,1,audio/Narrative7Situation5.wav,484.3968,,484.3969,492.8842,"[[999,12],[999,82],[999,165],[999,249],[999,333],[999,416],[999,499],[999,582],[999,666],[999,750],[999,834],[999,916],[999,999],[999,1084],[999,1167],[999,1251],[999,1333],[999,1416],[999,1500],[999,1583],[999,1667],[999,1750],[999,1833],[999,1917],[999,1999],[999,2085],[5.3,2168],[5,2251],[5.9,2333],[28,2918],[27.2,3000],[26.7,3083],[26.6,3167],[27.9,3250],[30.5,3334],[31.3,3418],[31.3,3500],[31.3,3584],[31.9,3667],[35.3,3750],[36.7,3834],[36.8,3916],[36.8,4001],[36.8,4084],[38.6,4167],[40.1,4251],[40.8,4334],[41.4,4418],[42.7,4501],[42.9,4584],[42.9,4667],[42.9,4750],[42.9,4835],[43.2,4918],[43.7,5000],[43.7,5085],[43.7,5168],[43.7,5251],[43.7,5334],[42.4,5417],[37.7,5501],[37.7,5585],[37.7,5669],[37.7,5751],[37.1,5835],[34.7,5920],[33.7,6009],[33.7,6086],[33.7,6169],[33.7,6253],[33.7,6336],[33.7,6419],[33.7,6503],[33.7,6587],[33.7,6670],[33.7,6752],[33.7,6837],[33.7,6919],[33.7,7003],[33.7,7086],[33.7,7169],[33.7,7252],[33.7,7336],[33.7,7420],[33.7,7503],[33.7,7586],[33.7,7670],[33.7,7752],[33.7,7837],[33.7,7920],[33.7,8004],[33.7,8087],[33.7,8169],[33.7,8253],[33.7,8337],[33.7,8420]]",1,0,492.8844,495.2021,0.212402344,1.6301,"[{""rating"":0.2124023437500011,""responseTime"":1.6301000000238446}]",space,1.7697,,495.2023,Partially,50,495.2089,,,[],,0,14,14,14,1,audio/Narrative8Situation5.wav,audio/Narrative7Situation5.wav,audio/Narrative6Situation5.wav,audio/Narrative5Situation5.wav,2,5,2,5,,,,,,,,,,,,,,,,,,,,,,,,,,,,,,,,,,,,,
,,,,,,664156baa6d54764ead4be7c,2024-05-13_11h45.08.476,group3.1-3.2-social-tom,2023.2.2,MacIntel,59.97361161,65c5074098b851296ff0b7ed,6642354db975e8c5f7c2a7c2,,,,,,,,,,,,,,,,,,,,,,,,,,,,,495.2092,1,audio/Narrative7Situation6.wav,498.2199,,498.2199,508.2088,"[[999,11],[999,83],[999,166],[999,250],[999,333],[999,417],[999,500],[999,583],[999,666],[999,751],[999,834],[999,916],[999,1000],[999,1083],[999,1167],[999,1250],[999,1333],[10.9,1416],[6.2,1500],[5.8,1583],[5.8,1666],[5.8,1751],[4.5,1834],[3.2,1917],[2.9,2000],[2.6,2084],[2.5,2169],[2.4,2251],[2.2,2334],[2.1,2416],[2.1,2500],[2.1,2584],[2.1,2667],[2.1,2751],[2.1,2834],[2.1,2917],[2,3000],[2,3084],[2,3168],[2,3250],[2,3335],[2,3417],[2,3500],[2,3584],[2,3668],[3.1,3751],[49.8,3834],[75.7,3918],[75.7,4002],[76.6,4084],[97.8,4168],[100,4252],[100,4334],[100,4418],[100,4502],[100,4584],[100,4669],[100,4751],[100,4834],[100,4918],[100,5002],[100,5086],[100,5168],[100,5252],[100,5336],[100,5419],[100,5502],[100,5585],[100,5668],[100,5751],[100,5836],[100,5918],[100,6003],[100,6087],[100,6168],[100,6252],[100,6335],[100,6419],[100,6502],[100,6586],[100,6669],[100,6753],[100,6835],[100,6919],[100,7002],[100,7085],[100,7169],[100,7253],[100,7336],[100,7420],[100,7503],[100,7587],[100,7669],[100,7753],[100,7836],[100,7920],[100,8003],[100,8086],[100,8170],[100,8253],[100,8337],[100,8420],[100,8503],[100,8587],[100,8670],[100,8753],[100,8836],[100,8920],[100,9004],[100,9086],[100,9170],[100,9253],[100,9337],[100,9420],[100,9503],[100,9587],[100,9671],[100,9754],[100,9837],[100,9920]]",1,0,508.2089,509.2911,99.68811035,0.6177,"[{""rating"":99.6881103515625,""responseTime"":0.6176999999285044}]",space,0.534,,509.2911,Not at all,0,509.2969,,,[],,0,15,15,15,1,audio/Narrative8Situation6.wav,audio/Narrative7Situation6.wav,audio/Narrative6Situation6.wav,audio/Narrative5Situation6.wav,2,3,2,3,,,,,,,,,,,,,,,,,,,,,,,,,,,,,,,,,,,,,
,,,,,,664156baa6d54764ead4be7c,2024-05-13_11h45.08.476,group3.1-3.2-social-tom,2023.2.2,MacIntel,59.97361161,65c5074098b851296ff0b7ed,6642354db975e8c5f7c2a7c2,,,,,,,,,,,,,,,,,,,,,,,,,,,,,509.297,1,audio/Narrative7Situation7.wav,514.3102,,514.3102,531.471,"[[99.5,1418],[98.2,1502],[91,1585],[55.2,1668],[47,1750],[47,1835],[47,1918],[47,2000],[48.3,2084],[48.6,2168],[48.6,2252],[48.6,2334],[48.6,2417],[48.6,2500],[48.6,2586],[48.6,2668],[48.6,2752],[48.6,2835],[48.6,2919],[48.6,3002],[48.6,3085],[48.6,3168],[48.6,3251],[48.6,3336],[48.6,3419],[48.6,3502],[48.6,3586],[48.6,3668],[48.6,3752],[48.6,3835],[48.6,3918],[48.6,4001],[48.6,4085],[48.6,4168],[48.6,4252],[48.6,4336],[48.6,4419],[57.8,4501],[99.2,5420],[99.5,5503],[100,5587],[100,5669],[100,5752],[100,5836],[100,5919],[100,6004],[100,6088],[100,6171],[100,6254],[100,6336],[100,6420],[100,6503],[100,6587],[100,6671],[100,6753],[100,6837],[100,6919],[100,7003],[100,7087],[100,7170],[100,7253],[100,7337],[100,7420],[100,7503],[100,7586],[100,7670],[100,7754],[100,7836],[100,7920],[100,8003],[100,8088],[100,8171],[100,8255],[100,8337],[100,8421],[100,8505],[100,8588],[100,8671],[100,8754],[100,8838],[100,8921],[100,9005],[100,9087],[100,9171],[100,9254],[100,9337],[100,9421],[100,9504],[100,9588],[100,9671],[100,9755],[100,9837],[100,9921],[100,10005],[100,10089],[100,10171],[100,10254],[100,10338],[100,10422],[100,10505],[100,10589],[100,10671],[100,10755],[100,10838],[100,10921],[100,11004],[100,11088],[100,11171],[100,11255],[100,11338],[100,11423],[100,11505],[100,11588],[100,11672],[97.5,11755],[88.6,11838],[82.6,11923],[81.9,12006],[81.9,12088],[81.9,12172],[77.7,12255],[55.5,12839],[52.4,12924],[47.8,13006],[44.6,13173],[44.6,13256],[44.6,13340],[44.6,13423],[42.7,13506],[36.5,14923],[70.8,15007],[84.6,15090],[84.6,15173],[84.6,15257],[92.5,15340],[100,15424],[100,15508],[100,15590],[100,15675],[100,15757],[100,15840],[100,15924],[100,16008],[100,16092],[100,16175],[100,16259],[100,16342],[100,16426],[100,16509],[84.6,16591],[82.5,16676],[82.5,16759],[81.8,16842],[77.4,16926],[74.3,17009],[73,17094]]",1,0,531.4712,533.5543,71.53076172,1.2106,"[{""rating"":71.53076171875,""responseTime"":1.21060000002376}]",space,1.5339,,533.5544,Definitely yes,100,533.5611,,,[],,0,16,16,16,1,audio/Narrative8Situation7.wav,audio/Narrative7Situation7.wav,audio/Narrative6Situation7.wav,audio/Narrative5Situation7.wav,3,5,5,4,,,,,,,,,,,,,,,,,,,,,,,,,,,,,,,,,,,,,
,,,,,,664156baa6d54764ead4be7c,2024-05-13_11h45.08.476,group3.1-3.2-social-tom,2023.2.2,MacIntel,59.97361161,65c5074098b851296ff0b7ed,6642354db975e8c5f7c2a7c2,,,,,,,,,,,,,,,,,,,,,,,,,,,,,533.5614,1,audio/Narrative7Situation8.wav,535.5711,,535.5712,545.5919,"[[72.5,2001],[73.1,2084],[69,2166],[55,2584],[54.9,2667],[54.9,2752],[53.3,2835],[52.1,2917],[50.2,3002],[49.6,3085],[49.6,3168],[49.5,3250],[48.1,3334],[46.1,3418],[41.2,3501],[40.8,3584],[40.8,3668],[40.8,3751],[41.5,3834],[41.4,3918],[35.6,4002],[32.3,4085],[32.1,4169],[33.8,4251],[37.4,4335],[28.5,4418],[22.7,4501],[22.5,4585],[22.5,4668],[22.7,4751],[24.4,4835],[25,4918],[25.5,5003],[25.7,5086],[25.7,5168],[25.7,5251],[25.7,5334],[25.7,5418],[25.7,5502],[25.7,5585],[25.7,5669],[25.7,5751],[25.7,5835],[25.7,5918],[25.7,6002],[25.7,6085],[25.7,6169],[25.7,6253],[25.7,6336],[25.7,6419],[25.7,6502],[25.7,6586],[25.7,6668],[25.7,6752],[25.7,6836],[25.7,6920],[25.7,7003],[25.7,7086],[25.7,7170],[25.7,7252],[25.7,7336],[100,8003],[100,8088],[99.3,8170],[99.2,8253],[99.2,8337],[99.3,8419],[100,8504],[100,8586],[100,8670],[100,8753],[100,8836],[100,8920],[100,9003],[100,9086],[100,9170],[100,9254],[100,9337],[100,9420],[100,9503],[100,9586],[100,9670],[100,9753],[100,9838],[100,9921],[100,10004]]",1,0,545.592,549.9951,67.20825195,3.1966,"[{""rating"":67.208251953125,""responseTime"":3.19659999990472}]",space,3.8555,,549.9951,Definitely yes,100,549.9999,,,[],,0,17,17,17,1,audio/Narrative8Situation8.wav,audio/Narrative7Situation8.wav,audio/Narrative6Situation8.wav,audio/Narrative5Situation8.wav,3,2,5,3,,,,,,,,,,,,,,,,,,,,,,,,,,,,,,,,,,,,,
,,,,,,664156baa6d54764ead4be7c,2024-05-13_11h45.08.476,group3.1-3.2-social-tom,2023.2.2,MacIntel,59.97361161,65c5074098b851296ff0b7ed,6642354db975e8c5f7c2a7c2,,,,,,,,,,,,,,,,,,,,,,,,,,,,,550.0001,1,audio/Narrative7Situation9.wav,552.0121,,552.0122,560.6327,"[[999,0],[999,83],[999,166],[999,249],[999,333],[999,416],[999,499],[999,582],[999,667],[999,749],[999,833],[999,917],[999,1000],[999,1084],[999,1167],[999,1250],[999,1333],[999,1417],[999,1501],[999,1585],[999,1667],[999,1751],[999,1834],[999,1916],[999,2000],[999,2085],[94,2166],[93.7,2250],[94.7,2333],[96.8,2417],[98.1,2501],[98.8,2585],[99.4,2667],[99.6,2751],[99.6,2834],[99.6,2917],[99.6,3000],[99.6,3084],[99.6,3168],[99.6,3252],[99.6,3335],[99.6,3419],[99.6,3500],[99.6,3583],[99.6,3668],[99.6,3750],[99.6,3834],[99.6,3918],[99.6,4001],[99.6,4085],[99.6,4168],[99.6,4252],[99.6,4336],[99.6,4418],[99.6,4501],[99.6,4584],[99.6,4668],[99.6,4752],[99.6,4835],[99.6,4919],[99.6,5002],[99.6,5085],[99.6,5168],[99.6,5252],[99.6,5335],[99.6,5419],[99.6,5503],[99.6,5586],[99.6,5668],[99.6,5752],[99.6,5835],[99.6,5919],[99.6,6002],[99.6,6085],[99.6,6168],[99.6,6251],[99.6,6335],[99.6,6418],[99.6,6503],[99.6,6585],[99.6,6668],[99.6,6753],[99.6,6835],[99.6,6919],[99.6,7002],[99.6,7085],[99.6,7169],[99.6,7252],[99.6,7337],[99.6,7421],[99.6,7502],[99.6,7586],[99.6,7669],[99.6,7754],[99.6,7836],[99.6,7920],[99.6,8004],[99.6,8087],[99.6,8170],[99.6,8253],[99.6,8337],[99.6,8421],[99.6,8504],[99.6,8587]]",1,0,560.6329,562.2163,99.5526123,0.6853,"[{""rating"":99.5526123046875,""responseTime"":0.685299999952349}]",space,1.0557,,562.2163,Definitely yes,100,562.2205,,,[],,0,18,18,18,1,audio/Narrative8Situation9.wav,audio/Narrative7Situation9.wav,audio/Narrative6Situation9.wav,audio/Narrative5Situation9.wav,3,2,4,3,,,,,,,,,,,,,,,,,,,,,,,,,,,,,,,,,,,,,
,,,,,,664156baa6d54764ead4be7c,2024-05-13_11h45.08.476,group3.1-3.2-social-tom,2023.2.2,MacIntel,59.97361161,65c5074098b851296ff0b7ed,6642354db975e8c5f7c2a7c2,,,,,,,,,,,,,,,,,,,,,,,,,,,568.8176,571.388,571.4025,2,audio/Narrative13Situation2.wav,571.4026,,571.4026,601.1529,"[[99.5,1421],[11.1,2169],[3.5,2586],[2.3,2669],[1.9,2753],[1.1,2836],[0.8,2920],[0.8,3003],[0.8,3086],[0.8,3169],[0.8,3253],[0.8,3337],[0.8,3419],[0.8,3502],[0.8,3587],[0.8,3670],[0.8,3753],[0.8,3837],[0.8,3920],[0.8,4003],[0.8,4087],[0.8,4171],[0.8,4253],[0.8,4337],[0.8,4420],[0.8,4504],[0.8,4586],[0.8,4671],[0.8,4755],[0.8,4837],[0.8,4920],[0.8,5003],[0.8,5086],[0.8,5170],[0.8,5254],[0.8,5337],[0.8,5421],[0.8,5505],[0.8,5588],[0.8,5670],[0.8,5754],[0.8,5838],[0.8,5921],[0.8,6004],[0.8,6087],[0.8,6171],[0.8,6256],[0.8,6338],[0.8,6422],[0.8,6504],[0.8,6589],[0.8,6671],[0.8,6754],[0.8,6838],[0.8,6921],[0.8,7004],[0.8,7088],[0.8,7171],[0.8,7254],[0.8,7337],[0.8,7422],[0.8,7506],[0.8,7589],[0.8,7671],[0.8,7756],[0.8,7838],[0.8,7921],[14.5,8005],[55.3,8172],[55.3,8256],[55.3,8338],[88.1,8588],[92.3,8672],[97.3,8755],[100,8839],[100,8922],[100,9007],[100,9090],[100,9172],[100,9257],[100,9340],[100,9422],[100,9505],[100,9589],[100,9672],[100,9756],[100,9839],[100,9922],[100,10006],[100,10089],[100,10173],[100,10255],[100,10339],[100,10422],[100,10506],[100,10589],[100,10673],[100,10756],[100,10840],[100,10923],[100,11007],[100,11090],[100,11173],[100,11256],[100,11341],[100,11423],[100,11506],[100,11590],[100,11673],[100,11756],[100,11840],[100,11925],[100,12006],[100,12090],[100,12174],[100,12258],[100,12341],[100,12424],[100,12507],[100,12591],[100,12673],[100,12757],[100,12841],[100,12924],[100,13008],[100,13090],[100,13174],[100,13258],[100,13341],[100,13425],[100,13508],[100,13590],[100,13675],[100,13759],[100,13841],[100,13924],[100,14009],[100,14091],[100,14174],[100,14258],[100,14341],[100,14425],[100,14508],[100,14591],[100,14675],[100,14759],[100,14841],[100,14925],[100,15008],[100,15091],[100,15175],[100,15259],[100,15342],[100,15425],[100,15509],[100,15591],[100,15675],[100,15759],[100,15841],[100,15925],[100,16008],[100,16092],[100,16176],[94.8,16266],[47,17010],[47,17092],[47,17176],[45.8,17260],[44.6,17342],[41.4,17427],[39,17511],[39,17593],[39,17676],[39,17759],[39,17842],[39,17927],[35.9,18009],[32.7,18093],[31.9,18176],[31.9,18260],[31.3,18343],[30.5,18427],[30.3,18510],[30.3,18593],[30.3,18676],[30.3,18759],[30.3,18843],[30.3,18926],[30.3,19011],[30.3,19094],[30.3,19176],[30.3,19260],[30.3,19345],[30.3,19427],[30.3,19511],[30.3,19595],[30.3,19678],[30.3,19761],[30.3,19845],[30.3,19928],[30.3,20012],[30.3,20094],[30.3,20179],[30.3,20262],[30.3,20344],[30.3,20428],[30.3,20512],[30.3,20595],[30.3,20678],[30.3,20762],[30.3,20845],[30.3,20927],[30.3,21012],[30.3,21094],[30.3,21178],[30.3,21262],[30.3,21345],[30.3,21428],[30.3,21512],[30.3,21595],[30.3,21679],[30.3,21761],[30.3,21846],[30.3,21928],[30.3,22013],[30.3,22095],[30.3,22179],[30.3,22261],[30.3,22345],[30.3,22430],[30.3,22513],[30.3,22596],[30.3,22679],[30.3,22762],[30.3,22845],[30.3,22928],[30.3,23012],[30.3,23096],[30.3,23179],[30.3,23263],[30.3,23347],[30.3,23429],[30.3,23512],[30.3,23595],[30.3,23679],[30.3,23763],[30.3,23846],[30.3,23930],[30.3,24013],[30.3,24096],[30.3,24179],[30.3,24263],[30.3,24346],[30.3,24430],[30.3,24513],[30.3,24596],[30.3,24679],[30.3,24763],[30.3,24846],[30.3,24929],[30.3,25014],[30.3,25097],[30.3,25180],[30.3,25264],[30.3,25347],[30.3,25430],[30.3,25514],[30.3,25598],[30.3,25681],[30.3,25764],[30.3,25847],[30.3,25930],[30.3,26014],[30.3,26097],[30.3,26180],[30.3,26263],[30.3,26347],[30.3,26430],[30.3,26515],[30.3,26596],[30.3,26680],[30.3,26765],[30.3,26848],[30.3,26930],[30.3,27014],[30.3,27097],[30.3,27180],[30.3,27265],[30.3,27348],[30.3,27432],[30.3,27514],[30.3,27598],[30.3,27682],[30.3,27765],[30.3,27847],[30.3,27931],[30.3,28015],[30.3,28099],[30.3,28182],[30.3,28264],[30.3,28347],[30.3,28431],[30.3,28514],[30.3,28598],[30.3,28681],[30.3,28765],[30.3,28848],[30.3,28932],[30.3,29015],[30.3,29098],[30.3,29181],[30.3,29266],[30.3,29348],[30.3,29432],[30.3,29515],[30.3,29598],[30.3,29682]]",1,0,601.1536,601.1672,,,[],,,,601.1673,Not at all,0,601.1722,,,[],,0,0,0,0,1,audio/Narrative13Situation2.wav,audio/Narrative13Situation2.wav,audio/Narrative13Situation2.wav,audio/Narrative13Situation2.wav,2,2,2,2,,,,,562.2222,568.8034,space,6.0498,,,,,,,,,,,,,,,,,,,,,,,,,,,,,
,,,,,,664156baa6d54764ead4be7c,2024-05-13_11h45.08.476,group3.1-3.2-social-tom,2023.2.2,MacIntel,59.97361161,65c5074098b851296ff0b7ed,6642354db975e8c5f7c2a7c2,,,,,,,,,,,,,,,,,,,,,,,,,,,,,601.173,2,audio/Narrative6Situation1.wav,603.1862,,603.1863,629.7986,"[[25.6,84],[25.8,166],[25.8,250],[25.8,332],[25.8,417],[25.8,499],[25.5,583],[23.5,666],[22.2,751],[22,832],[22,916],[22.5,1001],[22.5,1084],[22.5,1166],[22.5,1250],[22.5,1333],[22.5,1416],[22.5,1500],[22.5,1583],[22.5,1666],[22.5,1750],[22.5,1833],[22.5,1916],[22.5,2000],[22.5,2084],[22.5,2167],[22.5,2250],[22.5,2333],[22.9,2417],[23.9,2501],[24.7,2584],[25.1,2667],[25.4,2750],[25.4,2834],[25.4,2918],[25.4,3002],[25.2,3085],[24.5,3167],[24.4,3250],[24.3,3334],[24.3,3417],[24.3,3501],[24.3,3584],[24.3,3668],[24.3,3751],[24.6,3834],[25.3,3918],[24.6,4002],[23,4085],[22.3,4168],[22.3,4252],[22.3,4335],[15.3,4418],[4.7,4501],[2.7,4586],[2.7,4668],[2.7,4752],[2.7,4834],[2.7,4918],[2.7,5001],[2.7,5085],[100,5585],[100,5668],[100,5752],[100,5835],[100,5919],[100,6002],[100,6085],[100,6168],[100,6252],[100,6335],[100,6419],[100,6502],[100,6585],[100,6670],[100,6752],[100,6836],[100,6919],[100,7002],[100,7085],[100,7169],[100,7253],[100,7337],[100,7421],[100,7504],[100,7587],[100,7671],[100,7754],[100,7836],[100,7920],[100,8004],[100,8087],[100,8169],[100,8254],[100,8337],[100,8420],[100,8503],[100,8588],[100,8671],[100,8754],[100,8837],[100,8921],[100,9004],[100,9087],[100,9171],[100,9254],[100,9338],[100,9420],[100,9504],[100,9588],[100,9671],[100,9753],[100,9838],[100,9921],[100,10004],[100,10087],[100,10171],[100,10254],[100,10338],[100,10422],[100,10504],[100,10587],[100,10672],[100,10755],[100,10837],[100,10922],[100,11005],[100,11089],[100,11171],[100,11255],[89.2,11343],[15.8,11756],[15,11839],[14.4,11922],[14.5,12005],[14.5,12088],[14.4,12175],[14.2,12256],[14.2,12339],[14.2,12421],[14.2,12505],[14.4,12589],[14.4,12673],[14.4,12756],[14.4,12839],[14.4,12922],[14.4,13005],[14.4,13089],[14.4,13173],[14.4,13255],[14.4,13340],[14.4,13422],[14.4,13507],[13.8,13589],[11.5,13673],[10.5,13756],[9.6,13839],[8.7,13924],[8.6,14007],[8.6,14089],[8.6,14173],[11.9,14257],[29.9,14673],[25.6,14757],[18.9,14849],[14.4,14924],[14.1,15008],[14.1,15090],[13.4,15174],[7.9,15258],[6.6,15340],[6.1,15424],[5.6,15507],[5.6,15590],[5.3,15673],[4.5,15758],[3.8,15840],[3.1,15924],[2.8,16008],[2.7,16091],[2.7,16174],[2.7,16258],[2.7,16341],[2.7,16423],[2.7,16507],[2.2,16590],[1.6,16674],[1.6,16757],[1.6,16840],[1.6,16924],[1.6,17007],[1.6,17090],[1.6,17173],[1.6,17258],[1.6,17340],[1.6,17424],[1.9,17507],[7.1,17591],[11.3,17675],[13.4,17757],[13.4,17841],[13.4,17924],[13.4,18008],[13.4,18091],[13.4,18175],[13.4,18257],[13.4,18341],[13.1,18426],[12.3,18509],[11.5,18591],[11.3,18675],[11.3,18759],[11,18842],[10.9,18925],[10.7,19009],[10.6,19092],[10.6,19175],[10.3,19259],[10.1,19342],[10.1,19425],[10.1,19509],[10.1,19591],[10.1,19675],[10.1,19758],[9.1,19842],[8.3,19926],[7.8,20009],[7.2,20092],[6.7,20177],[6.6,20259],[6.6,20342],[6.4,20426],[6.4,20510],[6.4,20593],[6.4,20675],[6.4,20759],[9.2,20842],[100,21426],[100,21510],[100,21594],[100,21678],[100,21759],[100,21843],[100,21927],[100,22009],[100,22094],[100,22176],[100,22261],[100,22343],[100,22428],[100,22510],[100,22593],[100,22677],[100,22760],[100,22843],[100,22926],[100,23010],[100,23094],[100,23176],[100,23261],[100,23344],[100,23427],[100,23511],[100,23594],[100,23677],[100,23761],[100,23843],[100,23927],[100,24012],[100,24093],[100,24177],[100,24261],[100,24344],[100,24427],[100,24511],[100,24594],[100,24677],[100,24760],[100,24844],[100,24927],[100,25011],[100,25094],[100,25177],[100,25262],[100,25344],[100,25428],[100,25511],[100,25594],[100,25678],[100,25761],[100,25845],[100,25928],[99.4,26011],[98.3,26096],[97.4,26179],[96.4,26261],[93.7,26346],[100,26428],[100,26512],[100,26595]]",1,0,629.7988,633.1512,40.84899902,2.4976,"[{""rating"":50.52001953125001,""responseTime"":1.681799999952318},{""rating"":40.8489990234375,""responseTime"":2.4976000000237946}]",space,2.8189,,633.1513,Partially,50,633.1574,,,[],,0,1,1,1,1,audio/Narrative7Situation1.wav,audio/Narrative8Situation1.wav,audio/Narrative5Situation1.wav,audio/Narrative6Situation1.wav,2,5,5,2,,,,,,,,,,,,,,,,,,,,,,,,,,,,,,,,,,,,,
,,,,,,664156baa6d54764ead4be7c,2024-05-13_11h45.08.476,group3.1-3.2-social-tom,2023.2.2,MacIntel,59.97361161,65c5074098b851296ff0b7ed,6642354db975e8c5f7c2a7c2,,,,,,,,,,,,,,,,,,,,,,,,,,,,,633.1576,2,audio/Narrative6Situation2.wav,636.1685,,636.1685,664.6665,"[[999,11],[999,84],[999,166],[999,250],[999,334],[999,416],[999,500],[999,584],[999,667],[999,750],[999,833],[999,917],[999,1001],[999,1084],[999,1168],[999,1250],[999,1334],[999,1418],[999,1501],[999,1584],[999,1667],[999,1751],[999,1833],[999,1918],[999,2001],[999,2084],[999,2167],[999,2251],[999,2333],[999,2417],[999,2501],[999,2584],[999,2667],[999,2751],[2.6,2834],[2.1,2918],[1.6,3001],[1.3,3086],[1.3,3167],[1.2,3252],[1.2,3334],[1.2,3417],[1.2,3502],[1.2,3584],[1.2,3668],[1.2,3751],[1.2,3835],[1.2,3919],[1.2,4001],[1.2,4084],[1.2,4168],[1.2,4252],[1.2,4335],[1.2,4418],[1.2,4502],[1.2,4585],[1.2,4669],[1.2,4752],[1.2,4835],[1.2,4918],[1.2,5002],[1.2,5085],[1.2,5169],[1.2,5253],[1.2,5336],[1.2,5419],[1.2,5502],[1.2,5586],[1.2,5670],[1.2,5753],[1.2,5837],[1.2,5919],[1.2,6002],[1.2,6086],[1.2,6170],[1.2,6253],[1.2,6336],[1.2,6420],[1.2,6502],[1.2,6587],[1.2,6669],[1.2,6754],[1.2,6836],[1.2,6920],[1.2,7003],[1.2,7087],[1.2,7169],[1.2,7254],[1.2,7336],[1.2,7421],[1,7503],[1,7586],[1,7669],[1,7754],[1,7837],[1,7921],[0.9,8003],[0.8,8087],[0.8,8170],[0.8,8254],[0.8,8336],[0.8,8420],[0.8,8503],[0.8,8587],[0.8,8670],[0.8,8754],[0.8,8838],[0.8,8920],[0.8,9004],[0.8,9087],[0.8,9171],[0.8,9254],[0.8,9337],[0.8,9422],[0.8,9504],[0.8,9587],[0.8,9672],[0.8,9755],[0.8,9838],[0.8,9921],[0.8,10004],[0.8,10087],[0.8,10171],[0.8,10256],[0.8,10338],[0.8,10421],[0.8,10505],[0.8,10588],[0.8,10671],[0.8,10755],[0.8,10838],[0.8,10922],[0.8,11006],[0.8,11089],[0.8,11172],[0.8,11254],[0.8,11338],[0.8,11422],[0.8,11505],[0.8,11589],[0.8,11671],[0.8,11755],[0.8,11839],[0.8,11921],[0.8,12006],[0.8,12088],[0.8,12172],[0.8,12255],[0.8,12339],[0.8,12421],[0.8,12506],[0.8,12589],[0.8,12673],[0.8,12756],[0.8,12839],[0.8,12923],[0.8,13005],[0.8,13088],[2.4,13178],[92.8,14006],[92.8,14090],[95.3,14172],[97.7,14257],[98.7,14339],[99.6,14423],[99.8,14507],[99.8,14590],[99.8,14673],[99.8,14757],[99.8,14840],[99.8,14924],[99.8,15007],[99.8,15090],[99.8,15174],[99.8,15257],[99.8,15341],[99.8,15423],[99.8,15507],[99.8,15590],[99.8,15673],[99.8,15756],[99.8,15840],[99.8,15923],[99.8,16006],[99.8,16091],[99.8,16173],[99.8,16258],[99.8,16341],[99.8,16423],[99.8,16507],[99.8,16590],[99.8,16674],[99.8,16757],[99.8,16841],[99.8,16924],[99.8,17007],[99.8,17090],[99.8,17174],[99.8,17258],[99.8,17341],[99.8,17425],[99.8,17509],[99.8,17591],[99.8,17674],[99.8,17758],[99.8,17841],[99.8,17924],[99.8,18007],[99.8,18092],[99.8,18175],[99.8,18257],[99.8,18342],[99.8,18425],[99.8,18508],[99.8,18592],[99.8,18674],[99.8,18758],[99.8,18841],[99.8,18925],[99.8,19009],[99.8,19093],[99.8,19175],[99.8,19259],[99.8,19341],[99.8,19425],[99.8,19508],[99.8,19591],[99.8,19675],[99.8,19758],[99.8,19842],[99.8,19925],[99.8,20008],[99.8,20092],[99.8,20176],[99.8,20259],[99.8,20342],[99.8,20425],[99.8,20509],[99.8,20592],[99.8,20675],[99.8,20760],[99.8,20842],[99.8,20926],[99.8,21009],[99.8,21092],[99.8,21176],[99.8,21259],[99.8,21342],[99.8,21426],[99.8,21509],[99.8,21593],[99.8,21677],[99.8,21759],[99.8,21843],[99.8,21927],[99.8,22009],[99.8,22093],[99.8,22176],[99.8,22259],[99.8,22343],[99.8,22426],[99.8,22510],[99.8,22593],[99.8,22676],[99.8,22759],[99.8,22843],[99.8,22927],[99.8,23009],[99.8,23093],[99.8,23176],[99.8,23260],[99.8,23343],[99.8,23427],[99.8,23510],[99.8,23594],[99.8,23677],[99.8,23761],[99.8,23844],[99.8,23928],[99.8,24010],[99.8,24094],[99.8,24177],[99.8,24261],[99.8,24344],[99.8,24428],[99.8,24511],[99.8,24595],[99.8,24678],[100,24771],[100,24846],[100,24929],[100,25012],[100,25095],[100,25179],[100,25262],[100,25346],[100,25427],[100,25512],[100,25595],[100,25679],[100,25762],[100,25846],[100,25929],[100,26013],[100,26096],[100,26179],[100,26263],[100,26345],[100,26428],[100,26512],[100,26596],[100,26680],[100,26762],[100,26846],[100,26930],[100,27013],[100,27096],[100,27180],[100,27263],[100,27346],[100,27429],[100,27514],[100,27595],[100,27679],[100,27763],[100,27846],[100,27930],[100,28012],[100,28097],[100,28180],[100,28262],[100,28346],[100,28431]]",1,0,664.6668,666.5166,95.69885254,1.262,"[{""rating"":95.6988525390625,""responseTime"":1.2620000000000573}]",space,1.2985,,666.5167,Not at all,0,666.5227,,,[],,0,2,2,2,1,audio/Narrative7Situation2.wav,audio/Narrative8Situation2.wav,audio/Narrative5Situation2.wav,audio/Narrative6Situation2.wav,3,3,3,3,,,,,,,,,,,,,,,,,,,,,,,,,,,,,,,,,,,,,
,,,,,,664156baa6d54764ead4be7c,2024-05-13_11h45.08.476,group3.1-3.2-social-tom,2023.2.2,MacIntel,59.97361161,65c5074098b851296ff0b7ed,6642354db975e8c5f7c2a7c2,,,,,,,,,,,,,,,,,,,,,,,,,,,,,666.5231,2,audio/Narrative6Situation3.wav,671.5363,,671.5366,684.1573,"[[77.3,2249],[77.3,2332],[77.3,2416],[74.6,2499],[70.1,2583],[65.4,2666],[60.2,2750],[60.2,2833],[60.2,2916],[59.1,2999],[55,3084],[53.7,3166],[53.1,3250],[52.2,3333],[51.4,3417],[51,3500],[51,3583],[51,3667],[51,3750],[51,3833],[51,3916],[51,4000],[51,4083],[51,4167],[51,4249],[51,4333],[51,4417],[51,4500],[51,4583],[51,4666],[51,4750],[51,4833],[51,4917],[51,5001],[51,5083],[51,5168],[51,5251],[51,5334],[51,5417],[51,5501],[51,5584],[51,5667],[51,5750],[51,5833],[51,5918],[51,6000],[51,6085],[51,6168],[51,6250],[51,6334],[51,6418],[51,6501],[51,6584],[56,6668],[85.9,6834],[85.9,6918],[85.9,7002],[86.6,7085],[89.3,7171],[91.1,7252],[93,7335],[94.7,7418],[97,7503],[98.5,7585],[99.4,7668],[99.9,7752],[99.8,7835],[99.8,7919],[99.8,8002],[99.8,8085],[99.8,8168],[99.8,8252],[99.8,8335],[99.8,8419],[99.8,8502],[99.8,8585],[99.8,8669],[99.8,8752],[99.8,8836],[99.8,8919],[99.8,9003],[99.8,9085],[99.8,9169],[99.8,9253],[99.8,9336],[99.8,9420],[99.8,9503],[99.8,9587],[99.8,9669],[99.8,9753],[99.8,9837],[99.8,9920],[99.8,10003],[99.8,10087],[99.8,10170],[99.8,10253],[99.8,10336],[99.8,10420],[99.8,10503],[99.8,10587],[99.8,10670],[99.8,10754],[99.8,10837],[99.8,10920],[99.8,11004],[99.8,11087],[99.8,11171],[99.8,11253],[99.8,11337],[99.8,11419],[99.8,11503],[99.8,11588],[99.8,11670],[99.8,11754],[99.8,11837],[99.8,11921],[99.8,12004],[99.8,12088],[99.8,12170],[99.8,12254],[99.8,12338],[99.8,12421],[99.8,12504],[99.8,12587]]",1,0,684.1574,686.5599,90.71594238,1.0684,"[{""rating"":90.7159423828125,""responseTime"":1.0684000000953802}]",space,1.8688,,686.56,Definitely yes,100,686.5667,,,[],,0,3,3,3,1,audio/Narrative7Situation3.wav,audio/Narrative8Situation3.wav,audio/Narrative5Situation3.wav,audio/Narrative6Situation3.wav,8,4,3,5,,,,,,,,,,,,,,,,,,,,,,,,,,,,,,,,,,,,,
,,,,,,664156baa6d54764ead4be7c,2024-05-13_11h45.08.476,group3.1-3.2-social-tom,2023.2.2,MacIntel,59.97361161,65c5074098b851296ff0b7ed,6642354db975e8c5f7c2a7c2,,,,,,,,,,,,,,,,,,,,,,,,,,,,,686.5671,2,audio/Narrative6Situation4.wav,688.5764,,688.5765,701.2009,"[[88.8,500],[88.8,583],[88.8,667],[88.8,750],[88.8,834],[88.1,918],[82.6,1000],[78.6,1084],[77.2,1168],[77,1250],[77,1333],[77,1416],[70.1,1500],[53.1,1584],[53.1,1668],[53.1,1750],[52.8,1833],[40.8,1919],[35.5,2001],[35.5,2083],[35.4,2167],[28.7,2251],[20.1,2335],[19,2417],[19,2501],[19,2584],[19,2668],[15.1,2752],[12.3,2835],[12.3,2917],[12.3,3001],[12.3,3085],[12.3,3169],[12.3,3252],[14.1,3335],[15.1,3418],[15.1,3501],[19.4,3585],[41.1,3668],[44.1,3751],[44.1,3834],[45,3918],[47.2,4001],[47.4,4085],[47.4,4169],[47.4,4251],[47.5,4334],[47.8,4418],[48.5,4502],[48.6,4585],[48.9,4668],[49,4751],[49,4835],[48.1,4918],[48.1,5001],[48.1,5085],[48.1,5170],[48.1,5252],[48.1,5335],[48.1,5419],[48.1,5502],[48.1,5585],[48.1,5669],[48.1,5752],[48.1,5835],[48.1,5920],[48.1,6003],[48.1,6087],[48.1,6169],[48.1,6253],[48.1,6335],[48.1,6419],[48.1,6502],[48.1,6586],[48.1,6670],[48.1,6752],[48.1,6837],[48.1,6920],[48.1,7004],[48.1,7087],[48.1,7169],[48.1,7252],[48.1,7336],[48.1,7419],[48.1,7503],[48.1,7586],[48.1,7670],[48.1,7753],[48.1,7836],[48.1,7920],[48.1,8003],[48.1,8086],[48.1,8171],[48.1,8253],[48.1,8337],[48.1,8421],[48.1,8503],[48.1,8588],[48.1,8670],[47.9,8753],[47.9,8836],[46.7,8920],[44.1,9003],[41.5,9088],[40.4,9171],[40.4,9253],[40.4,9338],[35.3,9420],[25.1,9921],[24.3,10005],[22.8,10087],[21.5,10171],[20.9,10254],[20.7,10337],[20.7,10421],[20.4,10504],[20.2,10588],[19.9,10670],[19.9,10754],[19.9,10838],[19.9,10921],[19.9,11005],[19.9,11088],[18.8,11172],[17.2,11255],[16.7,11338],[16.6,11422],[16.5,11504],[16.1,11588],[15.7,11671],[15.7,11755],[15.7,11838],[15.7,11923],[15.7,12006],[13.7,12089],[10.6,12173],[7.2,12256],[7.2,12339],[7.2,12423],[6,12508],[1.9,12589]]",1,0,701.2012,702.7665,12.65136719,0.912,"[{""rating"":12.651367187500002,""responseTime"":0.9120000000000346}]",space,1.0186,,702.7666,Partially,50,712.6055,50.08300781,8.5681,"[{""rating"":50.0830078125,""responseTime"":8.568100000023833}]",space,0,4,4,4,1,audio/Narrative7Situation4.wav,audio/Narrative8Situation4.wav,audio/Narrative5Situation4.wav,audio/Narrative6Situation4.wav,3,3,1,2,,,9.3056,,,,,,,,,,,,,,,,,,,,,,,,,,,,,,,,,,
,,,,,,664156baa6d54764ead4be7c,2024-05-13_11h45.08.476,group3.1-3.2-social-tom,2023.2.2,MacIntel,59.97361161,65c5074098b851296ff0b7ed,6642354db975e8c5f7c2a7c2,,,,,,,,,,,,,,,,,,,,,,,,,,,,,712.6062,2,audio/Narrative6Situation5.wav,714.6221,,714.6222,722.5936,"[[999,0],[999,83],[999,168],[999,250],[999,333],[999,417],[999,501],[999,584],[999,667],[999,751],[999,833],[999,916],[999,1001],[999,1084],[999,1167],[999,1250],[999,1334],[999,1417],[999,1500],[999,1584],[999,1667],[999,1752],[16.7,1835],[20.1,1918],[27.4,2002],[38.3,2085],[39.8,2167],[39.8,2250],[39.8,2334],[43.1,2418],[44.9,2501],[47.3,2585],[48.4,2667],[48.5,2751],[48.4,2835],[48.4,2918],[48.4,3002],[49.1,3085],[55.2,3168],[63.7,3251],[65.7,3334],[65.7,3418],[65.7,3501],[67,3585],[69.8,3669],[72,3751],[72.7,3836],[72.6,3919],[72.6,4001],[72.6,4086],[72.6,4169],[72.6,4251],[72.6,4335],[72.6,4419],[72.6,4501],[72.6,4585],[72.6,4668],[72.6,4752],[72.6,4836],[72.6,4919],[72.6,5003],[72.6,5086],[72.6,5169],[72.6,5252],[72.6,5336],[72.6,5418],[72.6,5502],[72.6,5585],[72.6,5668],[72.6,5752],[72.6,5835],[72.6,5920],[72.6,6003],[72.6,6085],[72.6,6169],[72.6,6252],[72.6,6336],[72.6,6419],[72.6,6502],[72.6,6586],[72.6,6669],[72.6,6752],[72.6,6836],[72.6,6920],[72.6,7002],[70.2,7087],[65.4,7169],[62.3,7254],[62,7336],[60.9,7420],[60,7503],[60,7586],[60,7669],[59.3,7753],[54.8,7837],[53.2,7920]]",1,0,722.5938,728.3291,2.130737305,5.2446,"[{""rating"":49.9200439453125,""responseTime"":1.4642000000477537},{""rating"":2.130737304687502,""responseTime"":5.2446000000238655}]",space,5.187,,728.3292,Partially,50,728.3336,,,[],,0,5,5,5,1,audio/Narrative7Situation5.wav,audio/Narrative8Situation5.wav,audio/Narrative5Situation5.wav,audio/Narrative6Situation5.wav,5,2,5,2,,,,,,,,,,,,,,,,,,,,,,,,,,,,,,,,,,,,,
,,,,,,664156baa6d54764ead4be7c,2024-05-13_11h45.08.476,group3.1-3.2-social-tom,2023.2.2,MacIntel,59.97361161,65c5074098b851296ff0b7ed,6642354db975e8c5f7c2a7c2,,,,,,,,,,,,,,,,,,,,,,,,,,,,,728.3339,2,audio/Narrative6Situation6.wav,730.346,,730.3461,741.4179,"[[999,1],[999,83],[999,167],[999,250],[999,333],[999,418],[999,501],[999,584],[999,667],[999,751],[999,834],[999,918],[999,1001],[999,1084],[999,1167],[999,1252],[999,1334],[999,1418],[999,1501],[999,1585],[999,1667],[999,1751],[999,1834],[999,1918],[999,2001],[999,2085],[999,2168],[999,2251],[999,2337],[999,2417],[0.5,2501],[0.5,2586],[0.5,2669],[0.5,2751],[0.5,2835],[0.5,2918],[0.5,3002],[0.5,3085],[0.5,3169],[0.5,3252],[0.5,3335],[0.5,3417],[0.5,3502],[0.5,3586],[0.5,3669],[0.5,3751],[0.5,3835],[0.5,3919],[0.5,4002],[0.5,4084],[0.5,4168],[0.5,4253],[0.5,4336],[0.5,4418],[0.5,4503],[0.5,4586],[0.5,4669],[0.5,4752],[0.5,4835],[0.5,4919],[0.5,5002],[0.5,5085],[0.5,5168],[0.5,5253],[0.5,5336],[0.5,5420],[0.5,5503],[0.5,5585],[0.5,5670],[0.5,5752],[0.5,5837],[0.5,5919],[0.5,6003],[0.5,6086],[0.5,6169],[0.5,6252],[0.5,6337],[0.5,6420],[0.5,6503],[0.5,6587],[0.5,6670],[0.5,6753],[0.5,6836],[0.5,6919],[0.5,7004],[0.5,7086],[0.5,7170],[0.5,7253],[0.5,7337],[0.5,7421],[0.5,7503],[0.5,7587],[0.5,7671],[0.5,7754],[0.5,7837],[0.5,7920],[0.5,8003],[1.9,8089],[6.4,8170],[8.1,8254],[10.8,8339],[13.5,8421],[22.5,8503],[44.1,9424],[44.1,9506],[44.1,9588],[44.3,9672],[44.3,9755],[44.3,9837],[44.3,9921],[44.3,10004],[44.2,10088],[44.1,10172],[44.1,10254],[44.1,10337],[44.1,10422],[44.1,10505],[44,10589],[44,10672],[43.9,10754],[43.9,10839],[43.9,10922],[43.9,11006]]",1,0,741.418,744.1708,5.049438477,1.4299,"[{""rating"":5.049438476562501,""responseTime"":1.4298999999762145}]",space,2.2226,,744.1709,Not at all,0,744.1748,,,[],,0,6,6,6,1,audio/Narrative7Situation6.wav,audio/Narrative8Situation6.wav,audio/Narrative5Situation6.wav,audio/Narrative6Situation6.wav,3,2,3,2,,,,,,,,,,,,,,,,,,,,,,,,,,,,,,,,,,,,,
,,,,,,664156baa6d54764ead4be7c,2024-05-13_11h45.08.476,group3.1-3.2-social-tom,2023.2.2,MacIntel,59.97361161,65c5074098b851296ff0b7ed,6642354db975e8c5f7c2a7c2,,,,,,,,,,,,,,,,,,,,,,,,,,,,,744.1751,2,audio/Narrative6Situation7.wav,749.188,,749.1881,774.0357,"[[100,7753],[97.5,7837],[97.4,7921],[98.1,8004],[98.3,8088],[98.3,8171],[98.5,8254],[99.1,8338],[100,8421],[100,8505],[100,8587],[100,8671],[100,8755],[100,8837],[100,8921],[100,9005],[100,9089],[100,9171],[100,9255],[100,9337],[100,9421],[100,9504],[100,9588],[100,9672],[100,9755],[100,9838],[100,9922],[100,10006],[100,10089],[100,10172],[100,10254],[100,10338],[100,10422],[100,10505],[100,10589],[100,10671],[100,10755],[100,10840],[100,10922],[100,11005],[100,11090],[100,11172],[100,11256],[100,11339],[100,11423],[100,11505],[100,11589],[100,11672],[100,11757],[100,11838],[100,11922],[100,12005],[100,12089],[100,12173],[100,12256],[100,12339],[100,12423],[100,12506],[100,12589],[100,12672],[100,12756],[100,12839],[100,12923],[100,13006],[100,13089],[100,13173],[100,13256],[100,13339],[100,13423],[100,13507],[100,13589],[100,13672],[100,13757],[100,13839],[100,13923],[100,14006],[100,14091],[100,14174],[100,14258],[100,14340],[100,14423],[100,14506],[100,14590],[100,14675],[100,14756],[100,14841],[100,14923],[100,15008],[100,15091],[100,15173],[100,15257],[100,15340],[100,15425],[100,15508],[100,15591],[100,15674],[100,15757],[100,15841],[100,15924],[100,16007],[100,16091],[100,16174],[100,16258],[100,16340],[100,16424],[100,16509],[100,16591],[100,16675],[100,16758],[100,16841],[100,16924],[100,17008],[100,17091],[100,17174],[100,17258],[100,17341],[100,17425],[100,17509],[100,17592],[100,17674],[100,17758],[100,17843],[100,17925],[100,18009],[100,18093],[100,18175],[100,18259],[100,18342],[100,18425],[100,18510],[100,18593],[100,18676],[100,18760],[100,18842],[100,18925],[100,19009],[100,19093],[100,19176],[100,19259],[100,19342],[100,19426],[100,19509],[100,19592],[100,19675],[100,19759],[100,19843],[100,19926],[100,20009],[100,20093],[100,20176],[100,20259],[100,20342],[100,20426],[100,20510],[100,20593],[100,20677],[100,20760],[100,20843],[100,20927],[100,21010],[100,21093],[100,21177],[100,21260],[100,21344],[100,21428],[100,21511],[100,21594],[100,21677],[100,21761],[100,21845],[100,21927],[100,22011],[100,22093],[100,22179],[100,22261],[100,22344],[100,22427],[100,22512],[100,22595],[100,22678],[100,22761],[100,22844],[100,22928],[100,23012],[100,23094],[100,23177],[100,23261],[100,23346],[100,23428],[100,23511],[100,23595],[100,23679],[100,23762],[100,23845],[100,23928],[100,24012],[100,24095],[100,24512],[100,24595],[100,24679],[100,24763],[100,24847]]",1,0,774.0362,777.2529,100,2.5992,"[{""rating"":98.4259033203125,""responseTime"":1.9154999999999518},{""rating"":100,""responseTime"":2.599200000047631}]",space,2.6706,,777.253,Definitely yes,100,777.2585,,,[],,0,7,7,7,1,audio/Narrative7Situation7.wav,audio/Narrative8Situation7.wav,audio/Narrative5Situation7.wav,audio/Narrative6Situation7.wav,5,3,4,5,,,,,,,,,,,,,,,,,,,,,,,,,,,,,,,,,,,,,
,,,,,,664156baa6d54764ead4be7c,2024-05-13_11h45.08.476,group3.1-3.2-social-tom,2023.2.2,MacIntel,59.97361161,65c5074098b851296ff0b7ed,6642354db975e8c5f7c2a7c2,,,,,,,,,,,,,,,,,,,,,,,,,,,,,777.2587,2,audio/Narrative6Situation8.wav,782.2706,,782.2706,789.1071,"[[999,12],[999,84],[999,167],[999,250],[999,333],[999,417],[999,500],[999,584],[999,667],[999,751],[999,834],[999,917],[100,1000],[100,1084],[5.4,4351],[5.4,4434],[5.3,4518],[4.5,4602],[3.7,4685],[2.4,4769],[1.9,4852],[1.9,4935],[1.9,5019],[1.2,5102],[0.9,5186],[0.6,5269],[0.2,5352],[0.1,5435],[0.1,5519],[0.1,5602],[0.1,5685],[0.1,5769],[0.1,5852],[0.1,5935],[0.1,6019],[0.1,6103],[0.1,6186],[0.1,6269],[0.1,6352],[0.1,6436],[0.1,6520],[0.1,6602],[0.1,6686],[0.1,6769]]",1,0,789.1072,791.427,0.536499023,1.2803,"[{""rating"":0.5364990234374978,""responseTime"":1.2803000000715201}]",space,1.7695,,791.427,Partially,50,791.4326,,,[],,0,8,8,8,1,audio/Narrative7Situation8.wav,audio/Narrative8Situation8.wav,audio/Narrative5Situation8.wav,audio/Narrative6Situation8.wav,2,3,3,5,,,,,,,,,,,,,,,,,,,,,,,,,,,,,,,,,,,,,
,,,,,,664156baa6d54764ead4be7c,2024-05-13_11h45.08.476,group3.1-3.2-social-tom,2023.2.2,MacIntel,59.97361161,65c5074098b851296ff0b7ed,6642354db975e8c5f7c2a7c2,,,,,,,,,,,,,,,,,,,,,,,,,,,,,791.4328,2,audio/Narrative6Situation9.wav,795.4444,,795.4445,805.3987,"[[9.9,3001],[10.1,3084],[10.1,3167],[9.6,3251],[7.3,3334],[5.3,3417],[4.7,3501],[3.3,3584],[1.7,3669],[1.5,3750],[0.8,3834],[0.6,3918],[0.6,4000],[0.6,4085],[0.6,4167],[0.6,4250],[0.6,4334],[0.6,4419],[0.6,4501],[0.6,4584],[0.6,4667],[0.6,4751],[0.6,4835],[0.6,4918],[0.6,5001],[0.6,5084],[0.6,5169],[0.6,5252],[0.6,5336],[0.6,5419],[0.6,5503],[0.6,5586],[0.6,5669],[0.6,5753],[0.6,5836],[0.6,5919],[0.6,6002],[0.6,6086],[0.6,6169],[0.6,6252],[0.6,6335],[0.6,6420],[0.6,6503],[0.6,6586],[0.6,6669],[0.6,6753],[0.6,6836],[0.6,6920],[0.6,7002],[0.6,7085],[0.6,7169],[0.6,7252],[0.6,7335],[0.6,7419],[0.6,7504],[0.6,7587],[0.6,7670],[0.6,7752],[0.6,7836],[0.6,7920],[0.6,8003],[0.6,8086],[0.6,8169],[0.6,8254],[0.6,8336],[0.6,8420],[0.6,8503],[0.6,8587],[0.6,8670],[0.6,8753],[0.6,8836],[0.6,8920],[0.6,9003],[0.6,9086],[0.6,9170],[0.6,9254],[0.6,9336],[0.6,9421],[0.6,9504],[0.6,9588],[0.6,9671],[0.6,9754],[0.6,9837],[0.6,9921]]",1,0,805.399,806.7016,0.562133789,0.6515,"[{""rating"":0.5621337890625022,""responseTime"":0.6514999999999418}]",space,0.7699,,806.7018,Not at all,0,806.7065,,,[],,0,9,9,9,1,audio/Narrative7Situation9.wav,audio/Narrative8Situation9.wav,audio/Narrative5Situation9.wav,audio/Narrative6Situation9.wav,2,3,3,4,,,,,,,,,,,,,,,,,,,,,,,,,,,,,,,,,,,,,
,,,,,,664156baa6d54764ead4be7c,2024-05-13_11h45.08.476,group3.1-3.2-social-tom,2023.2.2,MacIntel,59.97361161,65c5074098b851296ff0b7ed,6642354db975e8c5f7c2a7c2,,,,,,,,,,,,,,,,,,,,,,,,,,,,,806.7068,2,audio/Narrative5Situation1.wav,811.7191,,811.7191,825.008,"[[0.2,1666],[0.7,1751],[0.7,1832],[0.7,1916],[0.7,2000],[0.5,2084],[0.5,2167],[0.5,2250],[0.5,2334],[0.5,2417],[0.5,2499],[0.5,2583],[0.5,2666],[0.5,2750],[0.5,2833],[0.5,2917],[0.5,3000],[0.5,3085],[0.5,3167],[0.5,3250],[0.5,3333],[0.5,3417],[0.5,3501],[0.5,3583],[0.5,3667],[0.5,3750],[0.5,3834],[0.5,3918],[0.5,4001],[0.5,4084],[0.5,4167],[0.5,4250],[0.5,4335],[0.5,4417],[0.5,4501],[0.5,4584],[0.5,4667],[0.5,4750],[0.5,4835],[0.5,4918],[0.5,5002],[0.5,5084],[0.5,5168],[0.5,5252],[0.5,5334],[0.5,5418],[0.5,5501],[0.5,5584],[0.5,5668],[0.5,5752],[0.5,5842],[0.5,5918],[0.5,6002],[0.5,6085],[0.5,6168],[0.5,6252],[0.5,6335],[0.5,6418],[0.5,6501],[0.5,6585],[0.5,6669],[0.5,6751],[0.5,6835],[0.5,6918],[0.5,7002],[0.5,7086],[0.5,7169],[0.5,7252],[0.5,7335],[0.5,7418],[0.5,7502],[0.5,7585],[0.5,7669],[0.5,7752],[0.5,7835],[0.5,7921],[0.5,8002],[0.5,8086],[0.5,8168],[0.5,8252],[0.5,8336],[0.5,8419],[0.5,8502],[0.5,8585],[0.5,8669],[0.5,8752],[0.5,8837],[0.5,8920],[0.5,9003],[0.5,9087],[0.5,9170],[0.5,9254],[0.5,9337],[0.5,9421],[0.5,9504],[0.5,9587],[0.5,9669],[0.5,9754],[0.5,9838],[0.5,9921],[0.5,10004],[0.5,10087],[0.5,10171],[0.5,10253],[0.5,10338],[0.5,10420],[0.5,10505],[0.5,10588],[0.5,10671],[0.5,10754],[0.5,10837],[0.5,10920],[0.5,11004],[0.5,11087],[0.5,11170],[0.5,11254],[0.5,11338],[0.5,11420],[0.5,11504],[0.5,11589],[0.5,11671],[0.5,11754],[0.5,11839],[0.5,11921],[0.5,12004],[0.5,12088],[0.5,12173],[0.5,12254],[0.5,12338],[0.5,12421],[0.5,12504],[0.5,12589],[0.5,12672],[0.5,12754],[0.5,12839],[0.5,12922],[0.5,13004],[0.5,13089],[0.5,13173],[2.8,13265]]",1,0,825.0081,828.1093,36.06750488,2.6459,"[{""rating"":36.0675048828125,""responseTime"":2.6459000000953665}]",space,2.5707,,828.1095,Definitely yes,100,828.1159,,,[],,0,10,10,10,1,audio/Narrative8Situation1.wav,audio/Narrative7Situation1.wav,audio/Narrative6Situation1.wav,audio/Narrative5Situation1.wav,5,2,2,5,,,,,,,,,,,,,,,,,,,,,,,,,,,,,,,,,,,,,
,,,,,,664156baa6d54764ead4be7c,2024-05-13_11h45.08.476,group3.1-3.2-social-tom,2023.2.2,MacIntel,59.97361161,65c5074098b851296ff0b7ed,6642354db975e8c5f7c2a7c2,,,,,,,,,,,,,,,,,,,,,,,,,,,,,828.1163,2,audio/Narrative5Situation2.wav,831.1278,,831.1279,860.5906,"[[36.6,2417],[37.1,2502],[38.6,2584],[42.3,2667],[45.3,2751],[47.7,2833],[49,2918],[49,3000],[15.5,3501],[15,3584],[11.6,3667],[5.4,3751],[4.3,3834],[3.2,3919],[2.3,4001],[1.9,4084],[1.9,4167],[1.9,4251],[1.9,4334],[1.9,4418],[1.9,4501],[1.9,4584],[1.9,4669],[1.9,4751],[1.9,4835],[1.9,4918],[1.9,5002],[1.9,5085],[1.9,5168],[1.9,5251],[1.9,5335],[1.9,5418],[1.9,5501],[1.9,5585],[1.9,5668],[1.9,5751],[1.9,5835],[1.9,5918],[1.9,6002],[1.9,6086],[1.9,6170],[1.9,6251],[1.9,6335],[1.9,6418],[1.9,6502],[1.9,6585],[1.9,6669],[1.9,6751],[1.9,6835],[1.9,6918],[1.9,7003],[1.9,7085],[1.9,7170],[1.9,7252],[1.9,7336],[1.9,7419],[1.9,7502],[1.9,7586],[1.9,7670],[1.9,7753],[1.9,7836],[1.9,7919],[1.9,8002],[1.9,8086],[1.9,8169],[1.9,8252],[1.9,8336],[1.9,8419],[1.9,8503],[1.9,8586],[1.9,8670],[1.9,8753],[1.9,8837],[1.9,8919],[1.9,9002],[1.9,9087],[1.9,9170],[1.9,9253],[1.9,9337],[1.9,9421],[1.9,9504],[1.9,9586],[1.9,9672],[1.9,9754],[1.9,9838],[1.9,9921],[1.9,10004],[1.9,10088],[1.9,10171],[1.9,10254],[1.9,10338],[1.9,10422],[1.9,10505],[1.9,10587],[1.9,10672],[1.9,10754],[1.9,10838],[1.9,10921],[1.9,11006],[1.9,11088],[1.9,11171],[1.9,11255],[1.9,11339],[1.9,11422],[1.9,11505],[1.9,11589],[1.9,11672],[1.9,11755],[1.9,11839],[1.9,11923],[1.9,12005],[1.9,12088],[1.9,12172],[1.9,12256],[1.9,12338],[2.5,12422],[50.2,13255],[52.5,13339],[52.6,13422],[52.1,13506],[52,13589],[56,13673],[59.2,13756],[59.4,13840],[59.4,13923],[59.3,14005],[59.5,14090],[62.1,14173],[62.3,14256],[62.3,14339],[61.6,14423],[56.7,14506],[48.4,14590],[42.3,14672],[42,14757],[42,14840],[42,14923],[41.9,15007],[35.5,15089],[32.7,15173],[31.7,15257],[31.3,15340],[31.2,15424],[30.8,15507],[29.6,15589],[28.8,15675],[25.6,15757],[22.6,15840],[22.6,15923],[22.6,16007],[18.5,16091],[13.2,16173],[11.6,16256],[11.5,16340],[11.1,16423],[10.4,16508],[9.2,16590],[6.7,16674],[5.6,16758],[4.6,16841],[3.2,16925],[1.8,17008],[0.8,17091],[0.7,17175],[0.7,17257],[0.7,17340],[0.7,17424],[0.7,17508],[0.7,17591],[0.7,17675],[0.7,17758],[0.7,17841],[0.7,17925],[0.7,18008],[0.7,18091],[0.7,18174],[0.7,18258],[0.7,18341],[0.7,18424],[0.7,18508],[0.7,18592],[0.7,18675],[0.7,18758],[0.7,18842],[0.7,18925],[0.7,19009],[0.7,19092],[0.7,19175],[0.7,19258],[0.7,19342],[0.7,19425],[0.7,19508],[0.7,19593],[0.7,19676],[0.7,19760],[0.7,19841],[0.7,19925],[0.7,20009],[0.7,20091],[0.7,20176],[0.7,20259],[0.7,20343],[0.7,20425],[0.7,20508],[0.7,20593],[0.7,20675],[0.7,20759],[0.7,20842],[0.7,20925],[0.7,21009],[0.7,21092],[0.7,21175],[0.7,21260],[0.7,21343],[0.7,21425],[0.7,21510],[0.7,21592],[0.7,21675],[0.7,21759],[0.7,21843],[0.7,21926],[0.7,22009],[0.7,22093],[0.7,22177],[0.7,22259],[0.7,22343],[0.7,22426],[0.7,22510],[0.7,22593],[0.7,22676],[0.7,22761],[0.7,22843],[0.7,22926],[0.7,23010],[0.7,23094],[0.7,23177],[0.7,23260],[0.7,23343],[0.7,23427],[0.7,23511],[0.7,23593],[0.7,23677],[0.7,23760],[0.7,23843],[0.7,23927],[0.7,24010],[0.7,24095],[0.7,24177],[0.7,24260],[0.7,24344],[0.7,24427],[0.7,24511],[0.7,24594],[0.7,24677],[0.7,24760],[0.7,24844],[0.7,24927],[0.7,25011],[0.7,25094],[0.7,25177],[0.7,25260],[0.7,25345],[0.7,25428],[0.7,25512],[0.7,25595],[0.7,25679],[0.7,25762],[0.7,25844],[0.7,25928],[0.7,26011],[0.7,26095],[0.7,26177],[0.7,26262],[0.7,26344],[0.7,26428],[0.7,26511],[0.7,26595],[0.7,26678],[0.7,26761],[0.7,26846],[0.7,26928],[0.7,27011],[0.7,27095],[0.7,27178],[0.7,27262],[0.7,27345],[0.7,27428],[0.7,27512],[0.7,27596],[0.7,27678],[0.7,27762],[0.7,27846],[0.7,27929],[0.7,28012],[0.7,28095],[0.7,28179],[0.7,28262],[0.7,28345],[0.7,28429],[0.7,28512],[0.7,28596],[0.7,28679],[0.7,28762],[0.7,28846],[0.7,28929],[0.7,29013],[0.7,29096],[0.7,29179],[0.7,29262],[0.7,29346],[0.7,29431]]",1,0,860.5909,862.0092,0.999145508,0.7176,"[{""rating"":0.9991455078124989,""responseTime"":0.7176000000238218}]",space,0.8852,,862.0093,Not at all,0,862.0157,,,[],,0,11,11,11,1,audio/Narrative8Situation2.wav,audio/Narrative7Situation2.wav,audio/Narrative6Situation2.wav,audio/Narrative5Situation2.wav,3,3,3,3,,,,,,,,,,,,,,,,,,,,,,,,,,,,,,,,,,,,,
,,,,,,664156baa6d54764ead4be7c,2024-05-13_11h45.08.476,group3.1-3.2-social-tom,2023.2.2,MacIntel,59.97361161,65c5074098b851296ff0b7ed,6642354db975e8c5f7c2a7c2,,,,,,,,,,,,,,,,,,,,,,,,,,,,,862.016,2,audio/Narrative5Situation3.wav,865.0274,,865.0274,878.9508,"[[1,2500],[1.4,2583],[1.6,2667],[1.9,2751],[2,2834],[2,2918],[2,3000],[2,3084],[2,3168],[2,3250],[2,3335],[2,3418],[2,3500],[2,3585],[2,3668],[2,3751],[2,3834],[2,3919],[2,4000],[2,4085],[2,4167],[2,4251],[2,4335],[2,4418],[2,4502],[2,4584],[2,4668],[2,4751],[2,4835],[2,4918],[2,5002],[2,5085],[2,5167],[2,5252],[2,5334],[2,5418],[2,5501],[2,5586],[2,5668],[2,5752],[94,6169],[96.8,6252],[96.8,6336],[96.8,6419],[96.8,6502],[96.8,6587],[98.5,6672],[100,6753],[100,6837],[100,6919],[100,7002],[100,7086],[100,7170],[100,7253],[100,7337],[100,7420],[100,7503],[100,7586],[100,7669],[100,7753],[100,7836],[100,7920],[100,8003],[100,8086],[100,8170],[100,8253],[100,8337],[100,8421],[100,8502],[100,8586],[100,8671],[100,8753],[100,8837],[100,8921],[100,9004],[100,9088],[100,9170],[100,9254],[100,9337],[100,9420],[100,9503],[100,9587],[100,9669],[100,9753],[100,9837],[100,9921],[100,10004],[100,10088],[100,10170],[100,10254],[100,10339],[100,10421],[100,10504],[100,10587],[100,10671],[100,10755],[100,10839],[100,10922],[100,11005],[100,11089],[100,11172],[100,11254],[100,11337],[100,11421],[100,11505],[100,11587],[100,11671],[100,11754],[100,11839],[100,11921],[100,12006],[100,12087],[100,12171],[100,12254],[100,12338],[100,12422],[100,12505],[100,12589],[100,12672],[100,12756],[100,12838],[100,12921],[100,13005],[100,13088],[100,13172],[100,13255],[99.7,13348],[99.3,13422],[99.3,13506],[99,13588],[98.4,13672],[97.8,13757],[96.7,13840],[96.2,13923]]",1,0,878.951,880.9844,75.11413574,1.4819,"[{""rating"":75.1141357421875,""responseTime"":1.4818999999762354}]",space,1.5039,,880.9845,Definitely yes,100,880.9898,,,[],,0,12,12,12,1,audio/Narrative8Situation3.wav,audio/Narrative7Situation3.wav,audio/Narrative6Situation3.wav,audio/Narrative5Situation3.wav,4,8,5,3,,,,,,,,,,,,,,,,,,,,,,,,,,,,,,,,,,,,,
,,,,,,664156baa6d54764ead4be7c,2024-05-13_11h45.08.476,group3.1-3.2-social-tom,2023.2.2,MacIntel,59.97361161,65c5074098b851296ff0b7ed,6642354db975e8c5f7c2a7c2,,,,,,,,,,,,,,,,,,,,,,,,,,,,,880.9901,2,audio/Narrative5Situation4.wav,882.0029,,882.003,902.3953,"[[999,0],[999,82],[999,165],[999,249],[999,332],[999,416],[999,498],[999,583],[999,666],[999,749],[999,831],[999,916],[999,999],[999,1083],[999,1166],[999,1249],[999,1333],[999,1415],[999,1499],[999,1584],[15.2,1666],[5.3,1749],[4.2,1833],[4.2,1916],[2.7,1999],[0.5,2083],[0.1,2166],[0.1,2250],[0.1,2333],[0.1,2417],[0.1,2505],[0.1,2584],[0.1,2667],[0.1,2749],[0.1,2833],[0.1,2917],[0.1,3000],[0.1,3084],[0.1,3167],[0.1,3250],[0.1,3334],[0.1,3417],[0.1,3500],[0.1,3584],[0.1,3666],[0.1,3750],[0.1,3834],[0.1,3917],[0.1,4001],[0.1,4084],[0.1,4168],[0.1,4251],[0.1,4334],[0.1,4418],[0.1,4501],[0.1,4584],[0.1,4668],[0.1,4751],[0.1,4834],[0.1,4917],[0.1,5000],[0.1,5084],[0.1,5167],[0.1,5251],[0.1,5334],[0.1,5418],[0.1,5501],[0.1,5585],[0.1,5667],[0.1,5750],[0.1,5834],[0.1,5918],[0.1,6002],[0.1,6085],[0.1,6168],[0.1,6252],[0.1,6335],[0.1,6418],[0.1,6502],[0.1,6585],[0.1,6669],[0.1,6752],[0.1,6834],[0.1,6919],[0.1,7001],[0.1,7085],[0.1,7169],[0.1,7251],[0.1,7335],[0.1,7418],[0.1,7502],[0.1,7585],[0.1,7669],[0.1,7752],[0.1,7835],[0.1,7918],[0.1,8002],[0.1,8085],[0.1,8168],[0.1,8252],[0.1,8335],[0.1,8419],[0.1,8502],[0.1,8586],[0.1,8669],[0.1,8753],[0.1,8836],[0.1,8920],[0.1,9003],[0.1,9085],[0.1,9169],[0.1,9252],[0.1,9335],[0.1,9419],[0.1,9503],[0.1,9586],[3.2,9671],[6.5,9754],[9.3,9836],[10.1,9924],[10.1,10004],[10.1,10086],[16.1,10170],[22.5,10253],[23.7,10336],[23.7,10419],[23.7,10502],[23.7,10586],[27.7,10671],[31.8,10754],[32.9,10837],[32.8,10919],[32.8,11003],[34.3,11088],[39.9,11171],[41,11253],[40.8,11336],[40.8,11420],[40.8,11503],[40.8,11588],[41.5,11670],[42.4,11754],[42.9,11837],[43.6,11921],[43.6,12004],[43.8,12087],[44,12170],[44,12254],[44,12337],[44,12420],[44,12503],[44,12588],[44,12670],[44,12754],[44,12837],[44,12921],[44,13004],[44,13087],[44,13171],[44,13255],[43.9,13339],[43.9,13421],[43.9,13504],[43.9,13589],[43.9,13671],[43.9,13754],[43.9,13838],[43.9,13921],[43.9,14004],[43.9,14088],[44.9,14171],[45.3,14254],[45.4,14338],[45.5,14421],[45.5,14506],[45.7,14588],[45.9,14673],[46.4,14755],[46.4,14839],[46.4,14922],[48.6,15172],[50.1,15255],[50.2,15338],[45.4,15422],[35.8,15506],[35.8,15589],[35.8,15672],[35.8,15756],[36.7,15840],[37.5,15922],[44.5,16007],[100,16672],[100,16756],[100,16840],[100,16923],[100,17007],[100,17089],[100,17174],[100,17258],[100,17339],[100,17423],[100,17507],[100,17589],[100,17673],[100,17756],[100,17839],[100,17923],[100,18006],[100,18090],[100,18173],[100,18256],[100,18340],[100,18423],[100,18507],[100,18590],[100,18675],[100,18757],[100,18841],[100,18923],[100,19008],[100,19092],[100,19175],[100,19257],[100,19341],[100,19425],[100,19507],[100,19592],[100,19675],[100,19757],[100,19842],[100,19925],[100,20009],[100,20091],[100,20174],[100,20258],[100,20342]]",1,0,902.3956,905.7473,75.30700684,2.8683,"[{""rating"":63.83850097656249,""responseTime"":1.5688999999761108},{""rating"":75.3070068359375,""responseTime"":2.8682999999523418}]",space,2.8018,,905.7473,Not at all,0,905.7528,,,[],,0,13,13,13,1,audio/Narrative8Situation4.wav,audio/Narrative7Situation4.wav,audio/Narrative6Situation4.wav,audio/Narrative5Situation4.wav,3,3,2,1,,,,,,,,,,,,,,,,,,,,,,,,,,,,,,,,,,,,,
,,,,,,664156baa6d54764ead4be7c,2024-05-13_11h45.08.476,group3.1-3.2-social-tom,2023.2.2,MacIntel,59.97361161,65c5074098b851296ff0b7ed,6642354db975e8c5f7c2a7c2,,,,,,,,,,,,,,,,,,,,,,,,,,,,,905.753,2,audio/Narrative5Situation5.wav,910.7654,,910.7654,926.1906,"[[8.1,1501],[7.1,1583],[6.9,1667],[5.9,1751],[4.7,1834],[2.9,1917],[1.9,2001],[1.7,2085],[1.4,2167],[0.7,2251],[2.6,11672],[95.9,12259],[91,12341],[89.4,12422],[84.4,12506],[79.6,12589],[75.3,12673],[74.5,12756],[74.5,12839],[66.4,12923],[53.6,13006],[52.1,13090],[51.6,13174],[50.7,13257],[50.4,13340],[50.4,13423],[50.3,13506],[50.3,13588],[50.3,13672],[50.3,13756],[50.3,13839],[50.3,13922],[50.3,14006],[50.3,14090],[50.3,14173],[48.1,14257],[13.7,14841],[8.8,14924],[5.8,15007],[3.5,15091],[3.5,15174],[3.5,15257],[2.1,15341],[0.2,15425]]",1,0,926.1908,928.6573,0.093383789,1.445,"[{""rating"":0.09338378906250111,""responseTime"":1.44500000000005}]",space,1.9192,,928.6574,Definitely yes,100,928.663,,,[],,0,14,14,14,1,audio/Narrative8Situation5.wav,audio/Narrative7Situation5.wav,audio/Narrative6Situation5.wav,audio/Narrative5Situation5.wav,2,5,2,5,,,,,,,,,,,,,,,,,,,,,,,,,,,,,,,,,,,,,
,,,,,,664156baa6d54764ead4be7c,2024-05-13_11h45.08.476,group3.1-3.2-social-tom,2023.2.2,MacIntel,59.97361161,65c5074098b851296ff0b7ed,6642354db975e8c5f7c2a7c2,,,,,,,,,,,,,,,,,,,,,,,,,,,,,928.6632,2,audio/Narrative5Situation6.wav,931.6761,,931.6762,937.3609,"[[999,10],[999,82],[999,165],[999,249],[999,331],[999,415],[999,498],[999,582],[999,666],[999,748],[999,832],[999,917],[999,998],[999,1082],[999,1166],[999,1249],[999,1332],[999,1417],[999,1499],[999,1582],[999,1667],[999,1750],[999,1832],[999,1916],[999,2000],[999,2082],[999,2166],[999,2250],[999,2333],[999,2416],[999,2499],[999,2582],[10.5,2666],[6.7,2749],[5.1,2833],[4.6,2916],[4,3001],[3.5,3084],[66.5,3333],[66.5,3417],[66.5,3501],[67.2,3585],[67.2,3667],[66.9,3750],[67.1,3834],[70.6,3917],[72.8,4000],[73.1,4083],[73.1,4167],[73.1,4250],[73.1,4335],[73.1,4417],[73.1,4501],[73.2,4583],[72.7,4667],[72.1,4750],[72.1,4834],[72.1,4918],[72.1,5000],[72.1,5084],[72.1,5167],[72.1,5251],[72.1,5334],[72.1,5419],[72.1,5501],[72.1,5584],[72.1,5668]]",1,0,937.3611,941.0646,98.48144531,3.1985,"[{""rating"":98.4814453125,""responseTime"":3.198500000000081}]",space,3.1717,,941.0647,Definitely yes,100,941.0702,,,[],,0,15,15,15,1,audio/Narrative8Situation6.wav,audio/Narrative7Situation6.wav,audio/Narrative6Situation6.wav,audio/Narrative5Situation6.wav,2,3,2,3,,,,,,,,,,,,,,,,,,,,,,,,,,,,,,,,,,,,,
,,,,,,664156baa6d54764ead4be7c,2024-05-13_11h45.08.476,group3.1-3.2-social-tom,2023.2.2,MacIntel,59.97361161,65c5074098b851296ff0b7ed,6642354db975e8c5f7c2a7c2,,,,,,,,,,,,,,,,,,,,,,,,,,,,,941.0705,2,audio/Narrative5Situation7.wav,945.0825,,945.0826,966.1253,"[[23.7,3666],[23.7,3750],[23.2,3834],[7.7,3917],[5.4,15255],[5.7,15340],[6.1,15423],[6.1,15505],[5.6,15590],[3.8,15673],[3.6,15756],[3.6,15840],[3.6,15922],[3.6,16007],[1.1,16091],[0.1,16173],[0.2,20592],[0.9,20675],[1.3,20758],[1.4,20842],[1.4,20925],[1.4,21009]]",1,0,966.1254,967.0756,1.889648438,0.5282,"[{""rating"":1.8896484375000022,""responseTime"":0.5281999999284608}]",space,0.4041,,967.0759,Partially,50,967.0826,,,[],,0,16,16,16,1,audio/Narrative8Situation7.wav,audio/Narrative7Situation7.wav,audio/Narrative6Situation7.wav,audio/Narrative5Situation7.wav,3,5,5,4,,,,,,,,,,,,,,,,,,,,,,,,,,,,,,,,,,,,,
,,,,,,664156baa6d54764ead4be7c,2024-05-13_11h45.08.476,group3.1-3.2-social-tom,2023.2.2,MacIntel,59.97361161,65c5074098b851296ff0b7ed,6642354db975e8c5f7c2a7c2,,,,,,,,,,,,,,,,,,,,,,,,,,,,,967.0828,2,audio/Narrative5Situation8.wav,970.0932,,970.0934,978.9145,"[[2.2,667],[2.5,750],[2.6,833],[2.6,916],[2.7,1001],[2.7,1084],[2.7,1166],[2.7,1251],[2.7,1334],[2.7,1417],[2.7,1500],[2.7,1584],[2.7,1667],[2.7,1751],[2.7,1834],[2.7,1917],[2.7,2000],[2.7,2084],[2.7,2168],[2.7,2251],[2.7,2333],[2.7,2418],[2.7,2501],[2.7,2583],[2.7,2667],[2.7,2750],[2.7,2834],[2.7,2917],[2.7,3001],[2.7,3085],[2.7,3168],[2.7,3250],[2.7,3334],[2.7,3417],[2.7,3501],[2.7,3584],[2.7,3668],[2.7,3751],[2.7,3834],[2.7,3918],[2.7,4002],[2.7,4084],[2.7,4168],[2.7,4252],[2.7,4334],[2.7,4418],[2.7,4502],[2.7,4584],[2.7,4668],[2.7,4751],[2.7,4835],[2.7,4918],[2.7,5002],[2.7,5085],[2.7,5168],[2.7,5251],[2.7,5335],[2.7,5418],[2.7,5502],[2.7,5585],[2.7,5670],[2.7,5752],[2.7,5836],[2.7,5919],[2.7,6003],[2.7,6086],[2.7,6169],[2.7,6252],[2.7,6336],[2.7,6419],[2.7,6502],[2.7,6586],[2.7,6669],[2.7,6752],[2.7,6836],[2.7,6919],[2.7,7003],[2.7,7086],[2.7,7169],[2.7,7252],[2.7,7336],[2.7,7419],[2.7,7502],[2.7,7586],[2.7,7669],[2.7,7753],[2.7,7836],[2.7,7920],[2.7,8003],[2.7,8086],[2.7,8170],[2.7,8253],[2.7,8336],[2.7,8420],[2.7,8504],[2.7,8586],[2.7,8670],[2.7,8753]]",1,0,978.9147,981.7498,0.467529297,2.0351,"[{""rating"":0.4675292968750022,""responseTime"":2.0350999999046735}]",space,2.2901,,981.7499,Not at all,0,981.7525,,,[],,0,17,17,17,1,audio/Narrative8Situation8.wav,audio/Narrative7Situation8.wav,audio/Narrative6Situation8.wav,audio/Narrative5Situation8.wav,3,2,5,3,,,,,,,,,,,,,,,,,,,,,,,,,,,,,,,,,,,,,
